ax,ay,az,gx,gy,gz,timestamp
-0.10114874485941945,0.02539069895519344,9.835254508275439,0.0023691929901308193,-0.01745067092227727,0.0035859063238655826,0.0
0.03870487178882981,0.1270642626546984,9.670490872561153,0.010922470961746741,-0.003307676482662958,-0.0054931214241767294,0.01
0.003723374678554265,0.05168523547296129,9.850715895443406,-0.008667308662565817,-0.014728459161957148,0.0021435168728515196,0.02
0.18465276513000128,0.07821892462888885,9.909515480474717,-0.006621663185732565,-0.01394744520508327,-0.005723144553603952,0.03
0.05488153635508467,0.16298640699286684,10.075935028162194,-0.010489126745555286,-0.020043074686247678,-3.523991146743638e-05,0.04
-0.048910143851217565,-0.22273929221573338,9.847474904381045,0.0022914186790478287,-5.4029360171333995e-05,0.007811709557322958,0.05
-0.0525274552034578,-0.1779247027478471,9.792985209684481,-0.008868950564514767,0.016119197313006827,-0.0009497655173533077,0.06
-0.009986622956207399,-0.12589366670238455,9.84500232572679,-0.0007366814597840358,0.0014091591184245279,0.006859137683353287,0.07
-0.045520011104766646,0.06702714965301573,9.794383890104417,-0.001046660890702256,-0.00011398244386026245,0.005376939392327843,0.08
0.10861591718466801,0.019461114587065263,9.81536902240782,0.012316659599995325,-0.017887173735315377,-0.00804252998886602,0.09
-0.016897583772211636,0.042157729137793934,9.925748683379645,0.013249713501626233,-0.002993719766938958,-0.009882987302661806,0.1
-0.06910161982322359,0.16442955955701544,9.92740838018377,-0.00555167220950981,-0.020123260277086927,-0.006022462507302008,0.11
-0.25658361284186054,-0.12595349744725545,9.972543751886604,-0.008379958109972037,0.00515718162874635,0.0018648361729684867,0.12
-0.10491630829968823,-0.019387087873571796,9.843433049144366,-0.0018028407870178537,0.0005163025282857569,-0.015158526965666797,0.13
-0.004447370303294858,0.07307755313588268,9.992735807951034,-8.791062782439378e-05,-0.004443696520079647,0.0001711007746501355,0.14
0.06639671715051894,-0.03755005245170894,9.830886389043025,-0.004480141916503993,-0.008645639554219285,-0.01045900733058894,0.15
-0.06726472888191368,-0.08915030160197243,9.957770051350723,0.00799057818082407,0.010674429238942216,0.0005353924675421964,0.16
0.04409515028059623,-0.1646912926356922,9.886588157431541,0.01657712988139319,-0.005717533420997567,0.005853354582689589,0.17
0.043158384321652365,-0.06841596127749605,9.823192592272493,-0.010702341377096435,0.01254091865772065,0.012410123867492363,0.18
-0.18919927279168197,-0.05158611911960525,9.78249468969225,0.00019378013732904313,0.012110323360147073,-0.013494874981352045,0.19
-0.06753035623347951,-0.06726388341001473,9.971474125881068,-0.0005737339608114068,0.013651201154267132,0.0031399607566754964,0.2
0.07705296626835066,0.006944015026872405,9.896314911122552,0.00016516710076172584,0.010663988237849047,-0.013968027831236192,0.21
-0.09977937157505616,0.018425466159414285,9.809002405254281,0.002896506762822885,0.002154085955042422,0.004633895325607892,0.22
-0.1683847183725384,0.0705519966971813,9.763173428685882,-0.026626277554197712,0.002522507895813179,-0.007684067938623711,0.23
-0.020016856751384315,-0.055506012479879144,9.734789815421736,0.003777066227247834,0.006265447757178036,0.009560703118540832,0.24
0.15450863111659152,0.052705348056094226,9.861829749055842,0.009242196303392456,-0.005566332901684892,0.008551042680366648,0.25
-0.08013547497624,-0.11309987540789906,9.797625464986604,0.01246864590333881,-0.0015544032766034342,-0.00876428374485958,0.26
-0.0041992769769214336,-0.03981728445487172,9.741152771820099,0.0058509781818209695,0.012522073783363417,-0.005166028957000144,0.27
-0.09468781725253184,0.02528828026157237,9.848243097011283,0.010312561887777275,0.014287743575707796,-0.004684268726916811,0.28
-0.10815192425497724,-0.13555266741433122,9.883787072109023,0.005782839685472641,0.00709598538037852,-0.004861647370255851,0.29
0.02780074374580598,-0.006950982237564642,9.638581222247364,-0.014514576240035803,-0.010497967414028048,0.003039541972758829,0.3
-0.0027153415333883413,0.045633636321691366,9.844842219989538,-0.0007114656576735767,0.014579881415371261,-0.0028550275841694667,0.31
0.07945803622747398,-0.12060908068585437,9.971653728324318,-0.004079735580126703,-0.004868025052063258,-0.013763512365208572,0.32
0.10189187547744315,0.04320325923625181,9.75111442003621,-0.008520751567770298,-0.007134118591138633,-0.0016757797640976745,0.33
-0.05300675280981069,0.22408434115674278,9.705524713770798,-0.018685450501622524,0.014102570005266225,0.0026680218357983893,0.34
0.005168854308782649,-0.15366622863304855,9.970168901716761,0.013010033292481307,-0.016746288491183633,0.009830962033969815,0.35000000000000003
0.0735219423055858,0.07073482879025447,9.792341634432875,1.7027670508868088e-05,0.004026170446268713,-0.007857142291144516,0.36
0.03981706290528437,0.05551819346532383,9.76564459150302,0.0050475098888836546,0.000151348230943435,0.00193278806156969,0.37
-0.12296053945570527,0.11514202242720313,9.935187796636367,-0.007983776115435003,-0.019172089321299726,-0.00850410976975967,0.38
-0.006521231730997022,0.12930898797833493,9.82570473875893,0.0010212294183846705,0.008293293272573513,0.013070199511292117,0.39
0.1706277520241687,-0.15826403645067474,9.741804806140266,0.005469987876925649,-0.0075886726851144785,0.003242254666605227,0.4
0.048182206474018,0.11316081648208601,9.76825568531429,-0.00967352754701624,0.023076374980603137,0.01336227745484352,0.41000000000000003
0.02966516641895366,0.11893731520115124,9.638352134942776,0.004879288898072339,0.0034876115827165845,-0.000594637983314398,0.42
0.24869545919280905,-0.13474848035887477,9.764665980591555,-0.00236440161914693,-0.0026232042090316354,-0.0018054078054603145,0.43
-0.05041401891583013,-0.07911842905934453,9.69542686805784,-0.023832522537644455,-0.00835718325270356,-0.0006496550925445012,0.44
-0.07184687941776473,0.04207662811538236,9.69931895968232,-0.0014128050850477603,-0.008325428366554408,0.007140967231791646,0.45
-0.06528774399709612,0.005452092967704342,9.824500564885446,-0.0011527685736895754,0.0035352695334783177,0.010023811006256218,0.46
-0.06729489736721933,0.06050904705395663,9.767978391162282,0.009466250728514125,-0.008729574221760303,0.0068607348057161816,0.47000000000000003
-0.0038147808457088747,-0.10706212731260636,9.641700587051432,0.008335490260409173,-0.0016222061158236165,-0.007729234300331122,0.48
0.1913078062749735,-0.038579891986681526,9.682085291095836,0.007599608943653391,0.005327027755344851,-0.007529482779034244,0.49
0.07665358537990952,0.056376470701946006,9.603755045404144,-0.022599699786655266,-0.007193379317767679,0.003491130729973217,0.5
-0.03198827783834283,0.03656348166907863,9.812392740655246,0.0063903499329422755,-0.006731985014479583,0.008490343862918253,0.51
0.08686811793233132,0.06303286685849314,9.876460326627411,0.0019035934754922132,-0.010398400799800107,-0.007541300279870382,0.52
0.03210508156889474,-0.0024050955799856276,9.67678779672009,0.0033565793888952144,-0.010884314994599173,0.01341810024727492,0.53
0.13086721278918556,0.10831124843755804,9.785700973831764,-0.020201899161880678,-0.0010808782924921036,-0.010461740311362837,0.54
-0.04079328083433004,0.1616382794743491,9.80740005695412,-0.00010795034474797445,-0.0037111260403680907,0.004467538451868993,0.55
-0.21996023737331655,0.15982208724528513,9.972271764321224,-0.007562397142492179,0.010355166239535876,0.0010593693592033404,0.56
-0.05353338015274918,0.049023428633958505,9.687068580793254,-0.0015804012598611397,-0.01286829973569246,0.01302093105713193,0.5700000000000001
0.06132466191472481,0.1253986442241192,9.779034338816471,0.008363124644334972,-0.007128614495860331,0.015150150589216888,0.58
0.10511697030467844,0.06504933140953,9.60525025389072,0.002912392491562082,-0.00012956574343508113,0.0015989280056718585,0.59
-0.008068900212716942,0.08703356708046908,9.818072723120832,0.0082583400873855,0.014658158078088686,0.016781877033293546,0.6
0.09166197351413602,0.13407581088105833,10.02752132679981,-0.009998491605970068,-0.001652264074597376,-0.001115580835035831,0.61
-0.10440770604420127,-0.06091980932023967,9.937990913864835,0.013136611044270115,-0.003031983875342021,-0.009116660868079537,0.62
-0.05072051663813737,-0.005224709850156039,9.731027080791376,0.005301256298502355,0.00862096722230786,-0.00769616326723431,0.63
0.10547173024728476,-0.017304960413294122,9.616070637675179,0.0036428545604446127,0.005178744135319933,-0.006047694807626895,0.64
-0.13998195608984165,-0.05844391235741481,9.832649443094885,0.0051981940783131795,-0.0020786206373013534,-0.0221301680750158,0.65
0.0021520497984066564,0.0939972135041905,9.743176912529448,0.0049852690021926415,0.016447721438714865,-0.00124346331810929,0.66
-0.08907384853920194,-0.087858524364961,9.812338355722403,-0.011393958376784481,-0.002867825221403883,-0.004618947236296227,0.67
0.11161971089790082,-0.01874214756692171,9.785804978398529,-0.009586666296507314,0.0008260043137493595,-0.0031563904365148098,0.68
0.12098249675416467,-0.05658535052667634,9.901391321597403,0.011011079802156687,-0.010451565222235707,0.008523540569910502,0.6900000000000001
0.1483642635626006,-0.06881117310895936,9.750392969801949,-0.00893543149906981,0.012331279305686225,-0.00892931622490683,0.7000000000000001
0.13811855802991788,0.038071552475347596,10.01109350063465,-0.00991897868527087,0.016161678816700227,0.002956693145622911,0.71
0.09348821352506638,-0.039747761759839406,9.886290681195838,-0.003457479680379198,-0.0018823801046926444,0.0018918814103821419,0.72
-0.13781978213242116,-0.04335472517179775,9.75272793260187,0.0072554293131961226,-0.003141803946790337,0.009394714788675694,0.73
-0.05315553156794072,-0.2270092278380798,9.822290284181419,0.000893985629399851,-0.0036896692946944906,-0.004994490001162173,0.74
0.04924625201383765,0.1472914303517134,9.848083413021365,0.004696887730741992,-0.025873365698115013,-0.01219626805469302,0.75
-0.14656478920002985,0.06940292514521405,9.762292059030232,-0.0033511425635349436,-0.011101900092746551,-0.004730690261933538,0.76
-0.009892413168683887,-0.013075901924857164,9.79371350722514,-0.0016724680514813473,0.001685829364546007,-0.005194135670642273,0.77
-0.14823159384643822,-0.08878437298965185,9.876146892328375,0.009171563686022422,-0.01330584277177039,0.008074791170200237,0.78
0.009515707567314832,-0.028029694842298777,9.893248514366464,0.01743315947319104,-0.0014684245354455207,0.002047894087390891,0.79
-0.10755897863719688,0.09512530176074044,9.840659522921701,-0.00031014177090692304,-0.009700929351215488,-0.0025758240047491104,0.8
0.0156356638970166,0.13544234155880838,9.871372052945205,-0.004454733335802944,-0.008004930665231924,-0.016775408248048577,0.81
-0.0669464485466974,-0.018554992109065808,9.733176905426944,-0.00813682881422048,-0.0052122762849602005,0.011883065117881585,0.8200000000000001
-0.17227931069391544,0.17033933796039857,9.616674622692939,-0.006357730773778614,0.006065426531178727,-0.008605659042054901,0.8300000000000001
-0.18463534970292078,-0.07409418211431737,9.844539942097263,-0.00880971411437041,0.004580905701180161,0.005575391062641785,0.84
-0.17073731024857158,0.04530570524926526,9.756821669794059,0.0129543222888529,-0.0009870941805618326,0.007794598552138748,0.85
0.04671930775677649,0.004518666690430138,10.04024323993853,-7.07014801727576e-05,-0.011450613043474807,-0.0007430256978408027,0.86
0.10216220504259539,0.05462163130223246,9.726800598719471,0.0014146563778863772,-0.005740428551363423,-0.004242535557026518,0.87
-0.0033662130131420194,0.07465327656984579,9.94368575586104,0.0031801670791755253,-0.0032044100265198774,-0.0033262980638206984,0.88
-0.11216871968471752,0.05323974161512682,9.725891503357515,-0.0036599285136949267,-0.006205401755240554,-0.009630971462915397,0.89
-0.2106170082527557,-0.015145327337467644,9.817330983746084,0.014215843145679514,0.013195854930702182,-0.005760740221044958,0.9
-0.037264228642105796,-0.13649218928523993,9.921688993393882,-0.010261775461429297,-0.006000228182908782,-0.008459875926343053,0.91
0.06759661526702802,0.0628385682697284,9.848360027570493,0.009379259572967175,0.003623761840050362,0.018699663515760308,0.92
-0.1529441238457101,0.1249250926706945,9.728008073521467,0.021241904941997923,0.018412012726464783,0.0003691909884065863,0.93
-0.0325651400594184,0.02059017749012519,9.806483755287408,0.0013278621305007887,0.003689805461301933,0.012017511229477971,0.9400000000000001
0.03245244132809957,0.15475157177023602,9.97312427185987,-0.005536388950606089,-0.014093085774850439,-0.002106356062380657,0.9500000000000001
-0.08114672595339843,-0.05428861661041411,9.829235968034109,0.0049584005200890855,-0.0028911104136637306,-0.004571925265950328,0.96
-0.10569473570130228,0.00405985248631047,9.725962092344352,0.007395276364068129,-0.0021566246796483816,-0.021394605749954526,0.97
0.15506124516098316,0.17264374523772236,9.540969211613994,-0.020632006296691503,-0.005622235338458312,-0.012848615693005905,0.98
-0.06589150278330447,0.01170497024314285,9.796961019497816,-0.00388610053102333,0.0018989999526172752,-0.007096143084260879,0.99
0.059853222579856494,-0.059173027021978,9.798867550009238,0.0005675017661323677,-0.00034172608693581124,-0.014482150804646743,1.0
-0.05496985639050631,0.07035346784247369,9.742366457362689,-0.004583542433885812,0.009859568775049836,0.009678625806288059,1.01
-0.15280210611041878,-0.29273167363317476,9.848679310109866,-0.010496315195358145,0.0025222003230630286,0.0035048316212458576,1.02
0.2215584830420176,-0.06772145168326353,9.751069379942114,0.0026827649956883705,0.008920409953641616,-0.010969609344340318,1.03
0.04618207137905183,-0.009071563317609638,9.926712083932276,-0.005202192634882755,0.020641505328046796,-0.0023964213307935108,1.04
-0.07026011616679512,-0.02592488128052427,9.673968134812647,-0.003932346580168425,0.010496218423596564,-0.00015703659725799146,1.05
0.08724599772586043,0.0366282373720895,9.788272785860187,0.00963834720797715,-0.000236354154250191,0.004631341129032354,1.06
-0.059097785401553554,0.1351837212484696,9.767757166079264,0.0014087252414473103,0.0223852988063109,-0.006461782877764313,1.07
0.09618301172603591,0.07469661100121365,9.768859308645643,0.0029093794030919167,-0.026964670875179002,-0.00823139778247726,1.08
-0.04399581225685295,-0.02146601128956729,9.986638349911226,-0.008746821533307015,0.012023306158893684,5.390501601987949e-05,1.09
-0.24690383618025527,-0.001288308605122842,9.888564644038484,0.006008593804151764,0.0012074190152911038,-0.011530893365655668,1.1
0.22987532724781096,-0.11860980795064309,9.832038478852072,-0.005517349666514474,0.013744981208870752,0.012165143977040318,1.11
-0.19381760467227516,-0.07923145384912185,9.892138101035023,0.005957516768716894,-0.003438285783391355,-0.00025874655276655737,1.12
-0.037927190371063416,0.1566379574352759,9.626063614307103,-0.0060041568714098706,0.0066233442225565875,0.011752512377118454,1.1300000000000001
-0.049034075046567926,0.02205333075669734,9.806455003675254,-0.010814217644374496,-0.005042965809503938,-0.010153790614789396,1.1400000000000001
0.01773218161427894,0.015036305614426902,9.793505702628954,-0.009166677676196458,0.006307705952741989,0.012158942734715017,1.1500000000000001
-0.009659709671974475,-0.11197547479770842,9.946136905789501,0.01698294662577648,-0.004512409565453456,-0.0202995120719847,1.16
-0.08573784494407422,0.022114025169435034,9.722837605836,0.0004443881608293161,-0.003557529030161279,-0.010072366916066985,1.17
-0.16480844452327423,-0.17934278144095975,9.858029424701858,-0.004385707169825703,0.004419573648387933,-0.0077623597066184815,1.18
0.1068934096344124,0.04094223963468882,9.679183243590993,-0.02369946780072782,0.01728108218704985,-0.005093197391266056,1.19
0.04529251136749364,0.09761136172500111,9.825247144206543,0.00019926565323742984,0.003411161844628188,-0.0011147290945780891,1.2
0.09424647639703922,0.03034642601735303,9.889483153456133,-0.017894301833730756,0.013107222942901118,0.009956286207664007,1.21
0.02492646773606187,0.05481168631137428,9.876210450034488,-0.0073201101072943465,-0.002271783550225205,0.0033354563361681373,1.22
0.08991792824202594,-0.05062506797935349,9.815828594642296,0.02204100352630652,0.0015568544491059819,-0.0036510840346359614,1.23
0.05161921766715432,-0.051677862445789806,9.733197363423624,-0.005157913247580615,0.02390976077588393,-0.011259617099561851,1.24
0.1123565674935318,-0.09102430400749878,9.679619951723923,-0.009290145197497005,0.0030530697362316835,-0.020326444048701525,1.25
0.018138381609260183,-0.06217451649174689,9.57960510037948,0.002932130875115619,0.0017201954133965675,0.010180211504187688,1.26
-0.011795619929754914,-0.09365019983625102,9.964073631949635,-0.006871659908310132,0.005315342226119545,-0.012338372023343615,1.27
0.15824887402527207,0.010800364334045567,9.674428399813282,0.0018861271313724045,-0.015366571838574957,0.01551557408292019,1.28
-0.03455419721128106,0.2143233835198291,9.857484981141251,0.0008952409857708988,0.009957160843329912,-0.016510702693258127,1.29
0.1862702820884251,-0.10512312287522713,9.9724421903897,0.003607706622325439,0.00966764751261617,-0.004021451760967168,1.3
0.08663811009902594,0.13218915396315925,9.708372112965542,-0.022316603136499195,-0.002897642825653706,0.0043103751454572365,1.31
-0.028137325431913995,0.026198702999483393,9.922495686430063,0.016073678668140995,-0.020449104114985874,0.004304518560552782,1.32
0.10014705820960808,0.010365000607486147,9.808136665005877,0.01346140958151749,0.007089415558776445,-0.022032758989501168,1.33
0.06601724357112569,0.018983292060677996,9.841193230163366,0.0011941522541648302,-0.006102060052854831,0.009722494382218236,1.34
0.015814003565432666,-0.04439042391567977,9.742681951794305,-0.004244481992249258,0.0011590168313825606,0.014054900133527188,1.35
-0.11571429900596682,-0.08771782583793675,9.574957027661704,-0.0022652964276279387,-0.001200009073922793,0.005191071519721805,1.36
0.027488194819580942,0.05534013806119388,9.800017685263695,-0.01023252805828722,0.0007169165359486524,-0.0014738378554300824,1.37
0.06949758840867566,-0.06559375516948106,10.004407840806795,-0.003864020482766173,0.008774425098169131,-0.003553622049688248,1.3800000000000001
0.21544295856367543,-0.007041779743703722,9.66671460769269,0.0020356332404842105,-0.007629062712316781,-0.006934623943732478,1.3900000000000001
-0.08763639988430345,-0.162085676366585,9.814229052542968,0.011275247766155946,-0.012316903779547389,0.03406797029029954,1.4000000000000001
0.0138336469431636,-0.05009037789677653,9.648422097041182,-0.004354435756522106,-0.0011762487639974996,0.011039100246843979,1.41
-0.14646613370788095,-0.026957343270419265,9.770182548206426,0.014839663261174304,0.016268645431434553,0.0004828039564640901,1.42
0.024367602223917085,0.0645545620110015,9.806822108446058,-0.009188152311320988,0.0024920482834555674,0.0062974255856109995,1.43
0.07571379438482788,-0.012692626916449928,9.865494814547835,-0.003914393573718581,-0.0020185313325468985,-0.0021777703475625194,1.44
-0.02457521365194482,0.04172733022004737,9.777113902561338,-0.0011331986442441088,-0.003470553197632405,0.012626375294467853,1.45
0.012406757959997676,0.03122202559822322,9.901398924682878,0.022520472110670053,0.026796311043486575,-0.011495709023416945,1.46
-0.20068169453697804,0.022594931310155997,9.707968138409385,0.004627478154168836,0.005392980543210875,-0.0024757430466606084,1.47
0.05776929130251093,-0.029877311652368593,9.865978177862154,0.0030184044408569813,0.0031096726528867104,-0.008684380397457211,1.48
-0.02882941273912168,-0.0008198175351634354,9.72900282663513,0.001763898363068934,-0.004027280540035406,0.005691593742593874,1.49
0.021365083305972875,-0.12604622569119125,9.754091852060775,0.009426586474927898,-0.00493866874325634,-0.005653058300506275,1.5
0.026673152676313833,0.21327626594012755,10.002865595421476,-0.02208242594105792,0.0038910951377118226,-0.02277542633267256,1.51
-0.10330565524284668,-0.08340509100437353,9.84630857686769,0.008801857664898398,0.006019438881929866,0.002790950858408334,1.52
-0.013823511504270912,0.017600140888947607,9.847963357606478,-0.00308706969809497,-0.007959722032919373,-0.0035045983223085577,1.53
-0.03851384399711994,0.15249881174847843,9.820864460034008,0.0011259347754097372,-0.007264729910840717,-0.006047343961363844,1.54
0.09539729275931777,0.05580735517667129,9.867623293359223,-0.015352009550026637,0.00010022988421090077,0.00024724407849296693,1.55
0.10202269007493701,-0.16356285062517364,10.082932114523947,0.0023175828198176546,-0.0033707437538422593,0.029416490285010283,1.56
0.04938099300078838,0.1706206088940876,9.94756619535646,0.013852877346948896,0.008604916037275749,-0.006191027396237345,1.57
-0.015702806857079442,-0.028074717343979677,9.89851581297179,0.003248376690337565,-0.002876235664585285,0.009819349906421741,1.58
-0.07609449294511995,0.058015390429747016,9.729328428778063,0.014867364110068913,0.003129668170806048,0.00647370531838623,1.59
-0.004840407635822019,-0.19033900670817702,9.94467996519932,0.004414006173302712,0.010067761437194572,0.001905832267282894,1.6
0.10530358475250311,-0.2336638761523558,9.952072185576668,-0.006724002038300195,0.007027478091417863,0.004472318488259819,1.61
0.11483798816293911,-0.08901866952180205,9.569896380001184,0.0061032048070391925,-0.001993557006032765,-0.010963193143944245,1.62
0.01429784138667534,-0.05915908330599393,9.821730496769993,0.00409770832276491,-0.009239011225822196,-0.005225394449404928,1.6300000000000001
-0.020861011202644483,0.03310151392827003,9.786600901934262,-0.020817491451622563,0.015581201864857213,0.0068769240900077855,1.6400000000000001
0.08661940408734566,-0.11066842950651475,9.970066192121934,0.002134166058557665,-0.01571755594462339,-0.004456174314039141,1.6500000000000001
-0.05346461198971397,0.14454014328969153,9.743952042847068,0.007368911528474066,-0.002359945331561547,0.017855317628453733,1.6600000000000001
0.03187359297442084,0.17789433293761292,10.057277851492868,-0.00843074882489709,-0.0030434539252924453,0.00531995236253622,1.67
0.0012598223106835438,0.1188675092955144,9.616799980681877,0.005579129492983173,0.008875700519839184,-0.011796891162517203,1.68
0.15733230402815704,-0.0139397145619476,9.721124016316459,0.011496098195313095,-0.0049541760470014915,-0.006947693167132348,1.69
-0.0834550738486186,-0.1029027554733356,9.80590118308296,0.0019346185720768444,0.01125673072806707,-0.010727760041183003,1.7
0.04254686454095107,0.06808515836062608,9.78581888295543,-0.004405778443642149,-0.00593872304990645,0.004786939922567251,1.71
-0.08446282648396514,0.11018474392684274,9.725625860607913,0.023391623977609424,0.003936957415160151,-0.009662536874052061,1.72
-0.13971114595455822,-0.10976588001431778,9.89216222825631,0.017982046376813624,-0.01352494651641447,-0.001069228537741141,1.73
0.11658948716325415,0.10214013651626844,9.9437007480079,0.028415726381557725,0.00903909919096068,0.013300998467280577,1.74
0.005782211698915488,-0.00933666635264869,9.72272465058251,-0.0017392237828500524,-0.01682673170041857,-0.005326789420083027,1.75
-0.047348160236350384,0.07368051505668856,9.755137595534778,0.0020300810459799603,-0.006703180716445176,-0.0016173084694118458,1.76
0.017423378802482552,0.05587409770331432,9.893477487789212,-0.013697528536210844,0.014071140631325016,0.004982709516493062,1.77
0.03924762516366905,-0.008583347963493906,9.686086367137698,0.017913982459285185,0.020475581378786446,-0.0019635094291645516,1.78
0.030765894106525773,0.04746735382301996,9.65306956933185,-0.00037712557562913986,0.0013355905125209799,0.0031448949840042727,1.79
0.15429370956501395,0.06284124855880849,9.779110839235061,-0.0023950215366258464,0.013183834898208083,0.0064703546969504065,1.8
0.15832738283190978,0.10053425382437049,9.779234162814387,0.005113609588570306,-0.0005971591979401146,-0.009116392309959252,1.81
-0.07180265058352056,0.11069724764522222,9.883965076696942,-0.007456857976602571,-0.013852115429081394,0.012087854456483893,1.82
0.030210611461198657,0.027633003982005983,9.679883307643383,0.0025710242340168804,0.006074926764332778,0.0025567154117315644,1.83
0.11939898764932855,0.09569239747063785,9.88524109158447,0.027279559443495416,-0.004335292791235029,0.008564471325587573,1.84
0.007646987772273065,0.07638312191510539,9.817259683318404,0.013300950983358935,-0.0029886979320378738,0.003824355078471355,1.85
0.04017816814090101,-0.09374634915675428,9.851547280823144,0.0132982870482187,-0.010757491441035143,0.011362738617038112,1.86
0.048615271787419964,-0.020425902184727267,9.77513430198616,-0.003680060025345577,0.008723877401547942,-0.017929832072960963,1.87
-0.02929768853379927,-0.03105665463372044,9.867409772411252,0.009774395447274856,-0.008781238884567144,0.0029617399846514803,1.8800000000000001
-0.013299685459599387,-0.09987772705469511,9.80793860494833,0.01532973718026328,0.015615530012309635,-0.01863225131654395,1.8900000000000001
-0.04923918496585317,0.18088768938928623,9.804254186197447,-0.002464888316735818,0.012799518523041833,0.0057139815834678235,1.9000000000000001
-0.026879836641160046,0.06473841915997801,9.83455715212895,-0.0004962413654328356,0.006442388199458053,0.01468666082202712,1.9100000000000001
-0.11227338153372353,-0.11914417290751995,9.879274183041435,-0.011971402431528009,0.021983117359196544,-0.0010202738187350907,1.92
-0.0347621143128256,0.0006123962758248745,9.84153933036495,0.010045301441633254,-0.003614164067948615,-0.0008388778902370772,1.93
0.0410605842401155,0.06866988452495733,9.797135640911447,0.0007704268807256168,0.004534450772169811,0.0172931500105737,1.94
0.2681577178454233,0.01016028138501014,9.756674723408183,-0.019386507968633972,-0.004873798104407776,-0.0013872438994412884,1.95
-0.15648260576516965,0.04872918025561024,9.797952420759282,-0.017029017562191568,0.0011339321436906271,-0.009439158081341525,1.96
-0.10051051825298563,-0.11532731457949633,9.705516585646238,0.011447366748662775,0.010200042322878982,0.0037161552748959364,1.97
0.005829076550670971,-0.046845594887415076,9.691310398248559,-0.011398607289740396,-0.011635754560217837,0.009713523720930053,1.98
0.04201603173186898,-0.14040826417684704,9.752755276209284,0.015351422828631806,0.007338938777818937,-0.011698359884513012,1.99
0.0905021335758242,0.11173488878292104,9.786522506025067,0.01362025264906424,-0.016011549148464862,0.0005867113010659687,2.0
-0.14083958292339646,-0.009551931777907965,9.67318071330013,0.003411197190689802,0.004163360805971597,-0.006687146433303572,2.0100000000000002
0.009770924210343286,0.017873209221931155,9.74654294209472,-0.005830318462025058,0.01244697640077352,-0.0004169549125594343,2.02
0.10732961801053176,-0.07296012685968022,9.97613277489644,-0.0064930967359740415,0.0013724676449328834,-0.015334064515258991,2.0300000000000002
0.10487273062868195,0.12119189437223109,9.78312925670484,0.02740810835978767,0.004829112058851364,0.0055949069024779285,2.04
-0.1961075142330963,0.07426681562261683,9.6736018681882,-0.02650684086102655,-0.012267515558772493,0.006973383650290448,2.05
0.14149561474070352,0.04549897852255493,9.753946357527802,0.0069123467117583,0.004763227783847134,-0.01622029475233878,2.06
-0.06643807636379719,0.02944128704570853,9.857934362312058,0.007591276562798881,0.001823115861328547,-0.004474933640336999,2.07
0.021447002820000838,-0.003186999322968969,9.914243237605463,-0.018718141099363688,-0.014022622854807203,-0.0032650778504780026,2.08
-0.005866833389422089,-0.07863201500490474,9.814424994388316,0.001145638347298918,-0.0005008428182746459,0.016236106336130908,2.09
0.06049000816352679,0.07688642899757643,9.711870088219362,-0.024048957916225442,-0.016113601632567195,0.002862094976619511,2.1
0.19288370425158688,-0.0486463347940546,9.7114696335692,0.010410329148766398,0.008978784944143814,0.011451227168528486,2.11
0.006444126770041782,-0.05452168341688281,9.885355681717922,0.01257426256717786,0.003775549753743735,0.0001871388176770877,2.12
0.14803000646727263,-0.06254235733200592,9.885333126721225,-0.003001913323503031,0.009816911645229978,-0.006396362398948512,2.13
-0.0022038475434170567,-0.06169992852204756,9.934825052188032,-0.0046203503689969,-0.002050998556195625,-0.00760982641146648,2.14
-0.16448924030342577,0.07536897317322518,9.720147970944307,0.022094350923786612,0.0017433837356529791,-0.010846339403507835,2.15
0.017961837807506747,0.018820617777791128,9.721498679614406,-0.008070186414006138,0.02149485248264587,0.022275149546201026,2.16
-0.09727314515422214,0.04804337741526034,9.952911734934624,-0.019164056098179515,-0.013255823393049412,-0.006309696572162793,2.17
0.08170325642466189,-0.04587602198415106,9.678175281621293,-0.00622640899126925,-0.004667540799313782,-0.0059139881537112905,2.18
0.02924155403565894,-0.028565660139826143,9.741954235247166,-0.0027524560319322445,-0.008641098411372316,-0.01241840966466346,2.19
-0.08004763040510672,0.06380724192571129,9.982341159110096,-0.007079356560398256,-0.0055586120271880046,-0.017216741113358497,2.2
0.025628988948342125,0.04890961048366024,9.69375326779113,-0.007138922448392699,-0.0024953182985127382,-0.007935927009369091,2.21
0.02805415968534891,0.13292757418262635,9.720581864849152,0.020914693597809557,-0.00995580267505753,-0.01264844754831594,2.22
-0.09055476515173433,-0.04943347400692255,9.767950121208317,0.004207705601494517,0.0013257569175961696,-0.003858862330218524,2.23
-0.12034834899596708,-0.05558809171910864,9.869975217645619,-0.008801661359530076,0.012761969883046259,-0.007519907068209062,2.24
-0.1328798309342081,0.1695726857005153,9.830964378486566,0.005883337858358737,-0.0015378506325651599,0.006295359614163641,2.25
-0.07850544189105396,-0.1259524214818787,10.041790038588214,-0.006652312887005249,0.0037301127365773467,-0.006512775483400899,2.2600000000000002
0.00747842868655035,0.002720434871921096,9.767379159861768,-0.011708538252697659,0.015332130626385087,0.003635595039083308,2.27
-0.013620332829495494,-0.05118251289821201,9.708696582471768,0.001586632960200498,0.005542860919748228,-0.004681177525375005,2.2800000000000002
0.11033735453609649,-0.04795375559245935,9.836684143836711,0.008447508556029704,0.0019035210549749352,0.012037961722936995,2.29
-0.13097402522868995,0.13296270429952992,9.81429996657753,-0.0028264843679161157,-0.002871186896704553,-0.0022523633503498605,2.3000000000000003
-0.06801689238089824,0.09097254194272074,9.68437732814606,-0.002636924191601032,-0.020418583939528234,0.010024518766586044,2.31
-0.04928044538183601,0.07033700241487105,9.749222160140029,-0.00948892545391117,-0.004210623964642755,-0.013965614353836532,2.32
0.0013738627210704841,-0.1275198445362719,9.707375992286519,-0.00028235663280136566,0.01092575629786818,-0.005533875658240043,2.33
0.06694785334515876,-0.19537571532029974,9.72507064305515,0.009577953227607535,-0.006395863424357539,-0.00013026977749107502,2.34
0.01899651180661938,0.056282343151747675,9.757333169429357,0.008406069188645365,0.0019936004977863008,-0.006372692134432182,2.35
-0.10597063543617738,0.10069169260883236,9.870851208156312,-0.0036365947354873337,0.005044184547017007,0.00378522183392192,2.36
-0.1794301193950589,-0.015251210163518195,10.007098962039272,0.007483276926480185,-0.011057983910000919,0.005509605884719259,2.37
-0.08691915191696042,-0.08322529211226937,9.976967842453284,0.0007389591041073859,-0.006546219083459307,-0.0029362268039026334,2.38
-0.03984495762014677,-0.042293387788242126,9.96524343338258,-0.006884695269761256,0.0006968179990432174,0.0027775946062278314,2.39
0.1327067943185465,-0.013612834348914535,9.97774252584275,-0.012854961257674245,-0.009201669611612303,0.0059754485129227385,2.4
0.033225673089512686,0.004660119862789843,9.985856364257938,-0.005676009681570628,-0.011502116136245641,0.0231082811828016,2.41
0.025099157813381713,0.06596130959320011,9.940412993809488,0.011239329229693618,-0.011430051913295445,-0.007610865068610953,2.42
-0.09839085494536565,-0.15768972348666663,9.64082598112046,0.006713301281885726,0.002330445850426916,-0.004656853019242251,2.43
0.023924160106704062,0.003174982266068358,9.769884921113357,0.0164593668905013,-0.010770118921362943,0.023623679290008543,2.44
-0.12075527889360263,0.022611913664776672,9.726113664337062,0.006966196776486536,0.0021948842586775753,0.020470909222303962,2.45
0.17471167947195568,-0.14529261906004629,9.7864040100907,0.021937813288744012,-0.009325125370263993,0.00016161782952066537,2.46
0.133117872690523,0.019280791631167204,9.774354369612183,-0.011689310858498706,0.00848813552550902,0.006360380570190541,2.47
0.1670333835191257,0.09683692505325558,9.769854500920921,0.0003505702294322165,-0.006890307249015775,0.0010213488960189648,2.48
-0.2288794343636238,-0.18567503343494185,9.874386741742688,-0.004911467953609984,0.0006268581461295891,-0.010580062086796547,2.49
-0.018535513841062567,0.03112593749737293,9.795302308246132,-0.013955040340112468,-0.007154502970538608,0.001096982999081814,2.5
-0.15566491523888787,0.08705657248532267,9.747804969699393,0.011745859574132824,0.002030709811636596,-0.010167883419683865,2.5100000000000002
0.10163952606413916,0.02547311570726519,9.786884924779248,-0.006030666277358569,-0.004642564330410885,0.013025164018945672,2.52
-0.058327082430412215,-0.07274544976501078,9.923195770749235,0.0007497362303908844,-0.00032459721321547667,-0.011754670731770922,2.5300000000000002
0.05049544367247758,-0.01461671976129647,9.825012068244323,0.0011849027723949556,9.216136677994195e-05,-0.021522750340029373,2.54
-0.03919145762035207,0.11599899725193333,9.838697110749173,0.0011459565685878596,-0.013131654825470948,-0.0013252476232742667,2.5500000000000003
-0.18896409764610855,-0.12617246413755978,9.923963730467857,-0.0036607622097897057,0.010025888468177818,-0.003984113131538136,2.56
-0.04530436088709136,-0.03601218211658196,9.957699610349389,0.004766368965104232,-0.012197338410531371,0.012146906904690023,2.57
-0.1559706546242335,-0.010531259927483078,9.810232082830648,0.011128433515446668,-0.004674026837789631,-0.01322206668632708,2.58
0.000504977492927268,-0.08594565011982858,9.7870054523842,-0.007311132619052427,-0.003891726496609459,-0.0014314363953826423,2.59
-0.10315819248571174,0.13281910893919482,9.830771901996176,-0.007392193006162818,-0.002456653226787224,-0.005878856406968423,2.6
-0.057515960614067864,-0.0816994729688625,9.809810263401362,-0.013897666898991832,0.019127427597462648,0.0077243094862776834,2.61
0.10331659103033503,0.08474363499720379,9.808646353580889,-0.012592479308789475,0.005212174617112055,0.005301820672799773,2.62
-0.026520431107574724,-0.039524850583162956,9.804767095938526,-0.00575122023447876,-0.022860063971011146,-0.012335464963682883,2.63
0.09151664983183147,0.13089651500766777,9.897853097962743,0.008005561620742318,0.007655669949630113,-0.016936107950064373,2.64
-0.047048661336794806,-0.054403145127046464,9.739518570732876,-0.004053466337162752,-0.0179714608701215,0.0003201203177216957,2.65
0.12102230099943097,-0.020801675394702773,9.798399962899408,-0.012735468531969414,-0.012033598421182885,0.009724876824549464,2.66
0.048887109459172906,0.11838207741670206,9.783620005090008,-0.010419563373656395,-0.008396638791744947,0.016616451193710635,2.67
-0.022721022328993968,-0.006795244881222594,9.796900887684478,0.008321137632258191,0.004560114815207663,-0.003915110492110432,2.68
-0.10389530662331531,0.09358605026222477,9.800254281549497,-0.014200073816918537,0.005492599442953525,-0.013482453943335453,2.69
0.05876904704697661,0.07417503296758671,10.155990341332506,-0.011135102839052263,0.003997469360536169,-0.012710344902052828,2.7
0.052061208829560626,0.08361462693133742,9.797764811076139,-0.005309175746255592,0.0005634227635085842,-0.009416901727119044,2.71
-0.003808546516383825,-0.09464528558961262,9.612305224466738,-0.0011170604158806403,-0.01777448071463129,-0.015704614488788994,2.72
-0.12592681477528384,0.1791808953862749,9.861982671938353,0.007082529356641129,0.01347344813964968,0.020848243319727164,2.73
0.11509420141593668,0.0006850596031508849,9.952560865469593,-0.004729011740072024,-0.023646880577856817,0.018124794724769945,2.74
-0.014909689062814811,0.01781430019997211,9.768408627152072,-0.001952512112820571,0.00618748437950846,-0.0018852968646435944,2.75
0.06500060496526296,-0.09454771055014516,9.721166575321373,0.0027136584997533354,-0.004211435889571182,-0.003435963416370821,2.7600000000000002
0.11867161214165155,0.12207570527018007,9.912379576268991,0.005163428989081806,-0.010814336614950768,-0.009076528409785985,2.77
0.13988210481240507,0.06193529248651628,9.871238283146212,-0.02102445674420561,-0.01250995852508562,0.0033903489623506584,2.7800000000000002
-0.10548630285348995,-0.016252572991245877,10.00178216155007,-0.0034996402572780817,0.0024326335555260167,-0.009791323316849225,2.79
0.04309197456681865,0.07892481122803585,9.867682603600796,0.005062852700340149,-0.01809908852752547,0.0020678895126455175,2.8000000000000003
-0.010145526424111076,-0.011605056194797632,9.705911502318418,-0.010558162917347767,-0.00024188157270273032,-0.012768665302417105,2.81
-0.2266899225745775,-0.11560302233122255,9.764535680320718,0.005704129256979514,0.005734252231539702,-0.017895999208615537,2.82
-0.0785297281839655,-0.09715062125916206,9.724463880395684,0.012266367450356594,-0.0017326193219996233,0.009468718324003153,2.83
0.17255583111378334,-0.11775056193898702,9.821989028646144,-0.00814004878915741,0.002833076447623838,-0.018515150437956557,2.84
-0.04171531545830512,-0.09736359825293722,9.507852968384308,0.018414795844977693,-0.007943034949564652,-0.00035917136666785676,2.85
0.006703078147982569,-0.16427564117043292,9.81864314815244,0.0057407254019586455,-0.007571195391401839,9.391418097751806e-05,2.86
-0.1721129975504744,0.05061131904073786,9.778966924863903,0.010816403008135729,-0.00524315645141415,0.0017457482388630761,2.87
0.03815772707403241,0.11237072741541553,9.882703066925274,-0.010751931966360576,0.008596473101567931,0.0029947613282260096,2.88
0.14753015547516135,-0.08994369525024604,9.832700616722102,-0.004797439794220649,-0.0066976432806607755,0.0199087852405512,2.89
-0.013471743755863333,-0.006950138011195164,9.734451918170768,-0.002594155293175528,-0.009795035115296597,-0.0031999907673995885,2.9
0.20298040210761045,-0.1739079293574852,9.76179354510216,0.015211685566598018,-0.0029102725060822184,-0.0002155429221097425,2.91
-0.029436936528076205,0.006385557601791877,9.75683642448389,-0.009482745786931037,-0.012668249069549815,-0.0028922093395803206,2.92
0.024818302701776873,0.14885749550332927,9.867944336178072,0.014852851298787382,-0.004625667997990114,0.008707713491651996,2.93
0.14401790971666395,-0.05089291525920974,9.786006988641645,-0.013357499472146341,-0.015143843667564962,-0.002962951339528593,2.94
0.07327723035719397,-0.0038096213210437376,9.652829944740404,0.010348521634069375,0.02066279351659854,0.003328204593449679,2.95
0.025229946772960133,0.039077005688090284,9.723088652533336,-0.0035799408927825833,-0.004568428792652055,0.014341171359736362,2.96
-0.010045002395781056,-0.00674780642171349,9.868308385885474,-0.000620891529218876,-0.012310689050716382,0.011887229144612863,2.97
0.010183409005829449,-0.043212222256428366,9.942214010991,0.012554012463165228,-0.0029839730753280893,0.0012230549610756658,2.98
-0.08847172688510638,0.030605806221587054,9.771206938924635,0.002244053114718952,-0.0028941807603375144,-0.006547779612005068,2.99
0.036692556251693945,0.12377655994637948,9.718657458076434,-0.01057364196804554,-0.00426534419483931,0.0044540457936108006,3.0
-0.10708951365768049,-0.04753297006755149,9.821729816482982,-0.01534493037917934,-0.010445248288373368,2.812230143448073e-05,3.0100000000000002
0.026488789061871562,-0.07089434986780588,9.974504851427294,-0.009779897212755033,-0.009255363574586036,-0.0007501111997651619,3.02
-0.08511849703279906,-0.17914847110224985,9.669574878963001,0.012261337778047178,0.013047111004020348,-0.0012310892674029718,3.0300000000000002
-0.1133368457813197,0.0510501248999934,9.788573929950388,-0.002622675435637249,0.005615002204530245,0.005308256442438475,3.04
-0.04581070071515357,0.06019775078424277,9.862965215958981,0.01581011723329318,0.00719373305414251,-0.005486430022976484,3.0500000000000003
-0.15978876602955577,0.1425410509228626,9.802711901311177,0.0245300241631478,-0.018902374698088906,-0.0027513025620576805,3.06
0.03163532077026517,0.1342672868742614,9.64960331277137,0.0009349567975970004,-0.020586543671991184,-0.002459311882728463,3.0700000000000003
0.10756807890680575,-0.1489560421991035,9.803279064269912,-0.009873825364265424,0.007294940911152001,-0.022154193335641215,3.08
0.020023700183154105,-0.10980923806543952,9.50843019688535,0.0054979711165601556,-0.0034162070084165254,-0.002383190173613167,3.09
-0.08124250366922821,0.14717007749284403,9.898269515995388,0.008445976844852132,-0.00730498592680538,0.005490029847865213,3.1
-0.11297326570793856,-0.03238503264773481,9.752456427563033,-0.006210761720786495,0.001022659885575552,-0.005642841742989651,3.11
0.01745650106306022,-0.03119787822749073,9.779074009576446,-0.018512698310726543,-0.006571477463692837,-0.002691306729088116,3.12
-0.08957883998942273,-0.018666897418344878,9.733995613579456,0.010820729249466097,0.004966782152885471,0.00016096004996094936,3.13
0.10125636685358592,0.07140965286481192,10.050584997027588,0.010995802965047331,0.003751219350814433,0.009089388931620965,3.14
-0.27559684307426924,-0.13974412136915773,9.729161991052282,0.014142464037226615,0.003153389375985573,0.014154786499566807,3.15
0.08727498451049664,0.08658313606806657,10.011706838428916,-0.007617380769695932,0.0048149882756266475,0.004887350235360625,3.16
-0.11520941191772856,-0.19059051853067865,9.785400889738353,0.006213243428414347,-0.009095024513753725,0.005622152679948272,3.17
0.23995653627845082,0.019045596743883127,9.72782418822316,-0.003673250008280292,-0.001962768857423047,0.009817587454780874,3.18
-0.11255007111346654,0.19646776871636093,9.825067323587819,0.009996347093058543,-0.0010070838592610865,-3.755363016451444e-05,3.19
0.017881944425976248,0.1571117341226995,9.900194354786441,0.01155827384952014,0.009755596699856468,-0.002320904722644362,3.2
0.03512692383903032,0.05188104745838998,9.87406950006355,-0.003549053538758697,-0.01100618405018295,-0.009123169867392793,3.21
-0.011795581905387268,0.020866879808137447,9.728353162502806,0.005001042718919109,-0.005206187724763697,-0.0039769173740486245,3.22
-0.08319619501020309,0.020754607822420598,9.782657783580788,-0.0027246493786484546,-0.0015454713615134434,0.0076119644471297,3.23
0.0516478857100129,-0.07610724589383427,9.767210226290644,0.019117682452785008,0.008618506998725285,-0.005121067802509788,3.24
0.25172943341385234,0.16636159842344037,9.770846641668271,-0.005593948256287436,-0.014853807509800842,0.012690731713888355,3.25
-0.017586959877950212,0.03812658727471938,9.891701472250872,0.004081854537789526,0.022454146100632538,-0.004780172673909183,3.2600000000000002
0.0227951063834372,-0.16028646174269778,9.7958906204084,-0.0025418096210582325,0.0018418950910432253,-0.006598197548308455,3.27
0.00822250708108846,-0.19723393090468228,9.839974709604292,0.004845878994076829,0.004308438430645717,-0.002980171551621716,3.2800000000000002
0.0698260057605249,-0.09383799572535265,9.768681729352378,0.010438454291301505,0.0034097297105690257,0.012335151565050264,3.29
-0.10615847979966803,-0.008873270291919935,9.772113964887184,0.005330106824151666,-0.009170981078156542,-0.011603174337526808,3.3000000000000003
-0.006539154353396983,-0.07529537114385931,9.85795474375699,-0.005305958847195388,0.02175366076363863,0.005085387991113479,3.31
-0.3147592588882278,-0.05616167570355225,9.842695394317666,-0.010131529394205955,-0.016685876107474514,0.009733691358864982,3.3200000000000003
-0.025014106711787023,-0.2583025299806515,9.685943029069195,0.010345757434443143,0.0035490860548443408,0.008331243370720996,3.33
-0.03631248711560401,-0.1764737538687361,9.876557112757773,0.010449729480406698,-0.0321386559768163,0.007142142877144426,3.34
-0.053069622505731565,-0.023097458271569154,9.761461498389322,-0.024056619137771042,0.014173461767681837,0.015689889115133165,3.35
0.0553120894807027,0.0411623824192218,9.88349128535167,-0.0013327549790958188,0.0024934176925293094,-0.007494530992178341,3.36
0.2078625966196993,-0.0174663103133758,9.878780772476576,0.01587233782871795,0.004636633567580275,-0.006111360613264901,3.37
0.06941795241409825,0.20582927261226114,9.62586683573712,0.004289446730164934,-0.007700982906376013,-0.002259948713103332,3.38
-0.048084713729250356,0.03428488403607401,9.850983882314587,0.005405694859548587,2.3231270312009533e-05,0.0023824197876680295,3.39
0.0032817016962230607,-0.05527590824427656,9.888901943497288,-0.004707699247776609,0.014807897433691302,0.004534221164665523,3.4
0.08815564156415534,-0.016284667085114297,9.797272768908856,0.023697944021495027,-0.010221330601087064,0.019548805763894277,3.41
0.0639487494929346,-0.006269643896167833,9.78506699497858,0.014968583526938292,-0.0012161832778501797,0.009563658170397898,3.42
-0.2725607247919071,-0.023704430932472542,9.82968729023742,-0.0006072383851115159,0.0046800458050802775,0.002004631183309378,3.43
0.09260871621722148,-0.032358001131320466,9.988265263627147,-0.012420118887301526,0.017607906711825813,0.011903027300662204,3.44
0.09364828491141686,-0.0052305937633769055,9.742523826804936,-0.006586183967265042,-0.0016656244040329506,-0.0078058813543275245,3.45
0.10862239149454667,0.20761850816125002,9.72677828683209,-0.013878946135623665,0.0025939120790706227,-0.003221547418641424,3.46
-0.030498531348537767,-0.04256195053898934,9.82576977479635,-0.004267560374340176,-0.014899975367242085,-0.0011153068820740771,3.47
0.053133863917929326,-0.04145044547201128,9.77272800401317,-0.002400881738991935,-0.00017818061584421563,0.0070968255644754145,3.48
0.01927279292456803,0.02551120052654325,9.771576577364932,-0.014976410590117142,0.006547987158348745,-0.0122627730878598,3.49
0.02259162224731618,-0.04934816457261497,9.74551386352745,-0.001071330336211966,-0.0011846913560278848,-0.012451811681934238,3.5
-0.09533767711368518,0.06284281894897702,9.80239447000562,0.008581529630682755,0.0019090262630681826,0.002135867036627013,3.5100000000000002
-0.0011551908711647481,0.015456042904788761,9.858423583386152,0.011563259230795373,-0.005613943956658339,-0.0042559837890950225,3.52
0.11075771939188439,0.00019228525439854777,9.67793868222785,-0.007984973560153801,0.010677933571106498,-0.0030175623483766918,3.5300000000000002
-0.1250950497828157,0.12405187287907618,9.810045824727899,0.004792609286638571,0.004409437398667966,0.010079113500018473,3.54
-0.05712330661501515,-0.011185471254796983,9.836550010706848,0.00042637707862035776,-0.006742961410813153,0.012269920425801016,3.5500000000000003
0.0449053526709984,0.166860506065871,9.977032182396316,0.0009099153784144329,0.012703151579391227,-0.014129593012068207,3.56
0.05048754697711713,0.06401237575084427,9.848058509105284,0.006041133830149793,0.007036765533467285,0.006984865681304163,3.5700000000000003
-0.14314746859031732,0.16738974761274283,9.57584439905142,-0.007109042508130279,-0.012879511903328646,0.0006039160965972842,3.58
0.16877831572192392,-0.08520767821954017,9.668605510894347,-0.008887653137533341,-0.0062845856454293025,0.010367815167575265,3.59
0.04254374976604398,0.14439114910351367,9.876289580887757,0.0005074792503051402,-0.007580448108994615,-0.015932620099372848,3.6
0.012119474554412498,-0.028940150137072976,9.920026697534395,0.01351994157933309,-0.00562350623372329,-0.019517675937620004,3.61
0.2044248393248457,-0.14281848005672892,9.818042228560557,0.01101351036514495,-0.003084522737959295,0.015930180559296424,3.62
-0.05767891929585282,0.010708168458928566,9.750182543873859,-0.0007795455998543685,-0.0009065080525267422,0.006169866608061504,3.63
-0.0779685182710202,-0.056169507267107836,9.956741343359045,0.0015044556168881025,0.012325973549708403,-0.009189758689712738,3.64
-0.13051482042296325,-0.08010338481855403,9.963438551931306,-0.010522594775869356,0.002562595948363713,-0.016139954720970143,3.65
0.07166581650240723,-0.11605207512559138,9.685414931250737,0.013631345242229509,0.008880046523911108,-0.007694838777474484,3.66
0.07189104314820002,0.04666053171799533,9.861502528027751,-0.011863182905853498,-0.0020332621254408596,0.020031624096461795,3.67
-0.006322198931017208,0.004753103296580966,9.909823020214656,-0.010495792607922669,-0.01756357252300981,-0.01162155593072382,3.68
0.020959439565059072,0.033402522240597025,9.912253035510892,-0.003364488943511888,0.0024974050133763693,0.011835993755834714,3.69
0.03326802900037151,0.0538197365766958,9.758860505862144,0.005573889064017143,-0.010638795569649043,0.007030035266351901,3.7
-0.0905351860852106,-0.089884202319283,9.707515671639884,-0.004370913176793523,0.01979926235254431,0.002497124189033409,3.71
-0.08111910447655318,0.05432825785631196,9.863207066840735,-0.007580041603532651,-0.0013846936602626245,0.005894335745844024,3.72
0.02156561459802989,-0.2578323735839824,10.047095393372109,0.00274840363150611,-0.0013956734219650673,-0.026889151444285705,3.73
-0.017568180736566408,-0.09807819780562746,9.866103123620961,0.003850661934069206,-0.005382054188613448,-0.0003698804925238489,3.74
0.06510830939641997,-0.039025188740491656,9.826447718369094,0.014021435124836834,-0.015134444490264005,-0.01084751425048304,3.75
-0.21971482649658172,-0.1341466831909716,9.737154381108146,-0.004680783000376578,0.004703092525209632,-0.008906639824072131,3.7600000000000002
-0.02344789899769128,-0.010294945770659859,9.66105840284411,0.01591777178716161,0.021422386357234594,-0.00019538697186253414,3.77
-0.003020018359834807,-0.08156546184822086,9.847257697305208,-0.017308023744925453,-0.005167934976695948,-0.004899991073489236,3.7800000000000002
-0.006608682703827204,-0.15899067395454017,9.974381081314583,-0.005093068818718638,-0.0064186706232132905,0.012300360679566427,3.79
-0.04604198750814845,-0.09428092344017894,10.013294773734165,0.004486736715637799,-0.006371521247199421,-0.00017092745315386835,3.8000000000000003
0.11561447914997934,-0.07734145618021997,9.79374858454015,0.009368345527996057,0.007164197593944952,-0.007878654954150254,3.81
-0.2268439352748175,-0.026774251131152185,9.68851809412103,-0.007936037224185693,0.02010834597642065,-0.00217495057143374,3.8200000000000003
-0.0005167736389149776,0.08300202026344328,9.801954611935447,-0.007116486955611163,-0.0008840317898390468,0.014081217920527418,3.83
0.09048614137570161,0.029697920413983038,9.792584836614747,-0.0019634737915945606,-0.0015096308143078985,0.004512235102307513,3.84
0.07120205544677911,0.012504350464824813,9.817286946015216,-0.014027464641958993,-0.0053410656246845245,0.009251112806683878,3.85
-0.027446024735590033,-0.051611419994212426,9.838742766416845,0.0023399474113512063,-0.0031811742019982265,0.008670270399196581,3.86
0.03620557756054403,-0.1715743098399455,9.643995597282393,-0.00371595897805762,-0.01361763556647692,-0.003363333336753749,3.87
0.03887953423459765,0.07705236628909767,9.73625573833685,0.008401562665497644,-0.011754732425302703,-0.0004175010498088487,3.88
-0.0785979340908533,0.1317255644430383,9.903261942748232,-0.00031376715408153476,-0.014646930143966936,0.009321336978243727,3.89
0.15331036531693343,0.1591187501636425,9.75064198760406,0.008543275729549951,0.009048724018472114,-0.015082604363111762,3.9
0.09322842617232008,-0.09031082283647153,9.822206076906147,0.015989019690763467,0.008252177277295637,0.0047854837240060245,3.91
0.046779376596779276,-0.01723416085299947,9.85896268248522,0.006715559005985325,0.013422922027597895,-0.0038916895316985036,3.92
0.09677773303706298,-0.009709782444746465,9.866388316742754,0.009842309334407544,0.0004201047758936392,0.012249560129248325,3.93
0.07529746090445591,0.15282375532320952,9.836236687464849,-0.0011482526567778983,0.014278377022374184,0.006950293946304779,3.94
-0.029843909321335363,0.02636793011689728,9.810103864171806,0.00816573040558631,-0.0004973640146212254,-0.021391971490808286,3.95
-0.11882772726193927,0.027699342500086835,9.796413697207562,0.001405982735437427,0.008276101476933946,-0.0005254771853281277,3.96
-0.047679897081059214,0.01660220589106881,9.857921488813362,-0.007380753522950585,0.00535793599130675,0.019736719719908803,3.97
0.18763456125389702,0.046948515449252604,9.739594902151033,0.0004964806665089327,0.011634584923595216,-0.006588714527720517,3.98
-0.15820527605128246,-0.06770675561598234,9.706130895053304,0.01714035362007352,0.012473240015055455,0.007416003405339072,3.99
0.12058975074243178,-0.07832325396803014,9.730454717594467,0.011316455191912012,-0.0008128519915761989,-0.0044483690481535235,4.0
-0.060236049166285166,-0.18520056734350362,9.749420013946343,-0.006308119508738487,-0.006852255191857852,0.007927826298560887,4.01
0.034154823204925376,-0.22390569695347895,9.826309786842607,0.0056984518466809755,-0.006957183076198506,-0.0053842884127136,4.0200000000000005
0.08022091474289829,-0.08812577388468873,9.92060828183407,-0.002812395831599179,0.0022139037899057954,-0.010013070753524278,4.03
-0.04206248566788948,-0.08430161685078497,9.936793686426384,-0.01078796461120016,-0.003996613097928414,0.012547595400501908,4.04
-0.06272776895712855,0.07792858642052258,9.689125581320845,-0.005322361944092986,0.0030764086002081944,-0.022660461299601635,4.05
0.15060296723298927,-0.09571141420310049,9.753753458090534,0.007127318652170248,0.003995687267337241,0.0069560061497745095,4.0600000000000005
0.023591665754325,0.061462583454405154,10.036456945625822,-0.014322094091325744,0.0015895182099445132,0.006830015488921105,4.07
-0.06781480668083882,-0.17762942287343686,9.799333938252301,0.0011897592022298929,0.01488271343070253,0.027563472123545592,4.08
-0.05670216106342977,0.09319008502035092,9.954166001482488,-0.006514199620033883,0.0031550213649929265,0.002084105166464711,4.09
0.016870645265593967,-0.018293348710996606,9.74907403445283,-0.012540185296459883,-0.0012384033187693604,-0.0009756360795013218,4.1
-0.103610150264965,-0.16666777540591465,9.892804305443768,0.005062349919887688,0.00883526567248219,0.015062233996521608,4.11
0.11061477668981097,0.05762890189148139,9.801564163379128,0.00391111156954669,-0.00850310080569363,-0.006437393296381477,4.12
0.1166690228592279,0.10874772360299184,9.712574516635362,0.00019188574552706,0.00209784296582421,-0.011351664411829228,4.13
0.16415943513425077,-0.07557830537111426,9.822924999861636,0.011100631048958387,0.005969031062257848,0.002261726019141269,4.14
-0.23120313943954734,0.08991369340275956,9.91187195595756,0.007321995327140129,-0.006899003910325999,0.016972434462739727,4.15
0.013750446786063042,0.05533572031467304,9.816866568001933,-0.007830466112686306,0.003543121558233938,0.003562910458049368,4.16
-0.12705686568579844,-0.04616981251240054,9.8150866885845,0.010011755105646645,-0.009238905520941424,0.005233659519351467,4.17
-0.07615398841618613,0.074166900979769,9.671468078880507,-0.004906000748388317,-0.006320966345569711,0.0009642291164718628,4.18
-0.05773091131327192,0.214522686963379,10.005488915272007,0.0028570735164337676,0.006518240516856406,0.0027552263514030173,4.19
-0.07201631263747982,0.060874257976966176,9.668199910929852,0.005706076111288011,0.0022014488326464214,0.008216584444463312,4.2
-0.04076687874338714,-0.00022416735997846722,9.923025259128016,-0.006529262504735924,-0.0013192073911550747,0.010095182957969176,4.21
0.0478294672048402,-0.055026095950070936,9.829719200207133,0.008312405877518773,-0.006368753760476197,-0.01391749671278937,4.22
0.1726349092290352,0.0624621186397693,9.800537832008779,-0.00343651448886358,-0.009375753205924165,-0.007719232789384063,4.23
-0.17464883046858207,0.045129387206726726,9.979867070849226,0.008891693911095941,0.020509576118039666,0.006552503930450524,4.24
0.06909046999042337,0.043822808516409927,9.794631814530982,0.004323836025122033,-0.004757672687602161,9.424169724892065e-05,4.25
0.053479972234728494,-0.0511923322894115,9.785270185393825,-0.0008824268892663645,0.010557752125653314,-0.003927667278519525,4.26
-0.1917812876314496,-0.21889863637764395,9.909543281710025,0.02639153691957186,-0.0022054453407227663,0.0025052827537138944,4.2700000000000005
-0.08475307644933688,-0.005997651522626001,9.781112606781107,0.001438830080167091,-0.0090394287124629,0.0075395045888442406,4.28
-0.08947563045269427,0.06905025413129018,9.707919251662899,0.003929340429064048,-0.01116314616505391,-0.014031026872164471,4.29
-0.06272733920344939,-0.018593068095114653,9.785396796420791,-0.006779528040492441,0.015573619514888353,-0.00602325440786469,4.3
0.13646340389002196,0.022582738069635455,9.890149855867032,-0.005088100760179665,-0.004669467704761453,-0.017624072836666792,4.3100000000000005
-0.058468839529360495,-0.038618637407890004,9.843407064670261,-0.0019149219802524135,0.00298476240895533,0.006151497427951092,4.32
0.06142192196198995,0.02871084799347841,9.8405050627401,-0.006171733360519548,-0.004836901876375068,-0.004783443721529083,4.33
0.0040457884672580845,-0.026030913569912703,9.930549521757342,-0.0052649412579724225,0.0026798305596184148,-0.0016978088134136362,4.34
0.15528212706706385,0.03313651210365503,9.811481469011515,0.011415675434138569,0.004272782577861205,0.005355008332155068,4.3500000000000005
-0.1110625204463321,-0.15160049369569392,9.887929597119255,0.01194788862496339,-0.009348610444472884,-0.005293493664335061,4.36
0.049724351126021915,0.13878202881650722,9.593078303364692,0.0016033125544982869,0.00787871603620705,0.003529441411800475,4.37
0.11649908993529273,-0.03533576964454803,9.698136749820153,-0.013078051748629051,-0.013378027084062391,-0.007863052586692043,4.38
-0.028079949336272017,0.14913314196635252,9.943381336086333,-0.00714429783836836,-0.022091674735343805,0.0032235234636511277,4.39
0.09202583825393333,0.0854991319826738,9.978623843528785,0.003544211095784027,-0.012388940823796468,0.004091251368454836,4.4
0.11271048948962262,-0.036055601826537546,9.806551037860812,0.0128963518088205,0.0029434136014956764,0.013203613105552268,4.41
-0.0016910812706331963,0.09200196830820084,9.839057446626887,-0.002886532310412813,0.012589903197889949,-0.0018212437252977701,4.42
-0.10326331648925742,0.03459767071753676,10.03576795496414,0.02177824191143824,0.008309949687099406,-0.022362614948541814,4.43
-0.011989735391535531,-0.19321555515332275,9.83574638205452,-0.0024563896322554123,-0.010793685318069835,-0.0028900766936790366,4.44
0.008380113789773646,0.14276587826813064,9.915687381607423,0.01563229526734607,0.002588949121763781,0.01242168216236978,4.45
-0.08883022846322308,0.035511404768172515,9.861345804464166,-0.008190095593001245,-0.012779342838054613,0.02527904160394561,4.46
-0.022933447680744738,0.03781998102001915,9.905208116712451,0.0034247091669464863,-0.0025656200197306032,-0.0006447343522695437,4.47
0.06723511322781991,0.08041863712473878,9.910450299008541,0.020760467139260386,-0.018745378278526667,0.017903277452555627,4.48
-0.10638897572794136,-0.18987788464072433,9.815731552434869,-0.00010829542618240015,-0.025470501658980883,-0.010450285468662819,4.49
0.03192150184507366,-0.08579978564004603,9.675031579621619,0.003281220683712726,-0.003747119858070959,-0.005489062841251597,4.5
-0.2672059218003904,0.06278726089747304,9.737084902479435,-0.005433498846941143,0.002102714327231007,-0.01831930391046982,4.51
0.18744164845618366,-0.007378504504393395,9.961411783986632,-0.01448670120628064,0.01001076210472069,0.011737954354411993,4.5200000000000005
-0.055887733990089075,0.08144166483930049,10.027803709481491,-0.004266090326306267,0.000915521477379393,0.014033946902861305,4.53
-0.0806581765315952,0.10798821088845355,9.81647886148479,0.0037498678445557856,0.007528911094760137,-0.00048553000149365776,4.54
0.0031414161246849782,0.14634612475336017,9.666287969528755,-0.011973766960637072,-0.01931496398801035,-0.009049091394053594,4.55
0.13717382855904595,-0.07887328685994138,9.80072632463008,0.0018987447393227802,-0.0032653656835264573,0.00256572631228032,4.5600000000000005
-0.12551808806492623,-0.08985721801191117,9.777132761655137,0.002126858771151982,-0.01161420337811085,0.014686523436714656,4.57
0.006998177939171878,0.08189587749195004,9.806749953478903,-0.0018965547633853447,0.001651769906435005,0.00565586592397601,4.58
-0.11464089350326807,0.08101274680552939,9.856546356443156,-0.018812743539769194,-0.0018220008519115117,0.014011278997326569,4.59
0.02901485221405429,0.16325979297456528,9.713984701528497,-0.014248654024600921,-0.0033731021219677994,-0.012793879896624963,4.6000000000000005
0.05814626405085458,-0.007891548166756369,9.838100386862074,0.016682973707323825,0.0165350451615713,0.004749216600931674,4.61
-0.13975857832256997,-0.011206369305898523,9.877807803578854,0.00297739392690971,-0.015483200896950771,-0.0020911811087729196,4.62
0.011082879623362761,0.0433132938954016,9.750711466408069,-0.008182299164451028,0.012205729900772596,0.0013254455676849916,4.63
0.17851220614976002,-0.017375891346160643,9.854439587910873,0.007834326842370686,0.008857652017507938,0.011560601521803387,4.64
0.1290848793819137,0.04347219523559719,9.67913638903689,-0.007535641497964559,-0.0018900690258588032,0.010308501179961632,4.65
0.03496416692937645,0.09372735817663248,9.792253049735367,-0.005654872565205293,0.0062570503885773865,-0.018365485564252042,4.66
-0.026278559610818625,-0.07674379302974658,9.72131007446272,0.024221669795081863,-0.005497036593699085,0.0010602615458604838,4.67
-0.037951245800433096,-0.218560122068673,9.854703011245606,0.004766547909961302,-0.010955243837688871,0.0028769321006892664,4.68
-0.19548457455017978,-0.0196276229997929,9.697089813472411,0.005199001794246259,-0.006555660259471408,-0.013965766129830665,4.69
-0.2071332255685229,-0.010110367410055686,9.608882935477695,-0.010646553460563684,-0.009730720229792524,0.006336902288558762,4.7
0.07530003902450555,-0.08174291837078683,9.834149344709498,-0.0139899993010248,-0.004648174350495136,0.0030505817761619205,4.71
-0.06850351652290522,0.010674473273369324,9.768703033389912,-0.010317900132422992,0.00638366973204324,-0.0090950172931252,4.72
0.04038633292361677,-0.053425416071681456,9.737399787854663,0.0004985065060030809,0.005384453050908714,0.009674218304968127,4.73
0.022054182303483577,-0.1480556490997653,9.659716459119172,0.009019593455912724,0.013479782105706124,-0.004455790600191704,4.74
-0.0919025692925246,0.01339415408589399,9.75486907272313,-0.008396946517550687,-0.0009627935976323241,0.007985420237160215,4.75
-0.09557291333192604,-0.02402093784378125,9.716031946501413,-0.013280714541758207,-0.001538362919624701,-0.014877152716961701,4.76
-0.16384196152793148,0.11793222616643802,9.883800927506513,0.00023236981161451183,-0.0030315207034460542,-0.009306441936892547,4.7700000000000005
0.10008749783231452,0.0034429101288945096,9.92941697176948,-0.009518028237382573,-0.00908772985993858,-0.012943579178335878,4.78
0.19273498867763522,0.10333039437425809,9.861223695024119,0.01249055821187263,-0.004784274512984173,0.00687664685607781,4.79
-0.08731003749549973,-0.0747787045550724,9.9402807307876,-0.0025469791730637964,0.0053401319128144244,-0.006204374022662154,4.8
-0.034244002566006806,-0.03492731614278606,9.781846506426492,-0.011842546592025518,-0.004054627690091495,0.010746691366050956,4.8100000000000005
-0.07799829498591475,-0.08529308407738975,9.851125487201042,-0.011129986732124921,0.002803399143617774,-0.004273088634400651,4.82
-0.13999597811304773,-0.0819901854920755,9.68006584724611,0.008376632708209656,-0.030463701049875343,-0.009859507615334119,4.83
-0.08545478582129512,-0.053259520977714706,9.72936505657074,-0.010671639077624298,-0.01909943939262644,-0.013253987448454397,4.84
0.09308381392934767,-0.07603560944693048,9.624872282058023,0.01202886098984885,0.005643618436251753,-0.013579027050478316,4.8500000000000005
0.25773011200053547,0.09968380701987772,10.060576915226173,-0.00291679707532985,0.010704837053617433,-0.005039850766483715,4.86
0.049974684404806465,0.0062735949597095275,9.816989870533826,0.010205559678364548,0.0019082141059559483,0.0015812134237697258,4.87
-0.0468457314339375,-0.04782500577848679,9.76868467586172,-1.56219943130925e-05,0.0034239945146063715,-0.004820733026645877,4.88
0.14267538978973945,0.06497373724205152,9.950380304627199,0.0018307205144191662,0.004889257114869542,0.0015581150117972603,4.89
0.044263580964757236,0.1033201177274193,9.85335319486695,-0.0024989322786435966,-0.022476008266111496,0.004575668484314612,4.9
0.0844746260992716,-0.005900331304777862,9.659863835722769,-0.0024972978198940224,-0.005761135011719354,-0.008871946488430708,4.91
-0.07039281308087093,-0.10718967852522268,9.904689818641513,-0.004734744362167358,-0.013949394443780157,-0.0200282840060275,4.92
0.01454971545502589,-0.001454096178788312,9.67071963506678,0.006094632761166319,0.024644634668165338,-0.003992771272372361,4.93
0.12228389050552622,-0.08099918139201452,9.748837236617454,-0.014663938221032966,0.0025967795603833526,-0.02071704449564569,4.94
-0.07764681070177731,0.031541420156645086,9.781493390831171,-0.014278396499620722,-0.009931012960342687,-0.009944328735575787,4.95
-0.011357871360721791,-0.07633912637646066,9.720265710088016,-0.01000549542925375,-0.015065565877090785,-0.017085045302551213,4.96
-0.03922788351584546,-0.14725805315939514,9.998516858926918,-0.005773595490102586,0.003409759707831526,0.005673182019302217,4.97
0.08432705842927028,0.012503670700822934,9.893858297662748,0.011812350359996244,0.0005132973570976764,-0.005597201797867937,4.98
0.03415612317762176,-0.12225893578843619,10.069094064371168,-0.010603521305150972,-0.005604581952733603,0.0074647389885937245,4.99
-0.03140608982814441,-0.02795572948327368,9.77952029310062,-0.012197279814389736,0.007258460143444659,-0.010795951417536663,5.0
-0.06477141350224608,0.168638433844694,10.065716698751887,-0.018399788042078646,-0.0028363062119694115,0.00434787166655785,5.01
0.030330010654119506,-0.05250099845082164,9.827389590340573,0.027815694855458695,0.00929849874558844,0.009231060359640133,5.0200000000000005
-0.032230226279371235,-0.14791765773879126,9.711087068484787,-0.023231438390931145,0.004276398672162718,0.0021216186492079396,5.03
0.06108549461621015,0.12327489194044394,9.739279427568038,-0.0027659987693816153,0.0002598875235191744,0.0027006045154587387,5.04
0.16882370739428998,-0.013942157543839082,9.820866930902987,-0.006578915397172469,0.007477240309775149,-0.007178736858595256,5.05
-0.039799513860114974,-0.0018435776707647275,9.880013590402697,0.008417061730034207,-0.0006514433417996962,-0.006121079235945826,5.0600000000000005
0.038746309124917236,0.05643628770705389,9.936788334680111,-0.016667294349478678,-0.006694946086264545,-0.008861861645076425,5.07
0.1449771833661749,0.10874859567800277,9.769211613325192,-0.011387137174325912,0.004853681037188759,0.0032280689095255622,5.08
0.007761390167432669,0.1840731251163325,9.719049257184556,-0.003849139972467317,-0.002389287766479128,0.01688608509045256,5.09
0.008233814491690236,0.1515439997993217,9.831008151898628,0.013199155931883252,0.02022198512404605,-0.01597053244712227,5.1000000000000005
0.03517334223559231,0.05134784819142033,9.905072202540385,0.001216645948542794,-0.014887064340266182,0.00023846413540363706,5.11
-0.09102942819960354,-0.042573149206240134,9.661877698468157,-0.0009499480703123843,-0.00933057516688902,-0.018003367020814225,5.12
-0.0014257835748054497,0.05150368725724633,9.910632891797015,-0.0038663834751218335,0.002839864104318038,-0.008500035684025858,5.13
0.24173641613077393,-0.03555877983322807,9.825341882763917,-0.02252686706465921,-0.0011013966673614145,0.00013112145877793203,5.14
0.0036023226914049505,0.017334784752619365,9.769865800168287,-0.004414027876747871,0.008652737669041975,0.012304505058568536,5.15
0.17806593607195442,0.004570730815286099,9.956434573918404,0.005418704796165951,-0.0010975660918545076,-0.013201594941135562,5.16
-0.022563746730401686,-0.0260622965242538,9.75619944866659,0.013562650869790392,0.0006328453940863171,0.0067266817052751785,5.17
-0.12328845561212934,0.17707899132853144,9.7669833679892,0.015166168010164117,0.009909189514836431,-0.0027489249426770157,5.18
-0.020338250188950333,-0.046289688630248356,9.78054127997371,-0.0009888902546477444,-0.006840888099026348,-0.02187367364637089,5.19
0.06926547538266625,-0.059552823135684975,9.580509835768648,0.012496311784710081,0.008327470533884737,0.014919735216728734,5.2
-0.017898719606379728,0.06118442675533704,9.67523178351176,0.017751308362989535,0.004479909549494124,0.00195500485398249,5.21
-0.11771885321003157,-0.1337001680919284,9.915794158736507,0.007435936745337414,-0.0018864762331436647,0.00973877326504265,5.22
-0.08086927480539907,-0.17680101486837674,9.875884667824204,-0.006575964691695396,0.01449770646202195,0.006945538171685007,5.23
-0.049248731306694556,-0.0766993408288228,9.965256540123846,-0.00039153650128365093,-0.008351336679373161,-0.01329129904515814,5.24
0.07073807349238136,0.031565046000731546,9.802323083187437,-0.0032518118258706343,-0.006491217529978661,0.0002138822770213603,5.25
-0.12653706525201566,-0.10709186770021678,9.976173843435069,-0.00722409644934185,0.004804625777549184,-0.006311503041441136,5.26
-0.05049966051643598,0.08238398772575449,9.787646850476326,0.008488301941552829,-0.001830993597479294,-0.0017158499407225539,5.2700000000000005
-0.0377077056586057,0.06041359995604269,9.774006483804238,-0.014711521703789553,0.0018721256891378146,-0.013661102643843735,5.28
-0.07250667338732303,-0.05001045165547559,9.953492356877765,0.002362408636162653,0.0015220003536766016,0.004477720885958857,5.29
0.04730649121322272,-0.07909003141030646,9.672549915364764,0.006006008065310929,-0.000615041320887932,-0.001589102871251653,5.3
0.12391857979253623,0.06229560037346064,9.837598164427341,-0.005279547795118602,-0.00016554130821783491,-0.00314016145184176,5.3100000000000005
-0.008199363727578554,0.0019867840233569654,9.809007618125962,-0.005358180391777468,-0.010192600112168236,0.008330409046057927,5.32
-0.009368058634632645,-0.014667973750601256,9.770977181115311,-0.00938037377477908,0.008587716218907773,-0.0031070574688721537,5.33
0.0631923090859556,-0.03714147768250935,9.818076038921124,0.01829532716642341,0.0009190095992275212,0.007661412037096841,5.34
0.039191381424900994,-0.05708435720320613,9.82762139381919,0.006931977643036058,0.004528749007323238,0.014809036089483108,5.3500000000000005
-0.13535293602279516,-0.017452324456147007,9.680478750473771,0.015627844436341482,-0.014916018052263542,0.009206779326069649,5.36
0.16696959238433556,0.1881773251093555,9.851040614646502,-0.01672979683812343,0.012891288406248414,0.0012641161555611675,5.37
-0.08009952199325354,0.04600106512260892,9.787865025234568,0.006444022403951892,0.007932687710451612,0.002047281567378068,5.38
0.01342967030913826,-0.014933765312271861,9.657026385565912,-0.010254114983971501,0.013707025742172809,-0.01755331395842798,5.39
-0.14857480828267217,0.1348984198593643,9.87758325679624,0.010239194187277338,0.00477116894089081,-0.010227827917830152,5.4
0.050497056416921406,0.052821590626206054,9.740996505540679,-0.010774918687632348,-0.014526089021254018,0.0038142558734391664,5.41
-0.04021057338973301,-0.09689678098820129,9.819441382026367,0.012287339544983535,0.002118260165325194,-0.0015214751560594273,5.42
0.05952143091871305,-0.01759018600206295,9.658503413264093,-0.00871944863801484,0.020658009254368066,0.0012391526920232602,5.43
0.031891577722866445,-0.18754034620296156,9.846384664981933,0.009210242950195692,-0.028438680382807415,0.024228938502188,5.44
0.11340703347110725,0.16999321253011107,9.982944397249385,-0.0013125362278282454,0.0018351993727008429,-0.006101487792817214,5.45
-0.010470678300733125,-0.1065791311182111,9.830925710045014,-0.0013336848977295018,-0.00856353079426767,0.010806615022930741,5.46
0.1037265158698672,0.026213918571324525,9.88393479423066,0.0072432887277635236,-0.01921762066873001,0.010534129811098008,5.47
-0.04934830687781311,0.03216821591940262,9.847226608719252,-0.014844330277313189,-0.003265783326592027,0.019574484244546362,5.48
-0.10320881877829423,-0.09990103567948813,9.771074576837906,0.002982648154837505,-0.006672523102555342,-0.008022216730463189,5.49
0.06939318626600646,0.07827121182422428,9.801247061953026,0.011186587783807853,0.004173660760261423,-0.011755037431297705,5.5
-0.02545391808382091,0.01342446701285231,9.624966110854858,-0.0034840920402236996,-0.008599230116910436,0.015002455125412921,5.51
-0.1398253382570759,-0.0097251841063673,9.79027268938245,-0.003947104624053513,0.009548026591234755,0.0008683544833039154,5.5200000000000005
0.08341943563488588,-0.036013454578638714,9.758688932263034,0.007514694558434038,0.008746777536332328,0.011160844562881979,5.53
0.11511228614792757,-0.11208706624698324,9.973506125959636,-0.004592008287058908,-0.0060738524632782355,-0.007694719312680236,5.54
0.020024932295879632,0.08007521036535183,9.922019160156752,0.011564378461421254,0.005974898302257099,0.004047665009424491,5.55
-0.06500434701916542,0.0974105096410945,9.967913238599493,-0.014880942996911435,-0.010294609866336527,0.0015095147096790657,5.5600000000000005
-0.02186447468877733,-0.029894959815243052,9.842453640192428,0.0016012462911682765,-0.0054008883485375915,-0.015307085325069124,5.57
-0.0003306792929506636,-0.15371499796917584,9.687147165930906,0.012214518471892736,-0.0023413407648742706,0.012224194179748666,5.58
-0.07155509414659597,-0.028060568279840464,9.71792350804934,-0.006765970308164028,0.0002354422490850922,0.0022365719071225734,5.59
-0.055664130820369376,-0.22059311201731427,9.809488877312694,-0.0044174625978508275,-0.013052132417361762,-0.0067816327131602966,5.6000000000000005
-0.07432454618530968,0.04446979073597388,10.012645011891824,0.008608728949458258,-0.011170141865626364,-0.0005940450222939005,5.61
-0.0894689972035761,0.12434736743178423,9.785753270741518,-0.007849176422342206,-0.018459845808428223,-0.016360270129818878,5.62
-0.030879783156397275,-0.05172599352959119,9.842455547470378,-0.006633124652777852,-0.005969084096577049,0.006750541946328344,5.63
0.08652166652871336,0.32189071642772155,9.840578426260798,-0.0016085743786097126,0.016020929376134762,-0.00679739776703593,5.64
-0.12296960996895566,-0.010669796228244818,9.734456795482734,0.0018036870583527662,-0.010437454588035482,-0.004031818375917106,5.65
0.057288095996432954,-0.1942700064282049,9.80060501215816,0.01071660631273909,0.0210987297099583,0.0006733123952967129,5.66
-0.0933612963534148,-0.02831260035758633,9.84955693836405,0.0087197456877103,-0.004557285309307737,-0.010040001829798962,5.67
0.09383626597781583,0.05061482391540931,9.903402073531137,-0.00331132863936085,0.004190163529009879,-0.010216290044062708,5.68
0.11907916179861076,0.004696187786427068,9.776774476243856,0.0013685741601867957,-0.005452679535065892,-0.0036450970192734478,5.69
-0.033227479318059264,0.007171656926944496,9.775604831622102,-0.018043457400673615,-0.0012683041452163527,-0.003094679269321589,5.7
-0.2197638316478141,0.027840800386921286,9.792297007203144,-0.0009685281204640985,-0.009389869870924971,-0.0029158804181136483,5.71
0.0075993412783287514,0.05364532948722981,9.851043844308048,-0.02053602474002141,0.011417906613811786,-0.004726930324814421,5.72
-0.018370325700591644,0.12552168191193444,9.792738449725286,-0.006377274986171795,0.02213840574217037,-0.00260241604620395,5.73
0.04206112538943086,0.22316535290951567,9.842296694375825,-0.011718322124319294,0.005752519336773592,0.009213192770654896,5.74
-0.16578136327874124,-0.05217546942494531,9.851329034508105,-0.0008899493498676808,-0.013022999465422258,-0.0030090478508248827,5.75
-0.0526395985594644,0.03680118920272662,9.75633588701997,-0.0037551542541710945,0.0071223025667324314,-0.015404692318720284,5.76
-0.057268709032964576,0.011667139206488245,9.692593861693721,0.004852786808350103,-0.007896740247573064,-0.012481716443882074,5.7700000000000005
0.127837892157298,-0.2232857677592433,9.643973768891037,0.004400853457465726,0.005008198280514883,-0.002085744390453945,5.78
0.2268321397974273,-0.04276253864914734,9.80877028500035,-0.009649722889109124,0.009509658330094647,-0.004913629199738529,5.79
0.05867347296294037,0.18987569673611537,9.781872919858845,0.0040909330121312445,-0.025001298206602556,0.002348878330582404,5.8
0.036817264708547334,-0.01859364653910654,9.679868948465858,0.0008109437048904247,-0.006567354435671905,0.009586760168504639,5.8100000000000005
0.02375610591063448,0.024942597846151677,9.973487542056708,-0.012147117619938575,0.024234370268171206,-0.009969224648744264,5.82
0.14846627134256787,-0.13831408705334292,9.743377301615212,-0.003581353581707568,0.006218502917746609,0.0009081898719415188,5.83
-0.18347590221571108,-0.14279265000509175,10.049464562702816,0.003136313778648217,0.007274808137518098,0.004114029608204496,5.84
0.21185962784170367,0.03979822958773225,9.730972120721955,-0.009115882353686055,-0.002854368824724132,0.014463880200896725,5.8500000000000005
-0.0791082835824112,0.06915205054134921,9.657663635775167,-0.0008168175961762125,0.012193296861144802,0.018251398477847125,5.86
-0.10114195240176208,-0.009224122488675981,9.785516421945736,0.007829899416269732,0.0090260847004273,-0.00030718098033001806,5.87
0.06036891353938584,0.04723482106157242,9.707653442465377,0.012747422662324565,-0.0023436444379573507,0.0039820614389879105,5.88
-0.021561093779759972,0.2124786997709515,9.766345646898001,-0.010014021505046438,-0.011145944590004222,0.003157534558360897,5.89
0.00985761940221054,0.03675968981963353,9.906068845747185,-0.007917085555712619,-0.01534030240776878,0.0025638451723748474,5.9
-0.023002169787033535,0.08047979642769154,9.708879291052012,-0.009744975654942105,-0.00644826040259381,0.023432518145725504,5.91
-0.04651058107797506,0.01870617191310955,9.603485449180377,0.002820940202760949,-0.00869004655514221,-0.003502708218757757,5.92
-0.03254757171638809,-0.04427535013207888,9.8762586519119,-0.007461880447847743,-0.006668108711047488,0.00641329584185885,5.93
0.09818090874345088,0.02649323035220364,9.806994271794283,0.007621222202207384,-0.006904291879294223,-0.008230769170792206,5.94
-0.036515575279873806,0.07709217715751378,9.885484947749093,-0.0036121794014499636,0.007982660810051037,0.0020025831559869435,5.95
-0.040021787237874,-0.11414582870747676,9.739124433994728,0.02115370142817268,-0.0015322071058664472,0.011604802060576179,5.96
-0.13088658670633377,0.1281380489043806,9.840715382631874,-0.00788271272111407,0.005786808427905058,-0.010681476429523986,5.97
-0.0006132876103829817,0.03325244301538712,9.956000242587518,-0.006598254163917631,0.00853608779950809,0.004566822676047003,5.98
-0.026376171367106734,0.1750445293243598,9.649690656893243,0.005430822326812675,-0.004554294241496713,-0.003062248347736401,5.99
0.01728922839331502,-0.181690847536143,9.790420032365596,0.001804088573315203,-0.016896996100095596,0.00548159221206688,6.0
0.04582610541819945,0.0842367352540885,9.879567931135353,-0.009560250699461556,0.003737335830729283,-0.013121795808946707,6.01
0.08423742796810696,-0.06471281674762062,9.813070669568578,-0.00970055510626025,-0.02332465635285496,-0.0013428815624051424,6.0200000000000005
-0.02638704377921032,-0.03798342956610272,9.881543535934826,0.0049270734767669485,-0.011442441106580962,0.007125699693915014,6.03
-0.011182912053355127,-0.08730550208259318,9.607258516232907,0.0027141015974414024,-0.006141662195591242,-0.01536438095608012,6.04
0.06724205867858594,0.04288582691388329,9.92229988821496,0.0013976039334671598,-0.010743358021914904,-0.007914142155061279,6.05
-0.21623904848898132,0.021412413800096435,9.72909912176615,0.001444086394791296,0.008510777520889195,-0.0009652709521103962,6.0600000000000005
0.06795559456470471,-0.05762938179623777,9.913539174661656,-0.0031387640723235036,0.003972297228729444,-0.0024703748428148422,6.07
-0.06816998203377721,0.1436066035865646,9.91242917535695,-0.0017723996444921394,0.018250964206138687,-0.0054751288007545895,6.08
-0.09039272098499257,0.07784149282244945,9.859970300042638,-0.009362637403528756,-0.0009331304706206908,0.006195103170208916,6.09
0.006278422783606988,0.20245388628576766,9.794693992972313,0.015074126477951132,0.0021205150166697783,0.005882922913296402,6.1000000000000005
0.09330478329915909,0.06496977055110553,9.937421854886065,0.009151347735639536,-0.009522284923360666,-0.002655371740492087,6.11
-0.01609843429095896,-0.10692034360268413,9.850257578269442,0.010597098282600031,0.0003894800610492907,0.0031009315210781168,6.12
0.05714816160120826,-0.0770480237798188,9.761845032339272,-0.009846863845754516,0.01418159117607367,-0.010084626573295745,6.13
0.08875788357820237,0.20756898384127226,9.71992992258857,0.0010036116416138386,0.00022809825087932495,0.021273220061899325,6.140000000000001
0.10558536374835235,0.19084233525180364,9.81993258857922,0.005584842050381641,0.001073127185782034,0.008209941104430959,6.15
-0.14111790333691557,0.0002951026905996972,9.809158969987099,-0.000718107346729542,-0.009133190193116822,-0.01042553552500029,6.16
0.002011577623297101,-0.08225700045449988,9.885753620188712,-0.0060620540070413335,-0.005848709498036101,-0.0029663665264607736,6.17
0.04345378644892625,0.0009131583250215412,9.871808512427618,-0.0020956223193660363,0.010063692123418119,-0.002848842473326745,6.18
-0.040743993724391775,-0.031612056958205625,9.892803131928305,0.0013766218088941166,-0.006559385807679752,0.011195442752525087,6.19
0.014195014330113501,0.03493898806260959,9.81074422975031,-0.0032948220050211495,-0.003942177721382562,-0.018999442630505715,6.2
0.015699323813391734,-0.14665420287923822,9.807015194204384,-0.0047123077933596946,-0.005737965506906929,-0.003939031400453405,6.21
-0.10296155875450011,0.06854053470352216,9.551587057915595,0.01723919091772624,-0.002438634887098267,-8.128594260343013e-05,6.22
-0.03205171736969311,0.02278348084963524,9.757133132743807,-0.002214964578576085,-0.010202385683412654,-0.0030993679804667664,6.23
0.009361538951020171,-0.058656794462481204,9.897124824108937,0.0075259997573106354,-0.0004008547986577564,0.011503797340299937,6.24
0.050998805272405884,-0.06080351310709681,9.691023272340507,-0.00042434609517971896,0.017464017249224355,-0.01283692566768458,6.25
0.06867615747591747,-0.11905657991954494,9.876441429505341,-0.0019333863153469983,0.002640860480725288,-0.011189058260287953,6.26
0.1838678444997629,0.0053570232062630264,9.80074209979836,0.011141834877071252,0.019261394577200452,0.01524716050869426,6.2700000000000005
0.046839941801674015,0.07029067457420453,9.728803464907083,0.009945507291978777,0.017218926556550895,-0.014946943673436843,6.28
0.03192542278569161,0.004575917351503246,9.718100619199944,0.009006844480904826,-0.005903554944226,0.00199892678069323,6.29
-0.1138431959366947,0.09807078418367632,9.868514371171806,-0.007499062714683447,0.0013194988064639992,0.0005893292067507318,6.3
0.0886636220484706,-0.01929656084552272,9.827342111820444,0.00667482868466646,-0.006190242805525714,0.009853944591597394,6.3100000000000005
0.22278264113731808,-0.012932858717595414,9.799938389601625,-0.013488190073460858,0.007378682511834989,0.014332728643510402,6.32
0.09872733434709963,-0.1094631959434498,9.740343696851912,0.004549757917934014,-0.02551918842797396,-0.005263340669050859,6.33
0.14362138641103356,-0.09664501128404751,9.854380375727665,-0.01693097131926713,0.005418259220239497,0.011459291341317257,6.34
-0.008250901465743261,0.22508780188906508,9.726307478949005,0.006947571910410846,0.007576692257651284,-0.004468731459561219,6.3500000000000005
0.003760921594572314,0.049876274100720236,9.81854562109964,0.0015270590808147116,-0.0025628940937078583,0.004538260808680224,6.36
-0.16771425452591943,-0.05038815651109279,9.774216757951507,0.02090661906293074,-0.009491069344501392,-0.007568900867288497,6.37
-0.17577939991261657,0.1276214678578089,9.89459978095637,0.011917837602506854,-0.003152835953632617,0.016305880189994598,6.38
-0.08753184079439674,-0.1661211358640069,9.910690133034606,-0.009922598543567276,0.011193012575025673,0.005578961127643762,6.390000000000001
-0.07006590648875388,-0.04839880510315554,9.875002756172044,0.00813884694062761,0.00770912016717571,-0.016624193588011177,6.4
0.11223176988969936,0.07311709546341165,9.912799476803455,0.009657422392181501,0.013399716028924952,-0.005883801692525987,6.41
0.05387732719488234,-0.006554950886821501,9.613845106920914,0.0018128114576985667,-0.008505822771529219,-0.011589252075596577,6.42
-0.026191992239367124,-0.26528047558285056,9.834601947598095,-0.007672237738475751,0.005550764682900576,0.0015940207568841073,6.43
-0.03215725472454922,-0.015359546195425088,9.854527617376394,-0.00407081402361941,-0.004128716393136955,0.00679532944428498,6.44
0.09555625020402159,0.11623718435394717,9.927803593490545,-0.005339649657251333,0.002012045027594727,-0.0027081227287789784,6.45
0.072760968806509,-0.03130179068176669,9.703290080250124,-0.002906834413847154,-0.0028874682909974607,-0.002676310860554519,6.46
0.009233614030554775,0.004866228804001553,9.814401456607818,0.0009452215618624028,0.025379316814093993,0.01735284766351809,6.47
0.046066182229332814,0.1482707046611767,9.759651285541036,0.001028558864117357,0.012837849401108216,0.009418912858038312,6.48
-0.13561524625933966,0.005756589590995977,9.922397901366107,-0.014728128605424507,0.00590029142516036,0.007118505567851333,6.49
0.12259549733336339,-0.09986938324416034,9.943832971276173,-0.0180989190620179,-0.008148580470385912,0.0002271008529868597,6.5
0.11036743051590053,0.10353863769381107,9.743592980564484,0.005012071352498813,0.0012343165988957779,0.01974833040498989,6.51
-0.00013234131525259287,-0.0312721332780571,9.838927632316285,0.0019280916939227477,-0.0029963191658484473,0.005765477103596011,6.5200000000000005
0.028954308603135883,0.13130470329344707,9.848197889977026,-0.0012591487825621092,-0.010670341297133156,0.004363880139651752,6.53
-0.09022882445101305,-0.17778975522096457,9.863241387736911,-0.01274105619802513,-0.020338946001572232,-0.009626260804907567,6.54
0.0858754190449968,-0.018386932185063803,9.642069427196109,0.008568383521417863,-0.0029865976224805954,-0.0099052682318203,6.55
-0.05582034527887189,-0.053412120194719165,9.81423783998941,0.012816737572717982,-0.00999362043024896,0.009339619128584083,6.5600000000000005
-0.0527861478467684,-0.114511233610167,9.710529558712707,0.010163743096265186,-0.014370640703579142,0.014237717163194564,6.57
-0.0017520221602290355,0.13618982804648835,9.972324672418674,0.005206210332094887,-0.004624836519869404,0.009106282640045628,6.58
-0.046588714060817944,-0.1948902341454413,9.699583135080708,-0.0026983571289310366,-0.022660720341905537,2.2541764948941168e-05,6.59
0.04438025418975421,-0.08156702459129474,9.788370794525822,-0.01272469077502325,0.0042272194772961505,0.0029004536118392267,6.6000000000000005
0.13698545082526917,0.1209540036635411,9.81910015990477,-0.007574156821528965,0.00837847006358789,0.014834316610959313,6.61
-0.001368080933511574,-0.03796137370910357,9.729209192051407,0.01262162325796919,0.005268116675611188,0.0008525608461827421,6.62
0.11901183569244062,0.07761445844435129,9.59465532642289,-0.006802198901772618,0.006309469621881376,-0.01339714198537641,6.63
0.04489924133174165,-0.062419932519137966,9.804569427740903,0.00433547494389776,0.007709992133213103,-0.0016060028399640428,6.640000000000001
0.09548649785666165,0.0041725603933022845,9.848485742426671,0.019351059855307697,-0.01084601016883831,0.004993866399843089,6.65
0.05355989160049706,0.06005611311096311,9.869221425696013,0.004156101565873662,-0.025628908499875175,-0.01335745488578913,6.66
0.11922689273036652,-0.06640814604454584,9.684919417065013,-3.491938295893853e-05,-0.003301256624656089,-0.01815800142465968,6.67
0.11530354796121929,0.0678817361576217,9.920755637125144,0.003248944003395033,-0.0184162145790079,-0.015762722411510697,6.68
0.03928155995306102,0.004276680826857623,9.819789790254518,-0.00640731220090922,-0.009887123586297375,-0.012140892807072146,6.69
-0.11099858757188555,-0.26247827279039593,9.840014411802606,-0.0066734160411794875,-0.014144032813513206,-0.00038631555813479183,6.7
0.021266719791714593,-0.02168762922664364,9.93232758125234,-0.007436943168779006,0.012643034973392545,-0.011605274185865653,6.71
0.00925061133125496,0.02048383615947137,9.858474560821527,-0.0038166242870899614,-0.018781398010242107,-0.006751633619191276,6.72
0.002531431977909326,-0.07953003819837268,9.728501395548726,-0.004751970557070333,-0.011350438779752139,-0.0001906823778760464,6.73
-0.030635671232126006,-0.07391645142856473,9.777619396191207,-0.003489759031919849,-0.011428944270585441,-0.0001584889525321763,6.74
-0.02228016943209966,0.04608062546455338,9.794186404056667,-0.005637727204900819,-0.0018285686366622184,0.004292623189356152,6.75
0.019950150672640277,-0.023774764276357982,9.69936600306089,-0.00446923751915298,0.01153958502272452,-0.005123201902841696,6.76
0.12452235832685324,-0.042835053492570906,10.005647709992179,-0.0016874809774429364,0.002159228184869123,0.0026620033032700163,6.7700000000000005
0.0183800989666829,-0.006584164118506196,9.951137131573695,0.023421445149452658,0.0019545814369428664,0.0073329305582970185,6.78
-0.0014246235988688099,0.051284306442212206,9.94190533222002,0.00966984680331746,-0.010243212609636645,-0.002058551780071643,6.79
0.03306711949806949,-0.061373286622448855,9.81906830089396,-0.0011336916078207523,-0.0005714196144047784,-0.011780823248603798,6.8
0.13514263474850566,0.1747058122666898,9.855900488409228,0.009422572920729434,-0.0020974174367773516,-0.004841159665545415,6.8100000000000005
0.07820167829009345,0.02832538005109659,9.82774995940845,-0.0124065687086868,-0.01502197369805434,-0.003686666736617601,6.82
-0.1511587243734317,0.09931574926539379,10.066614056438262,0.01321945737968995,-0.009998937544221055,0.0017426219361469898,6.83
0.12808239309057579,-0.0010903346379446876,9.865546272999746,-0.025296244561278658,-0.010709823611969402,-0.0064089512510451495,6.84
-0.026009464456680405,0.032690886589831485,9.794597570449552,-0.0022412901375055117,0.009961440609990834,0.00460717490790546,6.8500000000000005
-0.06666249168389088,0.06591234170410487,9.716399508568692,0.0017601269086773362,-0.013532949287121518,-0.001148076186231607,6.86
-0.09316117952491136,-0.019464190776163983,9.746997811428827,0.008221535803125683,0.013568222983767926,-0.005240064174646849,6.87
0.08479922213997591,-0.030073643764428143,9.98747902779247,-0.00016084731941215117,-0.00614087098351299,-0.0005578755249133572,6.88
0.031524874984308275,-0.035756695386067495,9.63099217782534,0.00010235600717178653,-0.005032359583420493,0.011935252902597933,6.890000000000001
-0.06908219577566393,-0.08189282174456074,9.77727559004748,0.00106230672223245,-0.015065158251870046,-0.00557607987500508,6.9
0.10548642891911582,-0.18774225036765826,9.762883357706997,-0.012492083991574473,0.00714934965074331,-0.0014634460392169634,6.91
-0.008395536409557322,-0.16983359160211614,9.81729948552387,0.010863492974628018,0.011561836689541504,0.010396157165766633,6.92
0.08494804032856249,-0.05676303750152731,9.95167703199353,0.013921263145366689,0.011323161828271797,-0.015460203200955841,6.93
0.08998818345483219,-0.05899913646328724,9.811151909869606,0.020300635624065477,0.0027194042008846443,-0.013632610668140343,6.94
0.07907226805416612,0.1053446795073205,9.663789690535792,-0.00031997689637873743,0.013183140009969762,-0.021879231461241894,6.95
0.04648951459895974,-0.020923533224239302,9.747174162576563,0.012743262664302257,-0.005778734605631654,-0.0039149473887455325,6.96
0.015799723100389927,-0.03339502118953414,9.943363031232678,0.010106542945876412,-0.00555980201834672,0.013449273335438296,6.97
0.001697267124075527,-0.08957999460622962,9.715389939844156,-0.0037677010950025987,0.01487877169721378,0.006432830263934736,6.98
-0.017588980523130734,0.07599186167350502,9.71725119544479,-0.006561036777093147,0.0061133741042500725,0.0021119156832794038,6.99
0.025471007076360463,-0.017506881377009755,9.806104245600643,0.006270555816879677,0.0017477697373037915,0.0025827026817807465,7.0
-0.06882472086771975,0.013586984820691367,9.728032775590714,0.004610724384977748,0.00826090086697387,0.010854910611887272,7.01
-0.07757105500286972,-0.14743271971879793,9.752289510970423,0.005297157079010627,-0.0068650910579947134,-0.004447838671883932,7.0200000000000005
0.17292258639387664,-0.04141534129965316,9.782742671283986,0.012559394613490538,0.02059389590706463,-0.008983046836215156,7.03
0.014291107013255856,0.039984598049794026,9.849168502267487,0.01056606394304325,0.005263930615312436,0.0026763003243163554,7.04
0.016431778820192765,-0.026858496142245676,9.771006394474787,-0.006523090235749517,-0.015106052844958228,-0.007980045389924579,7.05
-0.034732268898132294,-0.03945338746356292,9.898438983598322,0.028454679333218512,-0.01145234243217659,-0.00432162023844138,7.0600000000000005
-0.019860105184459447,-0.11527850254584866,9.809255045229593,0.022530484043666116,-0.0076660884510534886,-0.008837997533054648,7.07
0.00957549789948897,-0.02209273582418685,9.829812492681087,-0.0010763747929278108,-0.004942613731830151,-0.003449387560321944,7.08
-0.09767945871713925,0.05392234521937847,9.762316514894973,-0.003995956258144363,0.013311430743836361,0.014530640904001184,7.09
0.18009338339685127,0.130296889127933,9.80838610453647,-0.01004282630088912,0.018050447435688427,0.0008668036397843815,7.1000000000000005
0.075053277169938,-0.04093040942622786,9.706977165721828,0.007364426721551933,0.0009434506232688019,-0.004584025952058021,7.11
0.07163555365617345,-0.04836228040261103,9.823609760909754,0.00899221778497761,-0.0053888252525360345,0.008719906494060748,7.12
-0.10470291840746265,0.09634887388453306,9.774166904864122,-0.009726810847025359,-0.003920449998615367,-0.008192030755623539,7.13
-0.09093948966853277,-0.140927213818817,9.942032311828354,0.0008793066478084259,0.0038375736768020588,0.005862774982672324,7.140000000000001
-0.025801246279734513,-0.1465409468933648,9.842152971339988,-0.012008543243050262,-0.006479870939013491,2.2757165953117502e-05,7.15
0.09756945068032795,-0.03531810868280435,9.753750760134317,-0.012194992778659963,-0.003453205711284956,-0.012224965484866197,7.16
0.11633587474332732,-0.005596226891200281,9.927307495218283,-0.010981000389596632,-0.008936867627559774,0.010198877768822083,7.17
-0.021480079265013045,-0.04036802509891797,9.887462023974221,0.02342197187375719,-0.0006597850031673566,-0.008588127052297384,7.18
-0.10828574035248316,0.04629712976517789,9.956531103841012,0.011349008724012575,-0.005199018098632933,-0.014234213364656781,7.19
-0.14114777972756723,-0.042771906801616404,9.844859133293811,-0.005526759750180611,-0.017763116341221036,0.0016954685606459896,7.2
-0.03488495343003809,-0.06827207466750129,9.604411705656675,0.0029463285522310333,-0.006765023584412786,-0.001553451449944784,7.21
-0.19350197251472337,0.06441003523761367,9.693423522636657,0.0062911920833650745,-0.009074995108162221,0.005190032983472328,7.22
0.02505529019993198,-0.07553283436808822,10.041947358477824,0.009160611376716057,-0.01277065423460471,-0.0025163089576562955,7.23
-0.14775793190987324,0.16430517548505472,9.794105514673452,0.0009940486626878176,0.0016820413061790732,-0.004447469737960707,7.24
0.11509172741247164,-0.1095975225986329,9.899113362516596,0.0026184214699813504,-0.0041271212458286,0.0025933120067465243,7.25
-0.010273338507984972,-0.24885876878590907,9.78432530203717,0.010681086612596395,-0.01245755773860642,-0.005482118786403176,7.26
-0.022070624154946785,0.1250024100335449,9.642582166562331,-0.0071751059116113396,0.00939015214866176,-0.006846842552013638,7.2700000000000005
0.07650914822369716,0.11487275707839242,9.563857769259236,0.008780450637278683,-0.004509703066092475,0.0038820788706982875,7.28
0.007374217064870368,0.014117337239879164,9.736869530608647,-0.006963429270311686,-0.0012844232347048,-0.007329688029683661,7.29
0.11583180702681128,0.07151436285635841,9.668865873087485,0.01186377168068879,-0.0015155584376336942,0.020809624963764536,7.3
0.09745292798754235,0.038488935340859544,9.715385831409405,-0.005617845881895623,0.0038947173838646794,-0.014781290909120465,7.3100000000000005
0.02635016086038668,-0.31414206852742815,9.873391199336078,-0.012619832970805676,0.007248767407973759,-0.01546779414377329,7.32
-0.042575155533387664,0.1345682815442902,9.76904189003175,0.0018854828083103964,-0.0211922098687547,0.013012599495035377,7.33
0.044094382811544035,-0.1950688370558436,10.02306968819987,0.00046218308784572117,0.005605786851916123,-0.008507719855347819,7.34
-0.05539395705136684,0.024380649040613475,9.88424954455726,0.0023548125527144905,-0.0007968963273492024,-0.016713440969668484,7.3500000000000005
0.019715831502783783,0.11236679628467042,9.85487819373826,0.0057848605240886485,0.007622552338929592,-0.010692719593134397,7.36
0.04680222373209171,-0.04829420746933576,9.8661316082092,0.007001134440773774,0.0026741430783396277,-0.01259651785857271,7.37
-0.02978706842700642,0.07790897483637972,9.902596788354213,-0.009191774435376122,0.00043244190937044466,0.028272827639027248,7.38
0.02917991365108128,-0.11665086507560252,9.873159865597804,0.009361586165063532,0.0037237351210887186,-0.011181197863573595,7.390000000000001
0.046654297128887946,0.0950295710884834,9.747104234674635,-0.011424780557011021,0.0017392104293697459,0.025069325136283564,7.4
-0.08447988400655038,-0.005915106911714141,9.825480415763538,0.006963895780894698,-0.005087375167912941,-0.018188540916270174,7.41
-0.01343743552714154,0.031894828178471335,9.756840203063346,-0.0015415599125492196,-0.01299567447431889,0.003314067210330915,7.42
-0.03284264102124341,0.19390502281723732,9.694989287621611,0.0008330021805927732,-0.02246752087632137,0.0048666749297955995,7.43
0.09051960063709868,-0.061210424954922384,9.82955940750566,0.001931946828492024,-0.019568998545006926,-0.013054176553331591,7.44
-0.12315426984054437,0.08119272455618959,9.787361996439525,-0.0011078106455584766,0.0009905047495950478,0.012025408967703561,7.45
-0.008219363468440315,0.0915968536874436,9.736680181652867,-0.007299632507605966,0.007781465100933127,-0.012816473197816767,7.46
0.195435597523259,0.18468025484376704,9.849389537416986,-0.013740810035265439,-0.0007835722566319541,0.012144293527631432,7.47
-0.0933959256351728,-0.11610982040117182,9.856440776321831,0.0014293910308890029,-0.0019044605257753666,-0.004530173267186966,7.48
-0.09510752652972629,0.18684108600061047,9.866056711430991,-0.00025495426894745415,-0.006380158698483143,-0.0032929637813518433,7.49
0.17234716164644234,-0.03460112686751877,9.909368104372797,-0.01378880566542918,-0.0078694723187344,-0.02792122912359331,7.5
0.14519280692565098,0.012406302281150819,9.896690859348672,-0.006082192722152994,0.010541205160073251,-0.0023575990873084323,7.51
0.08216105334355306,0.10550349416432594,9.703294178313518,-0.007691590660922104,0.009297626964836143,0.00493437367389292,7.5200000000000005
0.2284563910091164,-0.005361762622789188,9.870189951322304,-0.0034506395271695785,0.006847715056289375,0.0045198163952766815,7.53
-0.030186251777485386,-0.04681022030264105,9.825299202187244,0.007947131953362737,0.0030165635876257665,-0.0018689580370807697,7.54
-0.07826981382339669,-0.07558513453787911,9.810669918203416,0.0002868542409224242,0.00029459734980159964,0.0032312188659844063,7.55
-0.02885235419127958,-0.06777354472987072,9.691864260155798,0.00444251293734852,0.00689967188200485,-0.0018208246685063462,7.5600000000000005
-0.002743612397516351,0.029549105934776655,9.74348436509848,-0.011132570971835875,0.010210010315740366,0.002985463590068454,7.57
-0.012379779243350363,0.06000641290793344,10.013137563302545,0.00195715592758641,-0.007117311128231623,-0.007487109872436485,7.58
-0.013421885214563981,-0.0921575405837557,9.854507081693924,0.01069487211663534,-0.005492079994811227,0.015603170238771048,7.59
-0.11278767647578321,0.12523455480157292,9.713537775224468,0.010064043359934056,-0.008272087626321272,-0.007979014711155077,7.6000000000000005
0.018378722265857343,-0.03798397268579488,9.997506887038966,-0.005579728124464888,-0.0016668033463724263,-0.007330120932099789,7.61
-0.17698442633819153,-0.012290569180253938,9.732553973733614,-0.014294932160218153,0.0024780252348345546,0.016669086348980577,7.62
-0.004368394603588784,-0.02580977833640659,9.943241827818186,-0.013017303778924792,-0.00842459140462034,-0.0007906938984043265,7.63
-0.09531092664648506,-0.10293936775181962,9.710856562115419,0.008467139321434785,-0.011155484580146471,0.005133223376194364,7.640000000000001
0.1531161285391818,-0.21743867931737523,10.159506305265039,0.007476698470287887,0.0065935792327371226,-0.006655445084511989,7.65
0.12652991907201347,0.17352018786910373,9.79667843773614,-0.006101277393108457,-0.009390878220505336,-0.006312562898103573,7.66
0.12992981214375052,-0.11178570619426494,9.852114734600992,-0.002016656487405712,-0.011257774414360561,-0.011396589988590042,7.67
0.027227839396404132,0.011927622670411727,9.765089203086662,0.001126553931771279,-0.0060266559402827645,-0.011157476735839944,7.68
-0.06590187005904105,0.20958672814359247,9.728434097375239,0.01524116636773672,-0.009305935568815983,-0.015505053157103479,7.69
0.020191996477245608,0.1852965957250468,9.882836445553554,-0.006408767295767833,0.01689670897573457,0.007586918102209029,7.7
-0.252920025415537,0.07304111876177528,9.938949599363221,0.001989496574159806,-0.016171408036215223,-0.0014827987002519155,7.71
0.021303855734106487,0.14411198638472822,9.551991501563382,0.004540280937489447,0.008484736256032212,0.01455341895731239,7.72
0.01577377111165911,0.01669094307647519,9.916126153700901,-0.02135147893925607,0.0014866769460690089,-0.0023329487056242444,7.73
-0.0889791988136221,-0.04452676072898359,9.819371789228061,-0.009345250203333473,0.007729628142626326,0.019244232911915002,7.74
0.143824897739476,-0.0801357619496954,9.934885619654835,0.003375604483621924,-0.01614469762142769,0.011690096391482201,7.75
-0.06529069815014153,-0.06951800559324404,9.886671908369193,0.0019098786240512398,0.025013190625808392,0.0019452502706504575,7.76
-0.05478870956720207,0.009503989811226752,9.611593020390238,0.015400003260666118,0.012431301363593938,-0.00016739901073696697,7.7700000000000005
-0.08181560138975952,-0.05247659823783423,9.830290493205101,0.0011566276005400085,0.0020703163524016686,-0.011382624452481178,7.78
0.02958085476503385,-0.02406389221684679,9.891756174619678,0.006540048846770601,0.03242317544935371,0.00778450366450429,7.79
0.12878945389440896,0.0147572035389234,9.77162314947085,-0.011482207355089367,0.009498304490762001,0.00591708115574756,7.8
0.15657977044875593,-0.08140672591239123,9.79541147040849,-0.0026170135244640035,0.01360797381750521,0.0284885843662703,7.8100000000000005
0.08399421855086787,0.10902390234360965,9.898330784803678,0.00762345880237835,0.000489602391836847,-0.0033360993953745295,7.82
-0.0010884807500942866,0.007969671445189707,9.752658352374247,0.0021316671731581812,-0.016376002516942833,-0.017471949276282657,7.83
-0.12595038701966807,0.04367166940748075,9.736752103694254,-0.014728694580532591,-0.019597624895767118,0.007945555873194034,7.84
-0.0363312833942166,-0.17610135298617738,9.899086537282011,0.02580871949483543,-0.0012204403955787546,0.003761589102551988,7.8500000000000005
-0.032037959254094674,-0.10848583493463129,9.865784306292419,0.003297712934683797,-0.014798467244547116,-0.007642569223595304,7.86
0.03759758491746741,0.035790683719163385,9.866117543771571,-0.0164433676280244,-0.004803918762151472,0.006767577402693455,7.87
0.11069855845605346,0.13913578041659713,9.672624353884425,-0.0076815967365082075,0.005533206688566978,-0.013292068265643645,7.88
0.1166199029227813,0.07592824242806656,9.82759041402601,0.017200716723870503,-0.002928220950314512,-0.006646900582127855,7.890000000000001
-0.10966709995859683,0.020148147392309735,9.837563151286753,-0.016716991443342703,-0.014380268570204848,-0.003124784396084349,7.9
-0.11078174748734804,0.0022549188935324063,9.752118908387146,0.0007141789512426276,0.007870865095294065,-0.005321680726221578,7.91
0.0756090571137712,0.2057990529973894,9.789912446693416,-0.012199461237653069,-0.004733196938800561,-0.012460391846467554,7.92
-0.06906161239390857,0.029647736413338045,9.891197519318276,-0.008438364064796625,-0.01813934776302414,-0.003585889037108702,7.930000000000001
-0.008614165229066474,0.05006717267958166,9.850975552400783,-0.006927355352604534,7.712626782273706e-05,0.005245466706608871,7.94
-0.06608919486609464,0.013453303079728005,9.746603358987562,-0.001241566310776505,0.007147996246575662,-0.012601233239055437,7.95
0.05387877613319846,0.011073904022717677,9.940080746876387,0.001669135829092882,0.008415135517757992,0.011163157543312978,7.96
-0.032856600452993885,0.007768885140961675,9.791746434362317,0.0036912518708756116,0.0017657890197586925,0.012229686650600688,7.97
-0.0017838148682864541,-0.044779400490450344,9.749677283917523,-0.012436670792918686,0.0011488506267146972,0.007994693297940786,7.98
0.13610292790472417,0.21963319193601621,9.705296039490742,-0.005955623771360573,0.007941319418166148,0.0017497344536298361,7.99
-0.12121358436401915,-0.07985810158869007,9.748455245841342,0.0035960397916697862,-0.0017032464125558576,-0.0036510732007599845,8.0
0.0173642097796928,-0.07982176733382013,9.923582056379058,0.01644445329395151,0.004387751496389334,-0.01132149605048276,8.01
0.019042531064425466,-0.12057668446081866,9.735181775880228,-0.0005444564193772706,0.02308349615229558,-0.011389969168791573,8.02
0.13424939841112166,-0.19893728096279728,9.843365340464794,0.011592567114653216,-0.0026338120074519285,0.013367387362748655,8.03
0.012202532380268008,0.006154043392272078,9.837418382602161,-0.005726206576061423,-0.012502697488570502,0.009658262897374774,8.040000000000001
-0.08146881185440175,-0.11587063169959895,9.717424243612783,0.0053669828968476345,0.015584647508449298,0.0016825668086609808,8.05
0.13372159097860153,-0.14961121178620493,9.91394467059546,-0.0022454522717127953,-0.007735266430944585,0.004208152030511017,8.06
-0.05497422411079154,-0.07688234233492727,9.808014099727751,-0.004864509646631629,0.004681898524277155,-0.003042619372659907,8.07
0.15625655095678226,0.06387484568282413,9.906408630047553,-0.002558617307269772,-0.019361930888108888,0.00906443708638441,8.08
-0.06457399080085113,-0.04130724668095219,9.769838922407475,-3.570059767715848e-05,-0.0031646806287696423,0.0033800489395937527,8.09
0.1396472454265361,0.18383518777637925,9.805659875138966,-0.018151557516338793,-0.00989182575022319,-0.0015922172377888428,8.1
0.23431116058295465,0.03320421287701392,9.800906889169172,0.0025923382372781646,0.00792833051590791,0.009582723230909586,8.11
0.1565788909953397,0.1409640078529798,9.779062145081578,-0.002229204560841166,0.0024564313462450797,-0.020862142992924517,8.120000000000001
0.009529034285893807,0.10912290790204089,9.924124550530825,-0.00035038855327098966,-0.004689629185577166,-0.006224913318206443,8.13
-0.08588839735013698,-0.05667164337247724,9.817015167435802,0.008553666737528998,0.0044589317596812885,0.007597880583246841,8.14
0.144255788310639,0.11005253811861081,9.870507632220338,0.010670093368296177,-0.021250903477931637,-0.01329688353883926,8.15
0.07495085782996926,-0.023362957722716036,9.915140661799853,0.006105328762586496,0.012264497386982032,-0.0008559806711171382,8.16
0.029415650372734983,0.1759586577254715,9.843876977323392,-0.006936667623508268,-0.0008703712427428528,-0.013708335791259622,8.17
-0.12987293085422966,-0.05862626422128117,9.941460444275583,0.0022565786528325497,-0.0004930773753901359,-0.002539692970303024,8.18
-0.14006476391929934,0.03672483454845298,9.865350948279248,-0.0029662890085582912,-0.008405426171722094,0.0068783083823531176,8.19
-0.02775310061103832,0.09301413357435398,9.930010843812042,-0.00963397109699518,0.003182940322217286,0.00941246674980191,8.2
-0.07452136325906857,-0.06535246949012942,9.719414829172266,-0.02772952540471675,-0.0041305402394459945,0.011188789481814522,8.21
0.01430065183502608,-0.0627535615621997,9.632679754643718,0.006803769423707382,0.009821146136507745,-0.012133034093942301,8.22
0.14550101173273933,-0.10066238724569797,9.782974978131891,-0.01889913181816017,0.002769349761322128,-0.002842388363426235,8.23
0.040515133141277575,0.09570077535183065,9.710802640368726,-0.008825190601100862,-0.014790629679235579,-0.01430942495799618,8.24
-0.03929978694752097,0.03069490568599538,9.988635033456061,0.005602002934032428,-0.012353503413980569,-0.0013696208708522844,8.25
0.2019329567034232,0.20363337905616957,9.814485998082414,-0.008284011212825147,0.013995108302459855,-0.005595096190281511,8.26
0.12367267446348061,-0.023373923176618336,9.871915065921039,0.005385004242897592,0.0058136423026639876,-0.01797442020834367,8.27
-0.11007245081161593,-0.03903945705387872,9.926818950582515,-0.002673821487158863,-0.009714228941291921,-0.0012659434051794111,8.28
-0.04474621736548118,-0.043662088373392006,9.907995020806432,-0.0050218490029879615,-0.0002723192835449858,-0.019660525891309524,8.290000000000001
0.03980656168638464,-0.10129736686148577,9.871738374762199,-0.0007992922502365939,0.014473370423257016,0.009036758020551539,8.3
0.16923227766551344,0.05298427163042283,9.804199284156292,-0.0014758032541955027,0.013897424380142215,0.006441574939277247,8.31
-0.04846806886417529,0.025292735764705355,9.825302171225317,0.017985059194861912,0.005682837164065547,-0.006454612269934849,8.32
-0.14471879118715023,0.004811763149210216,9.813619975414637,-0.021684635372827107,-0.00485863216107863,0.008006167256472697,8.33
-0.08498376453276796,-0.20269174829907974,9.82537840243473,-5.51864605237756e-07,0.0040635279915977865,-0.01805384936638382,8.34
-0.14963406753680802,0.004329033031447682,9.778456236167035,0.0077096709636549545,0.016785239764268003,0.0023181819233592787,8.35
0.056654484111807395,0.15736424015444395,9.800265090128326,0.018972051581019812,-0.016531885241205035,0.00999451614829006,8.36
-0.20862333065964958,-0.09380743631106984,9.791687602997147,-0.015009706029074064,0.009191819456516415,-0.0007852381233022683,8.370000000000001
0.050767612639925665,0.25676407552706404,9.947224774841697,-0.009181500866508582,0.01627124591255231,0.012858272174119034,8.38
0.12378505847986182,-0.07579976955130635,9.73866535389773,0.020932531375476522,-0.0063211935063512605,0.0016650471347297022,8.39
-0.04921837978396095,0.03567785464041214,9.71703957400873,0.010182530257018705,0.011401965198963686,0.0007244997007916926,8.4
0.02361722842953392,-0.08195761003901993,9.843077835138308,-0.004802185959699777,-0.004375584059972146,-0.009813935570799568,8.41
0.11418380781448947,0.14026426718110377,9.805776995920754,-0.004979342913586806,-0.00014761816258698426,0.01280409518410436,8.42
-0.053629971304645474,0.0770889872598025,10.071283098801107,-0.0011305955995152372,0.013185526350608719,0.003598223319768509,8.43
-0.2206972529417041,0.015293870039966887,9.72503205057154,-0.0071715754328637105,0.012580713167190612,-0.002419084852367261,8.44
-0.006054039776567965,-0.15257648642223476,9.870199634269468,0.009960411069197806,0.0031175988956640083,-0.0020458110681734996,8.45
0.02830343463423049,0.0633955000863957,9.717636148030724,0.016253472864344164,-0.008660906420840496,0.016555159550381834,8.46
-0.050503061286883755,-0.00905575667061175,9.848416541832918,-0.0005833432642462626,-0.0034619667608446563,0.0008958820157912805,8.47
-0.08617489945304577,0.014440358166133791,9.906540197389335,0.014839664472807677,0.0028564506270205158,-0.024584466269506357,8.48
-0.0033906660747643094,-0.08383689094458159,9.821104825827497,0.004382839697761137,0.00482280209083906,-0.018142894340580595,8.49
0.05139083683797883,-0.015232725626888413,9.701103104980593,0.013145078005813141,-0.0036312996323928717,-0.009134406988152485,8.5
-0.019340680832301213,0.04193774130842173,9.681156741339827,-0.012843522984779898,0.008757238930784145,0.004820875645020963,8.51
0.015086402134737512,-0.06893304468138278,9.850775060019364,-0.004074438493770165,-0.00406862645967564,0.015933028960796666,8.52
0.1940222478552476,-0.04586778242987334,9.677590944771,-0.005981014478754316,0.009152448564366245,0.002371536850895682,8.53
-0.08132794177266343,-0.038280338310323764,9.781510742692355,0.004777678821115327,-0.011313096614612144,0.018589235790738363,8.540000000000001
0.005845417852612078,0.11568201009149721,9.719460765361031,-0.0039858844067118485,-0.0076207925545385925,-0.0016564654108805132,8.55
-0.06503792196403647,0.039220942180304474,9.88138504503713,-0.014012184970904142,0.0056390319613416826,0.005947813949676144,8.56
-0.027265892540938252,-0.11836514818050288,9.78255019666242,-0.013136337648826752,-0.008194920224967149,-0.006017339937146912,8.57
0.07700921332848962,-0.13529417575112504,9.944334248392165,-0.001528971977495264,-0.012837827691049117,-0.0017032769047298974,8.58
0.023612458732159027,0.08477954198592465,9.896287407926254,0.0167880523531431,-0.00898144886671057,0.004453059564949547,8.59
-0.07994358967851986,-0.10192175246681677,9.673119145292338,-0.0035414571457007622,0.002900365428193279,0.00050284422099796,8.6
-0.17986214200357983,-0.03687670253366742,9.876622066439188,-0.008874621954421073,0.004357210278262549,-0.010191534304603282,8.61
0.02694879833859007,0.04085268546388183,9.885300884100637,0.0034608281140229213,-0.0019040181440725425,-0.00675444573389264,8.620000000000001
-0.06948115566023853,-0.030406614079317003,9.789329673401008,-0.01482325830902564,0.0011110867042900417,-0.004966924153964173,8.63
-0.06869270396724206,-0.061635931414341275,9.711521181084896,0.005494297142290253,-0.0003138439146966603,-0.00350354071888167,8.64
0.10490800869831132,0.10454155731407132,10.08550356063257,-0.007428691899147842,0.016112469841146088,-0.02779368373527266,8.65
-0.019461660668298953,0.1746532213493558,9.768783233670137,0.011981572176812703,-0.004582091751744741,0.007426894843752147,8.66
0.029665632756556138,-0.1289196445961915,9.647151282826005,-0.009328823826107713,0.0051105483881330694,-0.008488625248308694,8.67
0.1375406238122888,-0.10320118755132107,9.711273114888852,0.008990791235323958,0.0018165607332354594,-0.009516844809830272,8.68
-0.056853100712059505,-0.10659704679946497,9.853389040161815,0.0013591150400510267,-0.0049418953851695325,0.0052629545614283416,8.69
0.05807228235928452,-0.10351310804907043,9.80053714846746,-0.0159698228126868,0.0042673650585406476,0.018199640539129758,8.700000000000001
-0.03810980421796753,0.027924874757894652,9.797448348889166,-0.0026589854639797166,0.0020721507924118298,0.0022228069205179504,8.71
-0.04997529136104422,0.14864136966498206,9.848854237076818,0.000247228643747521,0.0070869018941206036,0.004048656262042511,8.72
0.14333927354616316,-0.11804426047622514,9.670422250209732,-0.0018613659254259891,0.0031671973084504475,-0.021566678901057578,8.73
0.0865306759365686,0.000841313100189373,9.826156692971725,-0.014288968703430167,-0.0011869695535146876,0.011538123062458943,8.74
0.15274681529532974,-0.13876833423020649,9.814453540445793,0.007079030938176015,-0.013337186886278505,-0.0014128656030356213,8.75
0.11893121912754807,0.0202794065298232,9.81562978782255,0.009960388541228925,0.004150238036702346,-0.009582901494102354,8.76
-0.07052262776955491,0.06865465242085736,9.963096717462623,-0.010028226039060997,-0.004757862971273663,0.011293952955704858,8.77
-0.07041998897178406,0.030135333965289546,9.81545489079971,0.0009517958575204412,0.0023681286624133717,-0.0009323222487538779,8.78
-0.08670571359619035,0.023198030277399095,9.721269568980736,0.0020557526560010925,-0.0069468644068156485,-0.003883240476991967,8.790000000000001
0.17357974121876935,-0.20302456439146344,9.836367753522696,0.0052998194690245595,-0.016415369691228008,0.017838685053842958,8.8
-0.009540147782270324,0.02761149152655444,9.77717078841733,0.0019953233119514263,-0.002454454417697969,0.0030726621786975484,8.81
-0.08161489969718118,-0.08613366858206707,9.873155193980422,-0.0071305054294234374,-0.005125700191445853,0.01390200828598873,8.82
-0.0628673109131167,0.04923619082031109,9.65873685523844,0.008187048524432493,8.648219585652093e-05,-0.002635864470086233,8.83
0.0985152226365627,-0.11298497197962767,9.974085309825302,-0.009079706034568017,0.0039560175305346735,0.009596263134927532,8.84
0.1122945252288462,0.015225166730748592,9.773476016598119,-0.0050208581939406235,0.003259366510225869,-0.0035657565273764197,8.85
-0.017190702825886486,-0.029340462252675188,9.825456625785415,-0.007284434161844259,-0.005606738720604957,0.004621382569587267,8.86
-0.012469047988590932,0.013332383122037795,10.098389100731893,-0.00023690550798449232,-0.013137368037831625,-0.005840935379400526,8.870000000000001
-0.10102389041714173,0.06034595114643076,9.846553035898154,-0.019549066007602096,0.017109934108940555,-0.00800272952204768,8.88
-0.2150801531774716,0.14919791121002535,9.749170440071483,-0.0011811606578864071,-0.0075165236257447535,-0.004672540024983022,8.89
-0.24240872608715605,-0.035406640272943816,9.766459532277054,0.005149935548096419,-0.013784675596286527,-0.0032403656874048165,8.9
-0.06672107312047457,-0.04369512159370895,9.720428129109317,0.0010713316016012467,0.005037100902292473,0.009795294357997556,8.91
0.08516866633770238,0.06523048645922004,9.778865890810643,0.007844385542718024,0.005779999566137792,-0.0042266805617047105,8.92
0.028666161023015307,0.025288750289037418,9.952788424005652,-0.008315183933411333,-0.0014366722534908513,-0.012454791856845704,8.93
0.020786407331428544,0.04060928735904331,9.715828293176958,0.006324490323502911,-0.01406586836058271,0.004160105550477155,8.94
0.002178315732815411,0.025880261194975912,9.87190564610605,0.006987774439715643,-0.021433033494407762,-0.018230490365014826,8.950000000000001
0.0036167506362289447,-0.015147813973413336,9.80469213605372,-0.01324781481515803,0.006858486242015557,-0.012369008746949,8.96
-0.15205854217349538,0.15154745799541858,9.80925067174832,0.005009282108452393,0.006423746222436167,0.004971699416184079,8.97
0.09330879390814141,-0.017937052915089055,9.877191195231699,0.004906023723125608,0.01185385733718842,0.0007212203456821513,8.98
0.059973902361081105,0.09329640001969267,9.940107056168092,-0.0031960028925068274,-0.0015325477637760465,0.008122369774824839,8.99
-0.12308427238549752,0.04485198560410527,9.766394740871636,-0.007621225310768277,-0.008947256305288167,0.023066445669791033,9.0
0.07372933387798479,0.04437288688314113,9.910993588745708,-0.0008044361027077944,-0.010950456088436936,0.010138503246934721,9.01
0.006470066737295631,0.057695915595988634,9.756575357633361,0.015582247847481507,-0.005393525085469645,0.0026683552159754522,9.02
0.22790691620768616,-0.02775933406852454,9.906254167091733,0.002918887248909789,-0.0047691926516315155,0.014133768885882999,9.03
0.10127307286029341,-0.2295373619555966,10.003257361018564,-0.004895944876721976,0.008692833742738073,0.009558640540089655,9.040000000000001
0.0038885603525844257,-0.052288307241053815,9.739810716460337,0.009308962668730717,-0.004747003752612619,8.433999813914021e-05,9.05
0.12078614013732608,0.02022280533664432,9.829740110836006,0.006717467563146779,-0.003846987091387984,0.0032406084299149173,9.06
-0.021332753926864567,0.028278865635138067,9.887636025470078,-0.007790841789022616,0.011783294966574613,-0.0036642492631009573,9.07
0.14751218533973526,0.02406702914084947,9.798007221230915,-0.005952352953982713,0.00025609419110002345,0.006233064810942668,9.08
-0.15001297784289716,-0.12070998045596731,9.636024344323198,0.0009287735899386181,-0.0044857981524575865,0.007322331629895061,9.09
-0.04173406244310135,-0.2756121522931024,9.651832052175553,-0.00153305230571483,-0.006801564358860604,0.002598762045788207,9.1
0.04692734173004101,0.026890978278815005,9.88191988741099,0.0031608193228489286,-0.006408569630836457,-0.0002360875014570598,9.11
0.01889952110888946,0.18592828581264442,10.033756394761916,-0.001582714767323816,0.0042137486967249544,-0.003029501912034979,9.120000000000001
-0.09394269012344905,0.1228790060090901,9.804316124940815,0.006719170503103683,-0.0002657095056263051,0.01006851654802439,9.13
-0.05987802246803395,0.03677233548724925,9.897515815595,0.003926119028958453,0.009835837001374626,0.0052637390727742865,9.14
0.19807177821362687,0.19710264270695121,9.831920792754842,-0.012954881109431928,-0.00281415106371471,-0.001035045844781696,9.15
0.03343908414958603,-0.05674801807355026,9.697415478534758,0.011093880794749291,0.010939424936770652,0.007381633653863127,9.16
