ax,ay,az,gx,gy,gz,timestamp
0.13684376227469072,-0.0300270349532681,9.833932363547941,-0.013253285182800783,-0.004648380527019831,0.02435330262428552,0.0
0.003365326446118941,0.03676409583684732,9.828402023155212,0.004407617846046821,-0.012083231007164635,-8.488111499167497e-05,0.01
-0.11063761691330874,0.12891042222093982,9.821208150829332,0.004047256927821821,-0.01098993479679984,-0.012685216837518177,0.02
-0.071048623005156,-0.007510681602639083,9.767198392088801,-0.005600197444124398,0.004162171916501491,-0.010804769009700732,0.03
0.31596242022811977,-0.027660481033142392,9.6712780515573,-0.0031125412530494216,-0.0008684740273328293,0.023962850370891152,0.04
-0.05200853957824188,0.04544005800819173,9.813731680320185,-0.012666952011919221,-0.011255337781634017,0.007509879685134312,0.05
0.15268841320209514,0.15088350946735896,9.952601982070343,-0.007898493442651415,-0.008082070546725642,-0.0068199596793612665,0.06
-0.2336713731436042,0.08470736208502243,9.899827401027686,-0.006369870578920328,0.012043378480257017,-0.010747727498989708,0.07
-0.13801905151471597,0.0359580187623834,9.799954016461871,-0.013808625813357067,0.005200087624667168,0.01420160962189499,0.08
-0.0844137055763141,-0.08021772143508904,9.830270304465822,-0.012804986502566278,-0.011278572232750575,-0.025657412334888705,0.09
-0.04735519102111158,0.20486784633594346,9.875621274001288,-0.008191008626365735,-0.004509322069201467,0.007644809217736815,0.1
-0.05620513800885505,0.1157176135874011,9.80709390187424,-0.01943997467860891,0.013269573840686244,0.00043185647576171994,0.11
0.10791584513262997,-0.0169109231673822,9.870263441994895,-0.0016727143807942705,0.007314260047031906,0.002919425680256701,0.12
-0.17702855344169405,0.01671610674403002,9.875425128228505,0.013019300972479813,0.0057413079065527185,-0.0074090636049526926,0.13
-0.14990571304284647,-0.12520241945364086,9.847929548954585,-0.011067680166730457,0.022170752570159914,-0.0030109385854316137,0.14
-0.015816953737556767,0.012240174162912086,9.872561054747772,-0.0006427006338149441,0.00022786365322198754,-0.009429217351338866,0.15
-0.02442111651279456,0.02023807135292955,9.823754739387505,0.021307416407401355,-0.014177253921941902,0.004088576234081586,0.16
-0.036760217086668975,0.037743532902839605,9.77548802576242,-0.018991550573805846,0.008962039418622413,0.005048547918931862,0.17
1.985613136199983e-05,-0.0005490344843621523,9.654929688757482,-0.003710998533503022,0.003755958860841266,0.008931236417871295,0.18
0.01514398412131513,0.029267873203149955,9.680762821683532,0.005464852126539439,-0.005147278580018606,0.007934277497267925,0.19
0.06816355708248803,0.02159585248888296,9.81349057465321,-0.0021579237251880654,-0.0073709258362712905,-0.0001313275049575484,0.2
-0.14274286271443545,0.117748643084881,9.810382042665243,-0.006809517741899607,-0.00022593790930110585,0.011491141469365787,0.21
-0.016437416745018207,0.012103173804182124,9.805322097234477,-0.030355393454855623,-0.0019913677865973133,-0.0036033566652969445,0.22
0.017073413263249137,-0.1314741676970575,9.676511245770017,0.0015957317553520088,0.014728432409721732,0.0002463734804817749,0.23
0.08841415473751653,-0.10398045481722894,9.812519664153657,0.0044193403430631195,-0.01753716724020003,0.013075991093216754,0.24
-0.2046904817860573,0.08440260112492724,9.842538476313322,-0.004786916787277797,0.0033978537080906162,0.003771663778090928,0.25
0.03414917019206271,0.14709061703415724,9.743459900607968,0.012381254555243469,0.011189216358611654,0.008993149309071483,0.26
-0.032875628708715986,0.08128020018796549,9.875038438520253,0.001984868025462962,0.0010443547855767048,0.00998259701726542,0.27
-0.03325968145209462,0.025084002290732512,9.802470585389202,-0.002871838395492474,0.013412832888299553,-0.010621881486999938,0.28
-0.012369482610533491,0.03592496939820297,9.836248555688366,0.01270287601871187,0.018923375763877148,-0.006890421467629716,0.29
-0.08776814220396131,-0.055361816045573435,9.815481196395245,-0.0047465358405716996,-0.0006216290227589206,-0.012684621193217352,0.3
0.14367382108459112,-0.209418931253471,9.820624787289255,0.0021817845495542944,-0.004338316382118751,-0.0031925592455423046,0.31
0.10448733096324372,0.12161307041374601,9.961081107288264,0.002214674832574946,-0.001595957686509289,-0.001312908976049342,0.32
-0.15858039622869902,-0.1264572353506312,9.907527385054726,-0.000988989085953539,-0.006426196715706024,0.007258917298987519,0.33
0.1324302756666753,-0.2718302034485779,9.867876441323864,-0.0005016899208749589,0.01649818956751411,-0.011325514950629185,0.34
0.027562525182019078,0.06177975815831053,9.847072581800575,-0.011013337088061785,-0.009958846335655058,-0.02168442645821372,0.35000000000000003
-0.1277692660477905,-0.001096562300535852,9.69187560712329,-0.024953698047919054,-0.0023655162941755535,-0.016659883457063283,0.36
-0.10001360445288401,-0.038337866314627,9.911967150873679,4.785478522982883e-05,0.010806274021663596,-0.019551552167669458,0.37
-0.01872007715659933,0.06433682731097128,9.820110842343425,-5.8497801272783807e-05,-0.0145485030549481,0.005551914739251672,0.38
-0.12269229651686969,-0.028827381640151667,9.76300372797652,-0.0046455463180261215,0.0026459765699129566,0.010850833202347058,0.39
0.10605332527539722,-0.015220021401472212,9.714901130239676,-0.0008108224040238012,-0.008784741863861129,0.02608362607201637,0.4
0.09204374671612531,0.06053440611770211,9.648359780257225,-0.013539708432869488,0.00041054830562679454,0.0020977385171120416,0.41000000000000003
0.0672788248566952,-0.048235487232777735,9.609604758337932,0.0002681353322160644,-0.011686944460790114,-0.007900364686366356,0.42
-0.005883603940977141,0.06945189231159175,9.727028589916152,-0.000986672968553283,-0.010756036432621184,0.0028932135690577622,0.43
-0.04544431479074703,0.036114425061623615,9.734266469578548,0.01053296120504778,-0.01144121127644695,-0.009799947276046684,0.44
0.03459409255554599,0.09780431305984483,9.76136847124427,0.01756363294432905,-0.011080938526368544,0.005733322173154073,0.45
0.12833970593006147,0.13252467249480318,9.911632568063794,-0.0016548893159899758,0.009713217822578836,0.006112314172544387,0.46
-0.005290932280231034,-0.047819828991886956,9.81682129670974,-0.011858272946524036,0.014966466216751182,0.0008851555542012884,0.47000000000000003
-0.0577912945530849,-0.00012369922614420426,9.863964766619171,-0.00475576493413709,-0.001479379222447559,0.0015984106533550074,0.48
-0.01876236306702058,-0.05284051583376729,9.916991160061787,0.008214193894938063,-0.012120783723027996,-0.0035013192266163595,0.49
-0.08050397466897657,0.09533909854971206,9.848803755516629,-0.011684045433996742,-0.00685508292387908,0.003562390613356308,0.5
0.07871784984975203,-0.017202915632502477,9.78203229169836,0.009961649965766997,-0.020420703705286078,0.006580162124735567,0.51
-0.16214106121391675,0.03468444191881535,9.822293078623309,0.0031213509420510745,0.008208487368080178,0.020534881942208837,0.52
-0.02793382695301637,-0.005657543801336263,9.762217255703417,0.014255138120900835,-0.022303255214039946,-0.0005114341229241966,0.53
-0.18378774159253838,-0.12196184137864344,9.833632025147589,-0.003187426444773559,-0.016631560867422516,-0.008945997052612658,0.54
-0.021535845070859955,-0.003435318482126105,9.699919797211923,-0.013721928641415106,-0.003923084777887718,0.0012601589291926013,0.55
0.028470812198243274,-0.08430490848352755,9.91391573387447,0.014091279169499173,0.0005235551190414069,-0.006043269133375351,0.56
0.08006141779935087,-0.16615906589163407,9.886904496357232,0.00442154099789374,-0.010404453004869177,-0.004326962601162259,0.5700000000000001
-0.09614347014137153,-0.06035111940362695,9.77954630796678,0.0013160733226069735,0.001968604753738484,-0.0038921733995708804,0.58
-0.10614151768158464,0.08394105207321773,9.77311561251903,0.003489302011082613,0.00014464354071152275,-0.0040457687745188925,0.59
0.11417099442074859,0.009202912636849058,9.731184720159336,-0.0168851491548801,0.007951171289429881,-0.0004393187492537447,0.6
-0.05536195363316813,-0.11411828355612108,9.805583926180796,0.0038619335516926973,-0.023055913901656313,0.006521109755247923,0.61
0.14524579345878705,-0.009637161694655031,9.74090779787581,-0.011899033968343204,0.0026067921720581257,-0.00024323959672637002,0.62
0.06971993335547212,-0.07353300176978116,9.633794714859754,0.0033466713640240807,0.00828422042795548,-0.007689069474096807,0.63
-0.03389590790861707,0.07757064632465932,9.917031147268496,0.002109916881108076,-0.0038131024632801925,0.0014019385530783623,0.64
0.036274019778703134,0.019549067721867867,9.800530322822276,-0.0049796037443470414,0.0038672745055081392,-0.003846845712329016,0.65
-0.05055998131513743,0.1407770271851941,9.712735812279947,0.0006324643003547764,-0.017836132940125947,0.0018478694441357551,0.66
-0.04899596483286223,-0.04994968269850935,9.80117811372998,-0.004785189611343671,0.0026117241518172824,-0.021100853455262702,0.67
-0.1250545473111105,0.21200256030471826,9.673896473035061,-0.01490367925259663,0.01859046934223243,-0.005917782499388585,0.68
-0.023188466715930597,-0.08255394283338988,9.86846915962712,-0.002815352253637883,-0.003763272202822957,0.004368673797842619,0.6900000000000001
0.04815608111890806,0.17549757991039974,9.855359455458931,-0.0028352651239673438,0.011226080459558809,-0.01786232809959308,0.7000000000000001
0.2393295337213317,-0.25727946068830915,9.842126960310337,-0.0033583982850982175,-0.006203045878093442,-0.006495558517689886,0.71
0.032053902079421846,0.07109626636441253,9.702380238332985,0.01842286002963127,0.00970705766466489,0.0018965015352302643,0.72
-0.16042276234580577,0.0642453292264432,9.825822782286153,-0.0003741749362567348,0.01055291753019351,0.010559474778651384,0.73
0.06038537118057329,0.008514113373353093,9.888256963444347,-0.005448941351991606,-0.006894259053142392,-0.007531929323416203,0.74
-0.012435125836793917,0.11216766131251779,9.733030119430348,0.0027212377808005146,0.008451775557375156,-0.007822054178509839,0.75
-0.06954133336400244,-0.04190558511703494,10.047213928727833,-0.0015096421441349282,-0.011659626124437945,0.011986506217537336,0.76
-0.046629002276259525,-0.0030710483067939312,9.798844632459703,0.001092764837874971,-0.014830382588675969,-0.00833886015719379,0.77
-0.17395283721471022,-0.02708262737992081,9.785111379048475,-0.006124798873293145,-0.006449419575236486,0.00528387466085295,0.78
-0.07072948017505011,0.1285944145483198,9.674317279065832,-0.022553726022811513,0.01125131857174096,0.0001664605603959299,0.79
-0.044686868642144016,-0.1264197394463041,9.905537456047657,-0.010463441992459877,-0.009261569155709953,0.0012664790271882628,0.8
0.07139278882606173,-0.12460688978004582,9.721891003528079,-0.0068128525116456845,0.003906641295853754,0.005729573251405168,0.81
0.05931279414493129,0.01485862156890752,9.647438506622024,-0.00519999123688875,0.014817372121632389,-0.016358160855031226,0.8200000000000001
0.08915521293206524,-0.05104733381393135,9.835204358481308,-0.008243198304697686,0.006892760477166729,-0.0031728750676552186,0.8300000000000001
0.021384458245275614,0.0803541027380961,9.836667367059608,0.0014733212299215914,0.000674522933864697,-0.014171798115086951,0.84
-0.02807025149363032,0.2115812467676963,9.837693716699349,0.011217204285964524,-0.0032009684852199343,-0.010275986679849086,0.85
-0.11384099557800179,0.045842029715281195,9.829825848978917,0.007096893258538051,0.007392490162198273,-0.0005946584325184231,0.86
0.152467011628714,-0.013619823532195229,9.763010870712241,0.0021084261287491017,0.002603594405660111,0.004987015955817542,0.87
-0.05382705701525147,0.1645112436285939,9.635437455135802,-0.00868386552062265,0.004041358839561781,0.0046888167142902,0.88
0.14683311322047185,0.07520719003757137,9.811084192907224,7.866450854744111e-05,-0.01102305100789596,0.011608221258676513,0.89
-0.08582669140682773,0.004379585201820169,9.73131147271505,0.0005504679911994774,-0.009994677074242515,0.013565764801520363,0.9
0.24434697484308604,-0.034175887398774224,9.799632008196275,-0.0034976833928587196,0.015668722469491674,0.00041088004138843095,0.91
-0.11486127738421828,-0.009913798307677479,9.662828012674547,0.01412547189879481,-0.015887127385939132,0.002451762021166855,0.92
0.07614836159818585,0.09789939254157985,9.903131597987803,-0.004686756488316135,0.0027228559471828523,0.007873443853242514,0.93
0.015070664300493228,-0.04783618633133616,9.695145802278649,-0.005839788990978121,0.00380801993978192,-0.014687743767221735,0.9400000000000001
-0.09576206324706367,0.19655734854549126,9.768908005569656,-0.010047192669467865,-0.007188641319422115,-0.01975792508317006,0.9500000000000001
0.02754995480004196,-0.035106730583111895,9.775583722670236,-0.0018972027504580266,-0.00611442834909281,-0.0012344890520946292,0.96
0.03416691516155535,0.08727683215714449,9.869352951135905,0.0058574562277934495,0.007149125857131192,0.02029624295513388,0.97
0.04881475563075028,0.0599881201200881,9.875640313231477,-0.013765482308853194,-0.009880224742716673,0.017995890378608034,0.98
-0.1045583665885534,-0.06215497462660027,9.731338304144272,0.01565031684442151,0.00021455375299233364,-0.0051331636004013715,0.99
0.16945028381000915,0.11621944240908165,9.654013069425949,0.001397309733565629,0.011761955822784269,0.009569281807519517,1.0
-0.15366681497810783,-0.11117049389604415,9.670230781285644,-0.008186123687319628,0.005936608112296383,0.012161518244287399,1.01
-0.007147189332560622,0.047013145849696916,9.828330902622376,0.007815652642115836,0.0015930925415856415,0.019056487657094258,1.02
0.11115838763805924,0.10345320475805915,9.775028697479396,-0.011329375758527396,-0.0053386115675560465,-0.005699828389339503,1.03
-0.05017882625056835,0.05239007333106896,9.718244802855853,-0.005536741684931587,0.0034088583726000063,-0.006202429621423529,1.04
-0.11574720903246766,-0.004609097944174671,9.716302991873308,-0.021927826963989542,-0.010455068157545584,-0.001303054508163194,1.05
-0.11127894537828437,-0.009120487793922804,9.804053728651017,0.0015307248990262233,0.00208789807757459,-0.007940113097983002,1.06
-0.028740373311837604,-0.04352487694003035,9.75261463444199,8.702437160820716e-05,-0.013578694995379996,-0.006800446737300757,1.07
0.04564422458986266,0.01774895677522448,9.886193331933086,-0.013395348951568931,-0.006220362761314486,-0.0037146482684960475,1.08
-0.06627327853164976,0.17654246568639115,9.835212675819358,-0.020041736508760816,-0.003141606977801048,0.013166098050566417,1.09
-0.21980878835125273,0.018923923748095012,9.697339342294576,0.00629074679647708,-0.00037835521179867585,0.012356267075895929,1.1
-0.00048307328404502295,0.0794452178951707,9.701511563007696,0.00267078724164218,-0.00678229135435418,-3.922211618625574e-05,1.11
-0.08812752747729481,0.07101791551747395,9.780849698767799,-0.01241183916992921,-0.011309300898567602,-0.014726693542093959,1.12
0.0007071858632114486,0.07155513845271055,9.664073212818641,0.0008723274244084575,0.004090936467322259,-0.01195289123950031,1.1300000000000001
0.034237507590759254,-0.023277575481049945,9.649026806519156,-0.0056632520510811035,-0.0008658504832209943,-0.010849126399923874,1.1400000000000001
-0.1053286186665891,0.08639908723818523,9.756852008810185,0.0018868893863147652,-0.015408450552435829,-0.00873422818759098,1.1500000000000001
0.11245513010436088,0.020640703672674805,9.823642423064673,-0.009240125873010166,-0.016438693273417068,0.0021783837506204927,1.16
-0.027098070157966572,0.10648419862771222,9.755223621417151,-0.00035254477227535076,0.014961443449099894,0.002140605601465113,1.17
0.04867965779366645,-0.05650530301244286,9.671003429808561,0.00394286796709684,-0.0009519561521336893,0.0009365738181424703,1.18
0.0316236446784151,0.02020548355260139,9.732550082750036,0.009602307112458967,0.005183020632140341,0.007670451953720838,1.19
-0.008101519653863624,0.07033638430237092,9.706903346497608,0.004367866435260012,0.0034458275050275773,-0.015495461965094933,1.2
0.07980515141681956,-0.10476297295829705,9.77522554328847,-0.004886346751533602,0.014535621778788322,-0.008230805074745823,1.21
-0.02871566194579276,0.04238570299788287,9.862183547390202,-0.0013284384109300959,0.0015340915088320373,-0.006420157951611545,1.22
-0.02487157288488223,0.04178225555619667,9.841073550203014,-0.004513832318760954,0.006381523410618881,0.006192247729217502,1.23
0.10600538428370915,0.0697019117534362,9.765546150311716,0.006452574726386498,0.021438432767858777,-0.00509537950758882,1.24
0.09275896069449241,0.11536268744496173,9.699548227255463,0.0018846974046185046,0.008263578227883098,0.010879162636777233,1.25
-0.1438980499964803,0.06765592270039847,9.829284195522055,-0.013803371454874518,0.0003718309689930307,0.0030877722175015505,1.26
-0.027193418079015715,0.1378657204520944,9.818451695962489,-0.005530221582753668,0.0016611318213787382,-0.000328894474796003,1.27
-0.027888795168485893,0.04543956334405179,9.779192666957066,-0.0039267507919710344,0.007639519745276753,0.011810104557477422,1.28
0.01253417554555398,0.17416950754306237,9.813094208042674,-0.011576302071331441,-0.01265268270029431,0.005894488425485562,1.29
0.0009944327103524173,-0.12917771092117683,9.989600652195161,0.014839175995409197,0.010914235015968988,-0.012814336933016264,1.3
0.21645859494246422,-0.11683645297200698,9.800973067032016,0.0043208487876657715,0.011033248623890506,0.0015956419683896903,1.31
0.04894045786737845,-0.008685891414077333,9.907296655886451,-0.008941516057384705,-0.019017915475542924,-0.006471345995206146,1.32
0.10575082244610044,-0.0862830734631133,9.66760382541605,-0.003983057731545568,0.011744350668227366,0.000832215874931676,1.33
0.19269431946586824,-0.10538522566072583,9.829139972753374,-0.0004889629041581299,-0.0007938542826214041,0.002244777820816819,1.34
0.019027630972510354,-0.2243611326481748,9.730940966475115,0.0025588613370717403,0.002989612675226801,-0.009568854943270847,1.35
-0.010877345851188963,-0.0014772361244834392,9.876037013210665,-0.014699796847788368,0.003533362465683018,-0.006832058787302403,1.36
0.055029540783906344,-0.08920427318528745,9.817432812906654,-0.0025799189882770323,0.007055817385602438,0.015296368453298698,1.37
0.009252998054645455,0.041711675359792255,9.666400940420756,0.007562145198446147,0.00413241835158871,-0.004887720149005308,1.3800000000000001
0.10085495961011413,0.04196793837067155,9.802810655823379,0.0016330126683598218,-0.007217511141243402,-0.009216596885118347,1.3900000000000001
-0.0995498844677009,-0.007774803671711678,9.808877931612967,-0.01267398741297627,-0.0037338155398670965,0.0064996941746948015,1.4000000000000001
0.10400458589949249,-0.09302752480758646,9.760358320976698,-0.015316184179319282,-0.0024596151653568073,-0.011017360017206627,1.41
-0.08837356357395976,-0.07266865559545414,9.713551347835407,0.010144475807977572,0.006555016661736095,-0.00978894434284521,1.42
0.009744302809772891,-0.07782167086729984,9.867628455647154,0.006725636362043088,-0.0031245946313432265,0.0066192062346503815,1.43
-0.025048492223828753,-0.10192986951087618,9.906016851636812,0.01237960550556987,0.021113151631980184,-0.014457737029958942,1.44
-0.03499671876022208,0.04260373908022366,9.782058585100783,-0.004452856133327341,0.01489262961343397,-0.0004745294836578832,1.45
0.08982821466710313,-0.07985905108944169,9.836932635914666,0.02778320650362669,0.0006983433382337274,-0.01005687591872333,1.46
0.13425820982452938,0.1328099279625346,9.885559766983421,0.0006178376137895371,0.02117016095151779,0.0008063203329990695,1.47
0.18583558098575823,0.06702489199010249,9.640748727092207,0.0064186020363760634,0.01620134151677589,0.007908910871172035,1.48
0.050924253950220634,0.05105742207586608,9.871765181784383,-0.007870179490970205,0.008604072141246994,-0.00944991014524479,1.49
-0.201970963514844,0.0741335273922713,9.925850403507933,-0.007965242553771268,0.00507452480208965,0.0014584460420276044,1.5
0.15877017076531397,-0.10442926016284777,9.820588808194376,-0.0029146968144146547,0.005466256922826775,0.00023368795205635045,1.51
-0.11447466815701146,0.09684789733918674,9.998230539148334,-0.01872027928822408,0.011412320645460055,-0.006357487926100584,1.52
-0.14255870214522234,-0.08974688489134815,9.699274455481747,0.006805048393916872,-0.002828534523747759,-0.0016645975688879722,1.53
0.16256185560888492,-0.16715507323674497,9.899869200292343,-0.008272318149845836,0.00613209039768363,0.00276760395271266,1.54
-0.04872723920989754,0.11825678970809661,9.701406532198654,-0.009941098961669654,0.002870889760031462,0.014290163739994253,1.55
-0.03184363148422578,0.04256946515960476,9.804371040517015,0.009687528128404241,0.0009182557505931633,0.009840298026870718,1.56
0.007024212501564136,0.14159506951345932,9.689717625404919,0.008456923370761364,-0.01858871667414738,-0.005908541958400825,1.57
0.08470067931458303,-0.1166546636882948,9.664174331526269,0.0035856893427346588,0.0022958740555686866,0.007484770818966816,1.58
-0.07933243638823755,0.1829522619290681,9.840332337138799,-0.005676320071417483,0.004316378384472311,0.00333553381743563,1.59
0.0003596308967427179,0.06112031062693956,9.793587439929329,-0.02344878861292395,0.004314533244044597,-0.021787942830734517,1.6
-0.034787691679938934,0.017136894964028884,9.86298436360387,-0.010907012134832233,0.021371933080901396,-0.005260290643050093,1.61
0.07962913111425918,-0.07155920797265576,9.871859031453257,-0.006750806895443181,0.0008614560347056545,-0.008856323373598094,1.62
0.06489439019218264,-0.09410084549089902,9.80322418276354,0.0034087626326720394,0.009705111784866842,-0.017178949414691377,1.6300000000000001
0.06743679803607164,-0.08936952643531185,9.775277161738197,0.011466911094166294,-0.007609910785020874,0.00909792828256345,1.6400000000000001
0.19999266902302587,-0.13567579990443518,9.848987162771108,-0.0011227846961485647,-0.007703380191104871,-0.003242752554834591,1.6500000000000001
0.01678064894337628,-0.045729725605491406,9.95447692120781,0.0003611922321176088,0.016201949304915468,-0.009330964478299267,1.6600000000000001
0.15519862184675878,0.0010748161289135373,9.778446829840282,-0.009041172834922855,-0.00021786330601331942,-0.020280432585513913,1.67
-0.09935115579230976,-0.047789742430764996,9.819229665295529,-0.0032128167574590337,-0.01303312659860298,0.006945710037232006,1.68
0.031298710088375,-0.08567878771543622,9.709746014145843,0.007145056690803598,-0.007787513949204661,0.004788626721702694,1.69
0.11110442495353418,0.07365790943055377,9.634220653372386,-0.01522869155374532,0.00027150223845197064,0.001969170568254244,1.7
0.03336631767484242,0.00015832807167832604,9.749972636681857,0.0030207217541114518,0.0016129329595251014,0.016331129627114752,1.71
-0.15240417042328558,0.0018579274610132177,9.826225293422493,0.014209867083225138,0.0022775882848130417,0.029026220144881505,1.72
0.0033433500293344404,0.11091402645539439,9.820145933342735,-0.00020965560244726747,-0.007408047197444474,0.002394221362637643,1.73
0.19265281061439526,-0.11703500073740435,9.68915950387136,-0.001278672632871683,0.0027997633559423353,-0.003671586858218986,1.74
0.0572243646027891,-0.08863746170425504,9.94683900863972,0.006144556952931852,-0.009050694012949292,0.0028591568990951046,1.75
0.11531448305675601,-0.11817389932845826,9.986954219630379,-0.020298535957462917,0.0067871530131315425,-0.007069889821538814,1.76
-0.18147077634863262,-0.08261889706717988,9.856566115921934,0.00912878446752207,-0.0033031011827240955,0.008215681743382105,1.77
-0.11400770972430817,-0.11190450623544934,9.936632409333363,-0.007425170790519314,-0.0017795553599531618,0.014803371549134182,1.78
-0.011310196796861509,0.11228615144029089,9.98105979021486,0.006105047654123738,-0.015408841893123503,0.0072481856533340725,1.79
0.09112165721532983,0.11031364401351472,9.742332457211079,0.007252535903891145,-0.0012718872222055437,-0.004016680510899228,1.8
-0.07437714948110442,-0.025949402222778556,9.561784883280776,0.0012026051631050631,0.011536545843438937,0.0036199119973043077,1.81
0.008545365279465011,0.04971912786289345,9.714023724315728,0.016812525593304026,0.002590937782185788,-0.012262526483467609,1.82
-0.15535037282067987,0.002798973951507855,9.745804193733484,0.01824240356625741,-0.0056764245059017625,-0.010637207062295446,1.83
0.018027900941905733,-0.04655211592000041,9.814596539026182,-0.0037562501286488087,0.018185424489395433,-0.014677259724309886,1.84
0.037461427235608746,-0.010650622488160866,9.73294871548946,0.009898793106143845,-0.008473540495928508,-0.006050021887093931,1.85
0.13096505658096777,0.031918740205403494,9.816074653146034,-0.006456440472754074,0.019693881308898337,0.0014767019916222199,1.86
-0.0703158140097677,0.16966964588855338,9.764656502694024,0.014333438348445639,0.0011184042488431092,0.005456102354160268,1.87
-0.104117432554914,0.15537186922717683,9.88513041341416,0.0012680411910870632,0.01085111713191409,-0.006015130615567063,1.8800000000000001
-0.050592094292737505,-0.07561816782922363,9.783686723897528,0.010270418269764499,0.025555646021561525,-0.01214677691912558,1.8900000000000001
0.04706300200508539,0.12418964733584924,9.891215802260374,-0.00040073226808439057,-0.014072592977794956,0.006003478415233029,1.9000000000000001
-0.10536174988294755,0.13323817337093774,9.752836381765237,-0.017010521416306195,0.00047108343802397214,0.015582207276671419,1.9100000000000001
-0.02658005048433129,-0.014354122346504364,9.885770140325784,-0.00802419658481297,-0.02166616171064507,0.007823698870483203,1.92
-0.14338156936384924,0.03742065870903715,9.794396141284542,-0.007132951093203899,-0.002621040635531679,-0.00388836479550176,1.93
0.0746521322517664,-0.030747806765343624,9.854962851684977,-0.009047607295133006,0.002251040839763652,-0.0073574410087295485,1.94
-0.07478237280862383,0.07759233909491715,9.886773580108974,-0.020115684980680934,-0.0022193672231000266,0.00663406877460708,1.95
0.21126597233078281,0.01574340395994302,9.782803407425474,-0.004374023998221877,0.0011700291650762968,-0.005485922575054168,1.96
0.06686414800109369,-0.03323461338833329,9.905946094019603,0.0034557084211792005,-0.006537171683847585,-0.011883633461620167,1.97
-0.06791015931586772,-0.07297275341407927,9.838552411107816,-0.005264527215447877,-0.004011406425897519,-0.0194733231444126,1.98
-0.054099855227674735,-0.01681085736958039,9.780186205760423,0.02085929346885099,0.0026070872363420355,-0.009449432866195937,1.99
0.1382051986523065,-0.012071559938677744,10.0239783067313,-0.006486011203390023,0.0008176893476269276,-0.012192313902859834,2.0
-0.06512879585335263,0.07986398594245923,9.859917750561412,-0.010183513283841308,0.003233719086640079,0.008674830950277096,2.0100000000000002
0.05987501080345882,-0.013183608311846076,9.781845782049372,0.0033229630778767263,-0.01362014167760417,0.007686245801633933,2.02
0.03296958553799617,-0.18949805412647092,9.778896861586059,-0.008828395322791558,-0.005877649513485588,-0.0024056226564533514,2.0300000000000002
-0.0011966219381467106,-0.04889157242490739,9.859348766585988,-0.01678842155467299,0.00356940866898892,0.004535779258577599,2.04
-0.12478719654831145,0.03861635030645276,9.782097611091377,-0.00511387217946481,0.020935110935801596,-0.010950949984834072,2.05
-0.01689939702894015,0.0018375528025928274,9.836549556518003,-0.0002989230618643771,0.00687299162427502,-0.007959253162688484,2.06
0.05321620127875707,0.04793508891664346,9.671837172497534,-0.004825662160965365,0.0030808217025985215,-0.01832500640349121,2.07
-0.07040650275093745,-0.20035495552091312,9.994986617924976,-0.007386965705031894,0.0031138323178097884,0.0021460312930657592,2.08
0.09397186685880847,0.032239359286955455,9.816870275502003,0.002560308685746025,0.011180355687587828,0.006090437683331888,2.09
0.027786648278038797,-0.25648499102207784,9.701970835985517,-0.0017038739392834254,-0.001774940584068444,-0.0038477952598785815,2.1
0.006012251141840216,0.10091290124579065,9.764179461026883,-0.002556508351763765,0.004562000660312998,0.0035685949439835715,2.11
0.09116750005919898,-0.11315652322469825,9.692971597454953,-0.019899885610034897,0.005286927566964929,-0.010663443702207547,2.12
-0.18892814197364455,0.03821924073191553,9.929085115657987,0.004132335888223239,-0.01037032081904118,-0.0024699533111209302,2.13
0.07627901181509761,0.004332147518952457,9.84419652087707,0.0058141178403682825,-0.006080781644140696,0.014897633570290303,2.14
0.06796750618166118,-0.15513585306945418,9.775686041683095,-0.0005311629169147678,0.0020336883488266426,-0.0009703987447348453,2.15
0.028270116521013956,0.11764259134016315,9.640562642458256,-0.000658954251223807,-0.0029605663293521475,-0.0033755196448007133,2.16
-0.11596454338322522,-0.10015631929898877,9.857489300415736,-0.008613032428385495,0.00390704796583817,0.0014946245924876212,2.17
-0.0312837882569277,-0.23935460385122012,9.810766441021364,-0.005485577789693371,0.0020689823165012337,0.0007387043545430819,2.18
-0.005375139341516402,0.036719502396285346,10.005788114443076,0.0037660864420629996,0.005523716491498725,-0.011872736333176157,2.19
-0.052464760180433646,-0.028478162475867555,9.856050407140014,0.008295316276269105,0.003873886902087064,-0.016166474217533196,2.2
0.028244975559809357,-0.04110421405653539,9.903722277873435,-0.013882804027133275,-0.013398083072355012,-0.0011925647036590172,2.21
0.0218538783025493,-0.122031087332683,9.777643281653798,0.009568027471099624,0.00038649906396293765,-0.004000198442960713,2.22
-0.05615901662967056,0.16057757004749176,9.775389054344569,-0.006085616626096857,-0.004860680616450926,-0.016114253647732772,2.23
0.08728547274386102,0.06882003082243536,9.73740975865425,0.00022484578484474415,0.0012189106811771888,-0.0026905832355442476,2.24
-0.0635239233321741,-0.026137906915821563,9.743321342153411,0.011983911534487274,0.01266126105133102,0.008610378947628339,2.25
0.12932923097430668,-0.06062112814477952,9.617246216704402,-0.006390029442174307,0.01072050803955008,0.021062573714933884,2.2600000000000002
-0.06365948098130546,-0.06025670829353942,9.693931822909914,0.008319473079503223,-0.007015408797948126,0.014815752636577114,2.27
0.01993151479328899,-0.051805085975210156,9.774754826020256,-0.009535125327891842,0.0057340632565319885,0.00015163771037461404,2.2800000000000002
-0.03476592686491859,0.02025265350341605,9.837001505753204,0.013224157747257404,-0.008591118854494335,-0.008114913852390982,2.29
0.04552467420373285,0.028463912503850254,9.847447081417169,-0.007364566536690939,0.0010260608533844153,-0.0026216416059474065,2.3000000000000003
-0.10556064063964132,0.044717563857230996,9.791207437532707,0.011952229682813008,0.01734333108658939,-0.016419595063714147,2.31
0.25069466940998136,-0.019743592287615915,9.918400472220092,-0.0011655420997271637,-0.015066435039807164,-0.00809860202047408,2.32
-0.026287731832172163,0.12103763606233396,9.708283230217223,-0.0011960181654000254,0.0016392951710152096,0.01754616421558536,2.33
-0.04942653520567085,-0.009096978871325044,9.649449746571866,-0.015340985892488902,-0.01774369434281614,-0.020712445411700663,2.34
0.137646217295984,0.18530221878949613,9.689395282488203,-0.0021075390211101547,-0.006360459660169166,0.010392913628775438,2.35
-0.02148146734818215,0.10901515862147618,9.764017517690858,0.008484823241787176,-0.011833448553834308,-0.011479425792725203,2.36
0.1646963450006473,0.10920697508143176,9.730297923353914,-0.018860731945498446,0.01226812390271194,-0.008189212406092498,2.37
-0.10524759659272949,0.12623723163217823,9.808184382845965,0.00957960203049574,0.0008347963567498321,0.005791831388355602,2.38
-0.110607086720359,0.05302148847750082,9.672316361126345,0.016176022983616156,-0.01494706298481185,0.008380097155413995,2.39
0.017975570516292012,0.14111590166013596,9.608634180757681,0.0009303031232651265,0.0059588674126389955,0.006249109194696,2.4
-0.10132625458313674,-0.025913474977709516,9.965703794489126,-0.008016932949779286,0.007664356764116827,-0.008239130989063316,2.41
-0.023525194222896128,-0.12964087574651803,9.871735949150636,0.008795857484890894,-0.0031974177954451994,0.014445194676207062,2.42
-0.013963576214937623,-0.04990198310216998,9.864562163118608,-0.0008368268978034889,0.01824448966721064,0.015509889562145081,2.43
0.11072169524610141,0.08430781193852238,9.602668529887302,-0.00017058302852345563,0.009894865196766009,-0.007698013723668581,2.44
-0.08069509523229894,-0.22347761232590152,9.80977241316543,0.0022732878687289786,-0.006584804997063364,-0.009651705223464648,2.45
-0.008092462341183704,-0.03287236247588154,9.714825080986687,-0.007498995447164377,0.014106463455751474,-0.006287875145021957,2.46
-0.016998771445819464,-0.008248835657623915,9.771138378787947,-0.00017545515623663458,0.011397167130561525,0.008874155454528408,2.47
0.014977828600063131,-0.20669096070775597,9.697039858526034,-0.002445520508455206,0.014903787215749968,0.014155005674073571,2.48
-0.1285938575103607,-0.008495640144296374,9.754760039648225,0.014119017455679363,-0.006351749499686886,-0.0021057627746648424,2.49
0.090645873240822,0.11115272763682343,9.820833293014292,-0.0022436351516742985,0.009259501027664194,0.006965917080456949,2.5
-0.07388945109143706,0.17111308442912346,9.782986813464277,0.009144071861196666,-0.011374088169480892,-0.01632884456202512,2.5100000000000002
0.07186636032574965,-0.08412366747387286,9.993978610873375,-0.001582915791372962,-0.0015517509219497422,0.003274688853182782,2.52
-0.09119550124515796,0.020758794119429606,9.951025686368677,-0.0013097925472065606,0.0024368829281131007,0.01634749602718546,2.5300000000000002
-0.10696087732311772,-0.11207692562096837,9.895437664259179,0.01374319907976845,4.834557938095392e-05,-0.01192038805362081,2.54
0.10650488396234432,-0.11092054143954955,9.704572451689067,0.00197414318997162,0.007370542095058208,0.001512629907819314,2.5500000000000003
0.09712294519517034,-0.057283496144320406,9.866396469165377,-0.011721167284016525,0.0026605915886377457,0.004160076362117291,2.56
0.07486822812541416,0.06949122230768881,9.792504567022622,-0.001064977851288288,0.006147754801881708,-0.005965725368039146,2.57
0.010622849642709088,0.18363066234112438,9.8677288631608,-0.0002128934372355702,0.000146691619690652,0.011003056708181521,2.58
0.07528320307796915,0.10659109180959736,9.874446607285572,0.001247814859841905,-0.004830333174832402,-0.005965382393586198,2.59
-0.03087769241048821,-0.2217049834794576,9.641651759573683,-0.006659543580801893,0.0006988225201394803,0.004870021298636523,2.6
0.15317581014729656,-0.06867169361505264,9.882896081537046,-0.008749986545062167,-0.0031164045374522244,0.014871096407157343,2.61
0.019740477886297795,0.12471655630425416,9.875573083506039,0.005890779329380286,-0.006505232880446918,0.011311641822217826,2.62
0.19532167951750154,-0.12503334888452397,9.986293743131975,-0.007108129344506819,0.0023176788386754807,0.007718242174579661,2.63
0.10653678568170924,0.012945087271932663,9.651462200047337,0.008816415472032973,-0.0029414150473494466,0.002152129585746611,2.64
-0.127257881705717,-0.14027352099153717,9.768835025352356,-0.024421295205353768,0.02216441806375013,0.009661584753508135,2.65
0.09706387794668396,-0.10721530315502588,9.746251079186798,0.00737985251360963,0.003249968480956401,-0.0055384381359211525,2.66
-0.11803360617155736,0.03924290495195209,9.833645657540114,0.008150786548918302,0.004756931537799625,0.01724952519270999,2.67
-0.16252969131431605,0.11787798584163563,9.814361911614675,-0.0001256232603726778,-0.006886209436469215,0.002697175472919571,2.68
-0.07850446419691445,-0.03152823393985253,9.815245506064754,-0.0052232610998455276,-0.0024753717642998765,-0.008930291272672078,2.69
0.15730833757006524,0.06966847284756959,9.79925194300452,-0.011478510441603407,-0.00012504598754587112,-0.012119126761643333,2.7
-0.025753857441621487,-0.16902883920269848,9.705236952258137,0.0182041796410357,0.0036233217564750992,-0.003652574026344694,2.71
0.229117149549201,-0.06218495348167228,9.848657599464886,0.002020744680981,0.012515143708188186,0.0010735896796203142,2.72
0.027750877480261716,0.05412883082035981,9.768292400913852,0.0016605642306609478,0.009668567091671305,0.013260409781038493,2.73
-0.08991171283249583,0.1278198686078674,9.90128103294565,-0.009362270786777099,0.003085556526721596,-0.012515784224380695,2.74
-0.016277525191576627,0.08128029902339062,9.878176268240232,0.002684883826955174,0.0005612248024406372,0.011722337060193919,2.75
-0.01592142306401712,-0.0959190646665762,9.650070776390933,-0.031494780471136685,0.0010509941352677217,-0.010324901047219823,2.7600000000000002
-0.016052106140764518,-0.033762399219098065,9.799699362498139,0.0006248471469285117,-0.0032503162311376572,-0.008863190622108833,2.77
0.003809860952958346,-0.21566591490177536,9.943362476537146,-0.0013674508740636171,0.001194157931339846,0.0026942166895071455,2.7800000000000002
-0.013541074391198693,0.03763934254962329,9.879552555110584,0.01906477504313389,0.0033029664122908326,-0.004999019603690094,2.79
-0.0478107370487382,0.09696263227938029,9.77386005974604,-0.00262645098619265,-0.0015887363640982833,0.012041016862620662,2.8000000000000003
-0.001065902601606371,-0.12164943369793187,9.803460321135445,-0.005454159264885767,0.003278168790628986,-0.02171207562384466,2.81
-0.11528454968847644,0.08872806697183855,9.818573436676228,0.005746120186637513,0.01953642664093458,0.026564942934599704,2.82
0.04243511116263714,-0.09629196246085202,9.899422795499811,0.000783935193725675,-0.0036473894511176094,-0.0020544007919168082,2.83
0.039918496451025076,0.007280089821549526,9.649646727777553,0.016167084745992693,0.02409201273491623,-0.0045507048781277945,2.84
-0.19746809547755007,-0.008097342225543596,9.762981048785793,0.004221377794503441,-0.005848493386593764,-0.0009632122331564828,2.85
0.1638818316179354,-0.07741258411628173,9.868135026778306,-0.011583357853890556,0.021466575803942574,0.0022058653889858158,2.86
-0.14358330729046784,0.08083187315569836,9.796767758418795,-0.015061478262002092,0.001688808800202637,-0.010995404553640384,2.87
0.07821463948769208,0.0010371603421629946,9.768241952079928,-0.000793473793340464,0.01116086313296151,-0.010262263057324928,2.88
-0.047488542332531525,0.10433421439260138,9.702762626533856,-0.005411616909741075,0.0003368179006829755,-0.004565865742730781,2.89
-0.030659034114333468,-0.12962830751313853,9.779270246195448,-0.0009389354441860275,-0.005139046676989253,0.0013005401681103585,2.9
-0.16144322079107512,0.0152803867684746,9.725079480121455,-0.0006818732635635148,9.325171759027699e-05,0.01970768211624976,2.91
0.01975389303895422,-0.046491118498565784,9.870088538904465,0.026554632213691805,0.001639727529782129,-0.010281890376146368,2.92
0.11375717528362923,-0.17343508204231245,9.948417927598012,0.00978045941739276,-0.010101597588832896,0.0028711657348216347,2.93
-0.039041823218423456,-0.07819307635885098,9.789465254877811,0.01786647011083691,0.01479503420988756,0.008470434709459306,2.94
-0.03510336457936075,0.014095086332082835,9.83261727241302,-0.006652035969675669,-0.0007538757354502855,0.004025685320396242,2.95
-0.23040404532406225,-0.07201961494264085,9.755195037812841,0.002151570669470999,-0.001366074866633398,-0.005473929967861684,2.96
0.07815481979769728,-0.1783911107883587,9.843659804649851,-0.00037687457713116255,-0.015996449171293104,0.019277350422908197,2.97
0.1990501109783693,0.017664663163889843,9.82128503472787,0.01149620257489478,0.008375881973705488,-0.010921025483976702,2.98
-0.01042090913230724,-0.20673754772087496,9.793409212823468,-0.004737918693947804,-0.021867557022332645,0.006563487091289193,2.99
0.008388820428192527,0.06368029341860174,9.864960960425247,0.006146647086764077,0.0003827093145374652,0.01726399198236969,3.0
0.08399458091062223,-0.21916228517899647,9.818140507692663,0.004369599917711304,-0.0018672121014525955,0.018808722317068323,3.0100000000000002
0.05252933393870604,0.044523978498920105,9.74224566520195,-0.003327322885039945,0.004231878570714987,0.004407848585248303,3.02
0.07845543557777943,0.060377248336987946,9.766810361758688,0.002009057613062786,0.011938916993196583,0.003907211092977648,3.0300000000000002
0.08687975664915279,0.11420615304795655,9.738045893905575,-0.0013557033745164064,-0.0017992947669887775,0.009647961030354056,3.04
0.05889992677838771,-0.0733858787269522,9.735394174977564,0.0017053462120196164,0.00442510736310702,-0.00447063639764121,3.0500000000000003
0.14723682279047354,-0.04617575747765896,9.851512709965862,-0.004738668463983596,0.002115908213832919,-0.02277940297690092,3.06
-0.11866255536642914,-0.05925641295486914,9.71562720970771,-0.006962971225947692,0.0005479952199673094,0.005052087466499136,3.0700000000000003
-0.20591949257481318,0.012526165025096559,9.793533580162755,-0.008225458352147212,0.005857372727141001,-0.0038750663431384585,3.08
0.014818914502745693,0.09120997047092053,9.829046472819321,0.01442794238392721,-0.0080625474141781,-0.00930587091216711,3.09
0.1091317976598742,0.048713364171473476,9.951089921551779,0.0013420141735125091,-0.0006257195219059276,-0.014441440666433818,3.1
-0.14773838365855882,0.08597343191046343,9.739440938984547,0.0011099133177730409,0.003012191647745019,0.006744918399323126,3.11
-0.11511493493098301,-0.10483112975523179,9.810575144845124,0.006592663612383607,-0.010417338044139211,0.013871196436452442,3.12
-0.04052159927635704,-0.16076868987893533,9.68681517021402,0.0015456792813552612,0.010069340800231101,0.001921656808577428,3.13
0.022519062417478662,0.0475002034176366,9.821020163812943,-0.004929763262133954,-0.012190076973930796,-0.0005734994430268935,3.14
-0.03334155748841461,-0.20053956404175924,9.763172095647008,0.016275062823813326,0.003509978316058212,0.001524339096731878,3.15
-0.10324054610349452,0.016663128970430683,9.831477119987465,-0.007260375802460837,0.0022050282864505767,0.004816649065969664,3.16
-0.07654426544946652,0.10347264135484768,9.792725560895445,0.01152284658260996,-0.0042830444501136935,0.005707718236320939,3.17
0.07172096714277125,-0.0014396233135504704,10.068627455682202,0.0021487908937004347,-0.001848900134285959,-0.010139751445012347,3.18
0.03410760819468845,0.09167677245456934,9.796790881531303,-0.013182309900799561,-0.0003657367077113291,0.003632896961664035,3.19
0.048546394953412106,0.14937202653936263,9.884984890835991,0.004183232489831918,-0.008809556782969508,-0.005979270617435262,3.2
0.03778585761531817,0.14610311342767945,9.879352495693784,0.005783310850658486,-0.01196301881406993,0.00030928155842455276,3.21
0.17520969246852433,-0.013839675007926593,9.798568476286801,0.004696353223338186,0.004595108745302369,0.00022357161952132716,3.22
-0.13440355030803106,0.06026078941905425,9.826760930857754,-0.010660373303980522,0.0004947238859746861,0.010143109590110461,3.23
-0.02488067098544028,-0.21879200674660848,9.893269548089384,-0.003006058704291226,0.0024098633662202433,-0.0011024089902841744,3.24
0.07933399881945187,-0.1982552345335155,9.874089818782261,0.007645861068325503,-0.01346004238718513,-0.008857257274649019,3.25
0.009999255122860554,-0.09266652408341707,9.94734120591871,-0.012230632106933292,-0.00959640592675631,0.002766948603891448,3.2600000000000002
0.00014513294511212186,0.0016185119290215108,9.757425992414412,-0.007292288841046592,0.011638850895098052,-0.0012148405030968324,3.27
-0.05080854597693879,-0.04987441016981925,9.85207128743606,0.012815442387633083,-0.014753233231336444,-0.011036423659658267,3.2800000000000002
-0.07312560542602768,0.0194788112216694,9.640573459415974,6.786027704393505e-05,-0.0013569548416609727,0.008532978677568793,3.29
0.05599442885175368,-0.051488648189614176,9.73112885922476,0.010517563463098008,0.02174369548802329,0.0003367403747680768,3.3000000000000003
0.046810655515003,0.07174519151234825,9.931286568995365,0.018263679451575407,-0.0011468140495153668,0.005707441690291398,3.31
0.011258970893314613,-0.03383809055066505,9.79153900515448,-0.007767020017247061,-0.02038356315589345,0.0180967420312169,3.3200000000000003
-0.007921546698975403,-0.010193039783843023,9.878021473178672,0.008492105240200559,-0.010586604695558829,-0.0035379877779760224,3.33
0.1146574495566392,-0.03339849537662298,9.599757102372044,-0.016230746861378157,-0.010857550434236639,-0.010419469799742951,3.34
-0.09434043513613252,0.07246817549453122,9.773314700624235,-0.009103294658302436,-0.0020214301299025872,-0.01555472104235538,3.35
-0.058325596716319345,0.17233376127836111,9.920460918744668,0.009774025428575684,-0.005395398232123755,-0.009114444401860624,3.36
-0.06810016250529821,0.05176057085793481,9.77892019090459,-0.004259809475194164,-0.0024744056622340795,0.0014351048382106196,3.37
-0.013665438915239594,0.10267029829473873,9.762316083827354,-0.02200083444803534,0.0010594747655458619,0.013742877734087278,3.38
-0.0378029301439361,-0.021545215080991942,9.780250693873842,0.001191023560260087,0.005960043986114875,-0.003823648848537876,3.39
0.016486795563951974,0.03565000559392927,9.862567168494778,-0.015777213166861447,-0.003827322373821767,0.005444337706512248,3.4
-0.2842278268941046,-0.17742517589849996,9.76259745693798,-0.015128922758709503,-0.0009135047877851604,-0.008573463572733971,3.41
0.0513992968930742,0.05598933153303579,9.894261163418607,-0.0013024922413166834,-0.007172516327229042,0.0022055482927027673,3.42
0.029798354889297746,-0.06548928762891777,9.784109250113822,-0.010288112773104874,-0.013872850182453473,-0.00555429750461853,3.43
0.1035324904156279,-0.06654755029871445,9.878296090128071,-0.010317254647590366,-0.006054586781274479,-0.00696661036959179,3.44
0.042556878445181356,-0.10383845473485138,9.679676811162464,-0.008030113787681198,0.0011326154490542747,-0.006066977313776905,3.45
-0.06348357473502622,0.05108543508855495,9.9108539762973,0.011948941152927177,-0.0015225326831820466,-0.007312478375693307,3.46
-0.08377443545670044,-0.0753583336408941,9.766209189178172,-0.0004633335055268773,0.004245145262534524,0.003921407942093186,3.47
-0.12342892722433546,0.04372242766528877,9.816167619732811,-0.021065870920661194,-0.0025685287082323318,0.011676353507263725,3.48
-0.17122422358525843,0.08007335854010997,9.890978302285633,-0.010516622427436268,0.01568532349557653,-0.005288266645203469,3.49
0.07835548649193974,0.06223569303122062,9.85635363025502,0.011989180060212795,-0.00227002448185115,-0.015105584525492405,3.5
0.13435053485666,0.05323538332257737,9.687504126268857,0.022487838857388618,0.0097015958864312,-0.0009291123257431227,3.5100000000000002
0.08410356905673246,-0.04313131753058362,9.790735798128699,-0.012703342318284213,0.0058091899659681815,0.010067144614959347,3.52
-0.09304037765884435,0.07451939101958649,9.777776418209275,0.015417910763152385,-0.002304950384393171,-0.023404784112150207,3.5300000000000002
-0.06423383868980649,-0.19092221781878668,9.909505265531692,-0.004741479316846511,-0.0013177927114208492,-0.0009749852779265974,3.54
-0.014923250686339219,0.01774362606028874,9.801516105411258,-0.0012403342533939435,0.013233185421250496,0.009265757830903968,3.5500000000000003
-0.11288416883971282,0.13812238119196296,9.850905112874411,0.002353049824447103,0.0071395972342105755,0.009957708043710838,3.56
0.1051973598264021,0.2574058087892818,9.882861065989939,-0.004052974558290847,-0.0017880650983907495,0.006587339331604611,3.5700000000000003
-0.013072530262269594,-0.056476179848175816,9.746688932395283,-0.005850724437107455,0.003330297441874135,0.011098968005580797,3.58
-0.11206666650897723,0.10727769312130352,9.732436672092833,0.0013716952836839967,-0.008984846981558306,0.00666971391776335,3.59
-0.18274297473516013,-0.24828084890802696,9.770036003549587,0.0039284505052591375,-0.017166068701116328,-0.006550909825761164,3.6
0.10500704708700635,0.09191769521776386,9.817586775913055,0.018874172939093162,-0.006836514200609167,-0.002324746576130494,3.61
-0.012894489802524615,0.04798761102030611,9.829904047062435,0.009024351139103886,0.007829158541516758,0.011570579512135335,3.62
0.05535654550026473,-0.09672150748735002,9.798508002399895,-0.008945129119604694,0.005207327481548733,-0.015591233832184198,3.63
0.12687671097725714,-0.07065941774706486,9.642812649456259,-0.011304241822810698,0.005119063205598691,0.0057781262026526435,3.64
-0.012934807389090558,-0.0021597652472165577,9.933283917437867,0.006320292629076434,-0.010348045824212506,7.775077867893647e-05,3.65
0.016128230980350766,0.15527601558911192,9.68904534643537,0.00273785996650413,-0.004264708685747152,-0.014032973943480964,3.66
-0.0021266573915349903,-0.20708818536362666,9.809412293960438,0.004712790782464148,-0.00577910042210655,-0.002738358824543735,3.67
0.013804287256367207,-0.1378396483759589,9.763039473646032,0.012525445055445804,0.007330069137659227,-0.016362007029240375,3.68
-0.018616434843559914,-0.10441370968723201,9.947342856105156,-0.003742358117657377,-0.013421924246088924,-0.013434483179991857,3.69
0.01621240300951157,-0.17630398101974365,9.947323635416305,-0.013311768648617281,-0.023448944364960814,0.0019241509298688192,3.7
-0.172901672701171,0.18375937914481155,9.79130742596481,0.003970408845854742,0.003317105428288968,-0.001144467062638234,3.71
0.07322455007819377,-0.06970191277368648,9.99953224776795,0.0007829578543211449,0.008765767473481326,0.003262238525057829,3.72
-0.037365377296519446,0.03286392853870187,9.751848624860523,-0.006486568221802352,0.006562716060035572,-0.0017913014824581595,3.73
0.008260273378143486,0.0167229396882682,9.92129088487227,-0.0042604453339839,0.0039051903028773593,-0.014074408019826647,3.74
-0.04777311499926898,-0.06249548431194934,9.763279925846167,-0.004622686788384096,0.003592012700002908,-0.0022649696463418155,3.75
-0.026838911791717802,-0.024280354986760025,9.869529031478928,-0.0034400658151558577,-0.002026320107459855,0.003616646451021327,3.7600000000000002
0.03164110012845541,-0.014959326769212453,9.791618702598987,-0.0027372010110864255,-0.00502048047408355,-0.005554598333241135,3.77
0.06665291468891969,-0.18463606892238607,9.833696404780103,0.009883623487951958,0.0177688200148308,-0.00631899668399036,3.7800000000000002
-0.14038796032252804,-0.034729588808490426,9.971617440014155,-0.010555858543684453,-0.007761957293025752,-0.003363594676955283,3.79
-0.03928023302212284,-0.11882064794177194,9.85417751093914,0.013308590573863459,-0.005876519399576851,0.006819844482079582,3.8000000000000003
-0.025173623276865478,0.04372453189612907,9.628419717318327,-0.008130678170404245,-0.009384113193354754,0.01131825133003469,3.81
0.09980428149688195,0.06328529890888594,9.76467382736488,-0.0008738196085413015,-0.007198008761803012,0.0033789371488705294,3.8200000000000003
-0.08804513800657415,-0.10187249213234616,9.9488073741725,0.019054690566970154,0.0008393814046914001,-0.009137702624377459,3.83
-0.10283171078299516,-0.031067435365639662,9.80481531242166,-0.006103078449423033,-0.02115421578085937,-0.00518356479026144,3.84
-0.08529552024654576,0.011591637656293508,9.725969969638117,0.013119042539813002,-0.01426617273531586,-1.159457767236705e-05,3.85
0.13810910941357735,0.08542087779873077,9.895835954850051,-0.004563340690781748,0.008948903034242698,-0.0035983131302834977,3.86
0.19545096201329196,0.07787609378389193,9.793156477815382,0.006381302621181329,-0.00717496809379499,-0.0020251147192894997,3.87
0.018426846309611125,0.03376748460354248,9.849120755903304,-0.02042794814820765,-0.005661618477860494,-0.006169505465072198,3.88
-0.12875553374857837,0.16351341014219878,9.845527358378595,0.002767867651277623,-0.013459552642500856,-0.0037036395865758876,3.89
0.05263146003347592,0.1492326447337232,9.941314586857661,0.016460990035093017,-0.005780274526021959,0.0073364407632239064,3.9
-0.02758342372425899,0.06741434430443995,9.905000223431124,-0.0014816208724832405,-0.0047039295738981034,-0.007256033603109922,3.91
-0.0022153727886871943,0.03452222772559189,9.80683696853803,-0.0015467729529849553,-0.021140941965340557,-0.006438214272421173,3.92
-0.03548653971263801,0.0777553694921752,9.898459183795019,-0.009562251946127158,-0.019036373711667637,0.010084843090675942,3.93
0.04082376622515243,0.1356121030884003,9.85870983844693,-0.014196323181476107,-0.0021311062971089917,-0.007596709671473091,3.94
0.058175123846549465,-0.008930114409120135,9.693488475929572,0.005243775548520282,0.005100977569245624,0.013351995103995425,3.95
0.02234431377377908,-0.07011824330378429,9.888773477134116,0.0079141698630057,0.016778364976631897,-0.0011296818167221495,3.96
0.009698371419721916,0.33291330543319175,9.844397400634392,-0.0054875901494845815,0.0010237198198704755,-0.008806630784601093,3.97
-0.017668238281677254,0.04777806969460799,9.745361237762602,0.002472889799846849,0.011404273138021082,-0.012775776286064975,3.98
0.15323293045330544,0.05244625489290505,9.9607936501907,-0.011246202863806003,-0.0062297557535751745,0.014058557872903612,3.99
0.028729743113897872,-0.08154156702719025,9.867572861352329,0.0006169894486225376,0.023783140533004003,0.011292716585224764,4.0
-0.06367085623560371,-0.08501221162275656,9.821098748382756,-0.002443311313927988,0.010559970642599763,-0.026605961672477862,4.01
-0.0043880637533613475,0.10454956799295122,9.800376161677326,0.010214808723336553,-0.0247176941469603,-0.008484256087800283,4.0200000000000005
-0.015166997008498684,-0.03233744869941314,9.965669284093089,-0.0059385648451196135,0.009572405579093637,-0.0001493917437365425,4.03
-0.19382032769090485,0.02827258017349288,9.599447286584184,0.003888868663345955,0.00246438984083683,0.010961072628873027,4.04
-0.0876348600805992,-0.03448955300222499,9.729255499258471,0.007089815955881619,0.010343523005864575,-0.014789134709599328,4.05
-0.08774538961541414,-0.03420458973514367,9.831051282537334,-0.013766744535360838,0.0002627788635789061,0.0004518422580300366,4.0600000000000005
0.0006873412149921835,0.03970154705596068,9.872581657797076,0.001427143808515682,-0.012314144567497133,-5.4404141431866926e-05,4.07
0.23271629665661014,0.0900553363532069,9.778952703238978,0.007975324284860892,0.0017210625732929196,-0.010230002120197802,4.08
0.02876521664949654,-0.08560209297830718,9.942118823279115,-0.002504257804613482,-0.0054152743205978385,-0.007708029118891537,4.09
0.05317617370105679,0.0030309253201498956,9.675515743453383,-0.012461195591788463,-0.011176938219840787,0.009182975128914143,4.1
0.17892411468828534,0.12147838903178182,10.024028312771376,0.01033017484349414,-0.0056987189162243405,-2.2617038143566827e-05,4.11
0.07096815391122376,0.13753702215270308,9.978393927344833,-0.00829967360656551,0.00550854120399429,0.01040816087668052,4.12
0.13955322558214264,-0.13684733181832912,9.721910665727476,-0.000811013221833031,-0.008546479609991504,-0.009726505664723245,4.13
-0.019419723509978237,0.19924724503331076,9.575374204625222,0.010321156817541612,-0.011064703947904877,-0.002618739824510772,4.14
-0.016108250926362516,-0.06179079278163599,9.73459270622504,-0.006561086471244628,-0.00704716141135583,0.0005842033191957968,4.15
0.15390660409116186,-0.021571299130754798,9.711670270327907,-0.011109428495045957,-0.00017388983464763417,-0.014191937264372286,4.16
-0.06615196019514916,0.07688956556467416,9.587566104570485,-0.008807946563380239,-0.0062799898085191585,0.006393257987885829,4.17
-0.020602123184021617,0.01639030464794184,9.906820829232048,0.00016840148199706885,0.0069691240841603845,0.0006886896538259987,4.18
-0.11159401034707528,-0.02994439413658936,9.734929839695628,-0.006776749131357309,-0.012039541622233408,0.00128012891030604,4.19
-0.02747788209813632,-0.07052091591809503,9.82631134972191,-0.0004675902042888732,0.006805808138372937,0.003310229267822915,4.2
0.029860427939691778,0.03865059110497311,9.757538130825418,0.013100206176879637,0.0020404364211507454,-0.00845448645966316,4.21
0.12580574611563647,-0.011940673703802166,9.756274480601366,0.005791592415489959,-0.00010957116255563669,0.00461512164690845,4.22
0.04400055892754969,0.022496253135677925,9.800159321553519,0.0056904396793174316,-0.009136927098922821,0.014682070984623435,4.23
0.08340719376506225,-0.09716121057287319,9.846888823008118,-0.012572981266624239,-0.018198018643653367,-0.003262019191734184,4.24
0.03406551252371042,-0.05244109339015121,9.996301831117881,0.013286400939112297,-0.0054534170548627085,0.0013030458704241339,4.25
0.17995597782736092,0.030534381040825044,9.952509246012264,0.027182387408336256,0.01939597152936324,-0.00881897344391784,4.26
-0.05083721135027668,0.09452656085458645,9.771699950201057,-0.018080364495463182,0.004654249183616432,-0.011657567019120756,4.2700000000000005
-0.004874400133516397,0.15285953209202427,9.793553485626553,-0.012069192885083407,-0.000873535061485045,0.01415630111667906,4.28
0.002627950484608405,-0.14333273013989573,9.661949726730485,-0.0015489507602480196,-0.008564372768742426,0.005553452116525252,4.29
0.10825657773143503,0.21147819125036268,9.878697138939081,-0.0025191649468897705,-0.008718793815755927,-0.0051080347792165515,4.3
0.06895217985121796,0.2216125738855752,9.815261389746135,0.011950375749481726,-0.0124031583021561,-0.018666450530417444,4.3100000000000005
0.029553858532176625,-0.04494410325071384,9.614016853732275,0.0005142041265206114,-0.0032764729179347854,-0.003907308550346663,4.32
-0.03409361307977148,0.082044279439562,9.919235790120378,0.0038022956219294097,-0.022267637936735755,-0.006963326096011257,4.33
0.08014660933268779,-0.021129368395853762,9.858542280316462,0.009689692927245785,-0.0011698223511793036,0.003305456335191309,4.34
-0.13893455627064452,0.042022955692639107,9.939435157230223,-0.00013540928291277862,-0.023890330578773857,0.013183226369695282,4.3500000000000005
0.11020465287581159,-0.04361766448493124,9.954891882538666,0.0023094479131915762,-0.0013517076099276008,-0.014775542003169759,4.36
-0.10631877504564974,0.03945621461500611,9.918875914232588,-0.006152084906149168,0.005947852438933038,0.009626828773094663,4.37
-0.02669909401095763,-0.2753510175063861,9.840195090824272,0.009846987737316536,0.00425099740233571,0.005678778300035096,4.38
0.12673426795692713,-0.02119904123727069,9.836532099767812,-0.0027552035770954182,-0.003391207896016444,0.006039167186171451,4.39
-0.03898102026737839,-0.02474657664996773,9.792883846588634,0.007210599382371655,-0.012018215362409124,0.004901731782311684,4.4
-0.09515489326311309,-0.18491347585657641,9.656971930410904,-0.007743287169672841,0.006933120739060914,0.007494809937317416,4.41
-0.07316864902210383,-0.07889518226564643,9.965792805151626,-0.0029837764317761873,-0.00607879440320772,0.014596663486307154,4.42
-0.026274394479984767,0.02587032932839091,9.70249570079303,-0.00299431416521122,-0.0010057328824865808,0.00877462058578811,4.43
0.006843748415532598,0.10989189881090565,9.724692359652362,0.005949147706480365,0.002252138711150251,-0.015436273538540187,4.44
0.03761901006171284,-0.21110094977937052,9.67238723536614,-0.006944044785259835,0.010688436549578859,-0.0012603321732897951,4.45
0.0145650908901274,0.1265708610779638,9.642889482296711,0.011569959425727711,0.020886046145832622,-0.010338481885838148,4.46
-0.22174156307375725,-0.10681228111504787,9.813022565512705,0.005245210001943567,-0.012347833870920429,-0.009445243935335993,4.47
0.02540707827348267,0.014115260812537576,9.72967559442016,-0.004305370594465306,-0.011058272450808952,-0.008222190471761539,4.48
-0.056310699487067954,0.008007186625605414,9.774349533574188,-0.011345357495415575,0.012223454803292552,0.016040540838198905,4.49
0.009044718423825334,-0.005716422945484582,9.790303718316164,0.0006406334278055947,0.011329543245791723,0.006664972887913193,4.5
-0.008268226714949893,0.0320329105709009,9.63942945904956,-0.0005941181002346224,0.005581425921896307,0.0009293120466043644,4.51
0.01648747660107738,-0.11418650954636536,9.70414073428013,-0.0013488013418522027,-0.014019614250788749,0.01004625746154402,4.5200000000000005
0.09326722741205135,-0.1075220436033483,9.83006931576127,0.003115818621698344,0.013107930224411646,0.0020054407430631586,4.53
0.030846354487447932,-0.10033288602774167,9.71928090990587,0.02103304768249362,-0.009906627636887374,-0.008067842765294254,4.54
-0.11492901583552712,0.10424540831265704,9.758249246777723,0.002819469775885573,-0.007537005113101145,-0.001030014997455219,4.55
0.036514831578646816,-0.10905474631020853,9.956769866310754,0.0018506894395831795,-0.003665654553993208,0.0031631139284233434,4.5600000000000005
-0.24462478363055862,-0.058477875439513854,9.901227818193481,0.008560948474072266,0.005207803344612303,0.010970345145976466,4.57
0.013391597208430032,0.15629787467506695,9.853656987303838,-0.0025583746315861623,-0.0019157430683987922,0.015464478208714627,4.58
0.09610707001453384,-0.019594217090899094,9.66656527831232,0.0013504801075767106,-0.011708515026764083,0.002459525105610151,4.59
-0.033389551693722416,-0.07269936554953385,9.925714841532256,-0.0004905892197789128,0.004562561410656209,0.007576343435367218,4.6000000000000005
-0.024973190201138078,-0.03932581293287962,9.780166985367378,0.0072804964292800456,-0.0003675169346984715,-0.003824081948624965,4.61
-0.024845886202999184,0.028685910361351343,9.841780101225954,0.006507675235812509,-0.0010285365062358699,0.009007229008380977,4.62
-0.11245958073117529,-0.016817698588784083,9.648822935722302,-0.01962213541294299,-0.003103734401974644,0.00937785517713692,4.63
0.013501094215856763,-0.005110800107403559,9.783261964766256,-0.0036321825708617167,-0.007791940263072825,0.010959660967055893,4.64
-0.15173408649417575,-0.03708490877363493,9.668889290036436,0.010264123616165195,-0.014202823816667766,0.0032239316007441872,4.65
-0.005440812627494428,0.2315396216559821,9.76819022455099,-0.00749389167979533,0.0002515178592880626,-0.0012266966723827406,4.66
0.0498500930601659,-0.21326213863171253,9.583085070398948,0.008567744181756673,-0.002378717972238254,0.013382579331870604,4.67
-0.03993363628544586,0.0036961754904527725,9.642916945345664,-0.007219974128149406,-0.0005985627645607359,0.005762387907118611,4.68
0.23596732746464172,0.09934213597219306,9.944034597866429,0.013611282495122865,0.007023697866207394,-0.00712078942856738,4.69
0.14862391481997936,0.08139494538802877,9.809670406019704,0.007779455086665289,-0.01563135908301076,-0.005463485715455025,4.7
0.0016985155304926815,0.09077722616663825,9.90869347858764,-0.014783031848515595,-0.010118890290747772,-0.012643669787730863,4.71
0.0677257838719943,-0.21004090165170775,9.753551539872792,0.014933323797619505,-0.010264699668394144,-0.006386769111955514,4.72
-0.04448848407225366,0.1095109373657829,9.726143105783772,2.9342051503658697e-05,0.0027847495091843032,-0.0012512921146679604,4.73
0.01890409147208182,-0.0173830416124416,9.740599796697122,0.005264116677543787,0.013367812514374114,0.005681925170967704,4.74
-0.035522554278996504,0.14689212702523688,9.790101493349813,-0.0007934967542374172,-0.0024902569017121417,0.005707339286448224,4.75
-0.07264237949194305,-0.12142147977240592,9.77630852219624,0.011971973571181533,0.007210545435119557,0.011535868536404379,4.76
4.2162154565694735e-06,-0.02414355040751365,9.811514314732554,0.01506082973512561,-0.00280858229689079,0.014715172546899743,4.7700000000000005
-0.14869524635021067,0.0476227658496217,9.654712232646558,0.003422881392395165,0.014710900833631897,-0.011515263559426265,4.78
-0.15733943865191927,0.11308687249317372,9.840295892184155,0.007764498493467567,0.02282122805047894,-0.0065801321539528754,4.79
-0.09924093262784023,-0.0324183671582216,9.768088310742721,0.009036898453405516,-0.0005497418559956683,-0.007054888433729375,4.8
-0.047175079350561755,-0.11388953681789071,9.886168828281683,0.015288885267407586,-0.0020475757674330484,0.0004567741562584559,4.8100000000000005
-0.05962081126150438,-0.052163445066921436,9.844286540167339,-0.0035868943322990778,-0.0013505052415315316,0.014672362610269963,4.82
0.018302632167931526,-0.02440843858690335,9.788549213591061,-0.004786202866807066,0.004706288662375813,0.016631206420151576,4.83
0.14478110165920866,-0.07273593292507229,9.694507371874113,0.01322268928170943,-0.007471651621407947,0.00847879272972858,4.84
0.04011544204143324,0.045828459098306414,9.707833534100782,-0.01028780040695303,0.008878611757822431,-0.012303766828648898,4.8500000000000005
-0.028392901215815492,-0.028123326903367024,9.959760786451763,0.014646597256572427,-0.0028415862832585326,-0.0057078450831332265,4.86
-0.12643794599948452,-0.01358016485405257,9.745487885043444,-0.006610030598059609,-0.0019563787516135795,0.020245777329963573,4.87
-0.18507184050139044,0.012963151806983073,9.89182373069562,-0.008172577083582672,-8.03157642010749e-06,0.011221909315318244,4.88
0.014705999365739865,-0.13873431575175885,9.790524279618808,-0.007104707595235956,-0.007610358990648416,-2.708761454085252e-05,4.89
-0.020253503574004753,-0.0004563030953743353,10.02642689187156,-0.016525576686550716,-0.012867152919115046,-0.010463365568632125,4.9
-0.12274922249349945,-0.05154899674038541,9.858358755413196,-0.0037637108790703117,-0.005293797984071655,-0.010530164200347905,4.91
0.12418347890274979,0.04130811214022558,9.790488389470354,-0.018247372844943703,0.011245344882941493,-0.008331543760550033,4.92
0.05117627286483263,-0.005295569968307375,9.842398073682968,0.004180653031005154,-0.0045970945770141495,-0.0029125716813861173,4.93
0.16876447634766836,-0.0022591585524660883,9.892674540430123,-0.01457058122275086,-0.03171499683147801,-0.0028978961835646544,4.94
-0.03795534071095102,0.061844831995347016,9.694657101234725,-0.009419544628724836,0.007909331904045892,-0.006120693341351113,4.95
-0.05067972945402216,0.004727617401216514,9.806439805826171,-0.0012266877107321276,0.005624186143812804,0.02870961278429458,4.96
0.17087424380495508,0.06883977242656096,9.80385508072465,0.0034757825651022985,0.018483198165158834,-0.028190417578812778,4.97
-0.02405926820154297,0.05896299852713808,9.884392205720001,0.007616562275936543,-0.007969511649098758,0.009148023902048328,4.98
-0.04656429900265085,0.15552103970243267,10.001480932998637,-0.019561291482904922,0.01370047355740162,-0.0008633162069745504,4.99
0.013710710180658248,0.096278951495981,9.924985954917759,0.0028048962924028522,0.010518767461923801,0.010217937864912601,5.0
-0.05926774671709818,-0.15997884917797353,10.030905826742703,-0.0028142362706889126,0.004348086415201776,-0.005020632407197713,5.01
-0.02148882496672512,0.09796097488979864,9.792651356977357,-0.0017689235330552902,0.00400205613262774,0.008731230648351056,5.0200000000000005
0.04086613561246484,-0.058366298926979136,9.976547586963065,0.0025447829354312136,0.005310364289001391,-0.003701461631329831,5.03
0.2518113996338657,-0.08167482397307334,9.811734041667865,0.002886463952963093,0.010798412293327063,-0.005485165139147457,5.04
0.05073355956507119,-0.1518651892995061,9.863926193249137,-0.0005092954815974969,-0.0063192658977158905,0.002353036647177031,5.05
-0.06561152731755614,-0.010908635765313753,9.87544815079541,0.004105456694385042,0.007149417736293431,0.006425648623618552,5.0600000000000005
-0.19898926523838326,0.020238638721798992,9.841414652776482,-0.00451271287457578,-0.00296577569520393,-0.005373826841929265,5.07
-0.09497157594704386,0.006005956000165657,9.693938802407596,0.008589560133436747,-0.02577629962891416,-0.006368241733718442,5.08
0.013152690412291902,0.17116797288743013,9.72076497639971,0.01469198476634769,0.01582008003285074,0.008503105895598077,5.09
-0.03106023229903059,0.022467722203270153,9.6667991304535,-0.017318842235880087,0.005067082215346694,-0.012068877991728153,5.1000000000000005
-0.13791823217391166,0.10325883956144742,9.759199519105785,0.0027126295790891077,-0.0020415195214489885,-0.0032759116075949204,5.11
-0.10490700809299963,0.03515668086797378,9.65397818171207,0.0012354031680441087,0.0092327879650614,0.0085267114015928,5.12
-0.09029893401323398,-0.07602553681429938,9.90587116087202,0.001613634869074526,0.008318869547976233,0.0005741855092873331,5.13
-0.020325924254979155,-0.19318759418547268,9.740396855905145,-0.007568387204991473,0.011461035577334317,0.008836597223682841,5.14
-0.10456239448815847,0.016975284334299037,9.71803795950804,0.015535022688270554,0.0021471888715387482,-0.006054101152076293,5.15
0.05632714702406047,-0.047244372222968595,9.966354127713347,-0.010748431806694747,-0.00011908621493194405,0.005767919773131587,5.16
0.0036027812684949617,0.030250309066360566,9.894935395146023,0.012511337076446872,0.017224978969682267,0.0033221907137458897,5.17
0.06660634809351852,0.10384032583194099,9.846840094376294,0.01603927345176483,0.0062560901831138025,0.007244792531638832,5.18
-0.0002121046666226576,0.11619701966087609,9.954275145344559,0.003841603625771086,-0.004880227424564886,-0.001591579066664369,5.19
0.0028568486345745673,0.02887466581998129,9.93457969097192,-0.015137534496994601,-0.003985147551223752,0.004889388527433891,5.2
-0.016644675953865373,0.08515599788445465,9.673415650768126,-0.004526528625088936,-0.0023553216687556893,0.016995106640995673,5.21
0.03095046278516388,0.08620291305859656,9.67830474438455,0.00790821237715991,-0.016949986150601466,-0.004945242092299852,5.22
0.1784626035594875,-0.04355755722305625,9.76986385131024,0.013629930725929973,0.026534139318960325,0.006561118273427153,5.23
-0.03581328454005229,-0.11904009049908598,9.779055242559199,-0.00024954707894897033,-0.016667287020521223,0.006623007323742733,5.24
-0.19611483831361082,0.02702305609905042,9.770445752509579,0.0009835621377800757,-0.0030918950949430806,-0.006139728295066006,5.25
0.17978851362396311,-0.15785854585779877,9.737244098059989,-0.0007698445034875891,-0.010152173321993955,-0.0023264617129989756,5.26
-0.15138918550943173,0.05912376373580572,9.844326443203911,5.108589440397859e-07,-7.200014032847787e-05,-0.014678475937719562,5.2700000000000005
-0.1427551143189692,0.022561862489130648,9.897790654054184,-0.007381991639062725,-0.011967151705630738,-0.003487806712526734,5.28
-0.030966040387356404,0.01035021616716273,9.799171947349487,0.002730712057204392,-0.005848127644261822,-0.006327047284469145,5.29
0.1455928143653371,0.0016263784649797144,9.697669960750119,-0.001026654093286426,0.009951184674403847,-0.013671943797377531,5.3
0.13520659763990725,0.13625078236026986,9.682680457283963,0.0010714349747775736,0.003582499624839193,-0.006927455444669696,5.3100000000000005
-0.020822964767651112,-0.13255945309167527,9.727285192443663,0.01307152863438443,-0.012598885495304293,-0.001887789153396217,5.32
0.1875012809282769,0.04613710488429861,9.851610567586889,-0.003935545489163459,-0.003001136358640065,0.01588986353130808,5.33
0.11923379591086503,-0.10330240987622215,9.917459074531322,0.002453358299751955,0.004492139768259382,0.007801043314805975,5.34
-0.1053609722139223,0.052385195310636914,9.915101053508113,-0.012968013971118113,-0.009076712262011554,0.0019866164448161055,5.3500000000000005
0.16862889574954257,-0.286800808719573,9.740882349768802,-0.0020012283569817886,-0.0032539531436754083,0.012167921286646897,5.36
0.10172759296592762,0.1712194796236834,9.747932490108358,0.009919368225541661,-0.009198703333206505,-0.007199705035692804,5.37
-0.19944492276490142,0.03447166953974528,9.986931647359635,0.010315344747020077,-0.010847130984404941,0.0032912040341212573,5.38
0.030863136437406964,0.008616282893472039,9.855878177593945,0.0036678344339434545,-0.00962603317963769,0.006194493736220995,5.39
-0.04256970928113343,-0.024164491016223283,9.917244159240015,0.0011301431336983327,-0.011740273422257703,0.005075478892815941,5.4
0.07879574484621278,-0.1584072402663601,9.899348631542823,-0.013283521859703159,0.0009530203335937264,-0.010842499709677902,5.41
0.07573619706440879,0.07546837758760816,9.746823561872691,-0.00983191799022424,0.018544329658798236,-0.00453753448739784,5.42
0.12283531927325264,0.042466063486674144,9.815293683901702,0.01940433814925943,0.013580790044311328,-0.0016642468147892002,5.43
-0.025990091573579843,0.1218002254513356,9.820725860391079,-0.008720949267089663,0.005270523515962394,0.011564140393828075,5.44
-0.0903368934995304,-0.03228557125833011,9.904574257353534,-0.007491686544228489,-0.002593627252787889,0.007764509289900761,5.45
-0.03917530049751621,0.009077940929476832,9.710291914871613,-0.009102435316502405,-0.0018417878725033594,0.006044598101606084,5.46
0.16492116080929314,-6.022331030230681e-05,9.998204882815738,-0.0026903457267325828,-0.007078153856524748,0.00567861485691613,5.47
0.03862938090266045,0.030059556322145853,9.737847501859676,0.0016176139454057983,0.002120186041490394,0.0005809207816300384,5.48
-0.09413076908354377,0.07506007391769037,9.744815992809327,-0.023192076009510617,-0.009997504788397608,-0.024320967609942748,5.49
-0.03424788721466628,0.2001970788476386,9.804085176268766,0.001501424884004775,0.011989225264074803,0.009160622623267264,5.5
0.11666367788812981,-0.16702638226841648,9.783462694650977,0.003831073765831707,-0.004268301127821704,-0.0014478900136468654,5.51
-0.07380717297434643,0.03892966536838408,9.924230242631076,0.0033753372158044463,0.008176628450278776,0.0034726205367093814,5.5200000000000005
0.09719959458504102,0.015502248170635405,9.852270022361665,-0.007178544085819926,-0.0023045529500693492,0.012945362954265629,5.53
0.11504016046191844,0.0482234358859585,9.699733160673594,0.0018933422565380203,-0.01457299041910126,0.006639716383970285,5.54
-0.08828698103800707,0.0028967797841093186,10.038699942626009,0.005389265012361011,0.009671075563066239,-0.005587350086172483,5.55
0.07783216351720992,-0.14025999502458664,9.858769605838232,-0.0003844122935325413,-0.004032979457546505,0.009677523464306573,5.5600000000000005
0.10515313681932642,-0.05015845300242418,9.81477640290512,-0.0035454587930362456,-0.02122928549796716,-0.004529747466927524,5.57
-0.1326447647018873,0.02834014809078273,9.848206176662432,0.004189462232255538,0.012234807238593482,-0.00559737579724754,5.58
-0.1055440140393706,0.12519819807203258,9.794498533979173,-0.0005146445850610555,-0.0016856161266852016,-0.005045119711506673,5.59
0.05373764108217602,-0.010490787397853304,9.884533691993251,-0.0006363405032399801,0.017800558968598702,-0.017180954539670498,5.6000000000000005
-0.22619220511600313,0.02869528927387063,9.880196563701746,-0.004732694565434428,0.0163922904309332,0.004655383348842998,5.61
0.057565151091590584,-0.05605898766934574,9.834750120430115,0.018628256477862343,-0.0032380734627048724,0.007060903797671551,5.62
0.10173390649543912,-0.015202010372245259,10.133408062479633,-0.019471159215595984,0.00598312125338651,0.006717486402281687,5.63
-0.11296810250490673,0.10292932932077224,9.907084819820449,0.009373748374298023,-0.008987824068831085,-0.003441633045593907,5.64
-0.1436901012861451,-0.05927209197277682,9.773912002033141,0.003035591669988137,-0.015283986752022494,0.010665308699251709,5.65
-0.18172460119717634,0.11909904238426139,9.784960877705124,-0.0006314284761790196,-0.007820458740700802,-0.016210093934579613,5.66
0.029604932948173873,0.062182481742039934,9.865340017283136,0.01746811921648094,0.009688778159161757,0.013108084542159074,5.67
-0.16374097155082393,-0.09160856780903143,9.809487382730056,-2.0885677640229615e-05,0.00028069083538755926,-0.0018301089034839866,5.68
0.1809880875012615,-0.01850433154062539,9.81897835150096,-0.005164778610692266,0.0015809904991343562,-0.009093029296793701,5.69
0.06968994803074835,-0.059140924972519576,9.682045248227034,0.0004530627152271257,-0.005253843131404217,0.0003187965924267327,5.7
-0.0997915625802594,0.12574058568193786,9.899932903548628,-0.0031255308246027004,-0.017068162844395333,-0.015370318810472882,5.71
0.1462057227534098,-0.07607467524646983,9.761534329174143,-0.010625628017013578,-0.022326176666722077,0.0004945034091996636,5.72
-0.13177195639227965,0.10876859317772634,9.856163675831574,-0.009862797614487568,-0.004301003148437258,0.01462471431572604,5.73
-0.02488984578044393,-0.10063013223150348,9.754888112028706,0.0035222636554991756,0.007800323208420666,0.023183819068441306,5.74
0.029455122964360276,-0.2268391146225373,9.967254232944805,-0.006757879722226788,0.010963008519250379,0.01205015327418365,5.75
0.08529332758307179,-0.029707023435718672,9.729754908614234,0.00027119267229582964,-0.01214089550263383,0.00021167386895605658,5.76
-0.03242237322597298,0.011640571236103077,9.76949278888873,0.004030509497478274,-0.00038662449524014676,-0.01730135258330418,5.7700000000000005
0.0870840421361253,0.022526949567603136,10.110384627658856,-0.01081355948083981,-0.029584029537181537,0.004192410119607681,5.78
-0.01057877720469469,0.06346733685212189,9.805249864614403,-0.00721518797427976,-0.006689101924216665,-0.006876447515584499,5.79
0.11445162003625949,0.021211886144515725,9.848497107492589,0.0033290800914295916,0.006774578102663424,-0.01204124333067783,5.8
-0.06997714386249361,-0.07869127468805451,9.926767945970132,0.010248619863618674,0.003120126248728044,0.00035805134423029115,5.8100000000000005
-0.16223145153430468,0.01903513971857,9.807245861517934,-0.00020432305324774363,0.0009456675506622446,0.006298336627899954,5.82
-0.10435091988578137,0.015339367910637822,9.820037224468829,0.0042588860595720104,-0.010478167483656861,0.016305602586836016,5.83
0.026212748187470443,-0.04147032036272916,9.892162800080634,0.012699533099539513,-0.0018431610455144458,0.0024648844815688942,5.84
-0.06445127111381824,0.17242380728235818,9.801255512027527,-0.01589545307154617,-0.003715199704294232,-0.008347713720738415,5.8500000000000005
0.16255583668692933,0.11755490952615158,10.072975366962254,-0.014239150734688405,0.0029456175173899913,0.00010457610863185458,5.86
0.04114776458480093,0.006276633228229235,9.916978169238257,0.00648501629330314,0.0015589984699997206,0.007440310381189758,5.87
-0.09489140313008548,-0.00821007145803266,9.829938680708704,-0.008245514931178867,0.011696142349263576,-0.0038345203218990414,5.88
0.11964329534511892,-0.01876094068687203,9.767127796301333,0.008806336251432498,4.669425658290988e-05,-0.004128514978059194,5.89
0.010986144933524945,-0.014022709651641766,9.707513017680224,-0.004555565638924449,-0.008060147002068871,0.005387085714748519,5.9
0.03035752506759165,-0.003958458791443646,9.717144434745745,-0.0025741403253215288,0.008617803263636306,0.014746766769841567,5.91
-0.050145754973252965,-0.22017276658498042,9.910987407897075,-0.01404697621567299,-0.005186195585807358,-0.007459631955095631,5.92
0.02241388774678778,0.038804217734773994,9.930707197296504,-0.0033110673522662266,-0.011558215053917478,-0.005441239526987202,5.93
-0.0529692932532726,-0.04581796450025076,9.797035543894845,-0.01029715620754341,0.016189034192746594,0.0037917460226222434,5.94
0.09039083080434916,-0.17900069917678824,9.892503759631609,-0.003257161607581212,0.00543186410252856,0.0016390908749782333,5.95
-0.04281711967205516,0.03342973110444473,9.68311501153804,0.0073695399010726215,0.00022314161919998517,-0.004015811974369953,5.96
-0.030449723349092312,0.33131627412039366,9.856316846730488,0.01889334945981975,-0.01972032779006358,-0.007519627015509459,5.97
0.028196370746715733,0.012460767245232755,9.855931177547937,0.003961121985446864,-0.0003543456648423476,0.016635203534605264,5.98
-0.05899545170442725,0.04412620824137039,9.75950565686585,0.008643939658682374,0.0001752710857306125,0.020957225646473253,5.99
-0.003958378468886563,0.003783686516146062,9.786766995953514,-0.016517892980074646,0.010184164852917899,0.00827106966229685,6.0
0.0410390504143335,0.06375135212584244,9.766584148175312,-0.023109266683775928,0.00416323739546069,-0.011242273771381664,6.01
0.0025503005033698234,0.09355633145743075,9.78212817008713,-0.008747493258162632,0.013683900312716863,0.0019026787684963003,6.0200000000000005
-0.07891990409688007,0.07150697021225194,9.720267436625052,0.006588185245239512,0.02211856715694729,0.0008743083803054677,6.03
-0.09982076520877166,-0.12801528337481174,9.851169485915962,-0.0013393632286626109,-0.003990084810818853,0.0010078858195165128,6.04
0.10597421147111515,-0.06201359187388751,9.88476371453881,0.006076351153251605,0.004034093900720042,0.0004725797755062282,6.05
0.02551144389185103,-0.06623050265157808,9.762847878080168,0.0020654520771894182,0.009756895770938185,-0.00656458219542993,6.0600000000000005
0.06184447707226696,0.03254510669946964,9.842843605978166,-0.011897867208089842,0.005711916312031009,4.527424863695032e-06,6.07
-0.016957376099682855,0.10154970778445122,9.80265929968137,0.009301478888716951,-0.014390677610134213,0.019317064528532327,6.08
-0.053883785864762425,-0.09867394296511675,9.862208914773047,0.006918830019455496,0.005979583422922248,-0.004069564063985728,6.09
-0.040675514354113214,-0.03904433654855035,9.801103346259156,-0.0038747628336540316,-0.005928944119592779,-0.012531535185963174,6.1000000000000005
-0.04935813039957518,-0.024669037687009406,9.763628834583498,0.003520327200417942,-0.013933592695911184,0.009644105149509289,6.11
-0.021138091765323292,-0.0648060723597972,9.775526437255493,0.01817678890357279,-0.005639496175621193,-0.011012365417493581,6.12
0.016870784885940883,-0.029240326912864986,9.76100908353152,-0.005017392055494042,-0.008326138923820045,0.01400405426313462,6.13
0.05052527704486392,-0.0010319879162380024,9.784990234169856,-0.004307590948586556,-0.0024377701972219533,0.01262987823400702,6.140000000000001
-0.12309768352531528,0.07195305397878264,9.897023158105538,0.0185817012761448,0.003414165464136749,-0.01677942558162598,6.15
-0.04075144534289152,-0.008621015823122344,9.708071729237433,0.014616787078886114,0.012003127874204251,0.010026406815813032,6.16
0.038436334085508145,-0.0057226744401790465,9.570161709407857,-0.003982095167022452,-0.0016774428256493763,0.0037868728984311395,6.17
0.08952292495586611,0.08369579773064471,9.885409380534695,0.00011856736997529484,-0.006213927735854493,-0.012929700465251803,6.18
0.018158438069654434,0.002539378166644693,9.863268803240752,-0.030728602504704976,0.001437553337333644,0.0032895990069665634,6.19
0.021346287345511115,0.15195409119998277,9.762027712989045,0.00408332851793643,0.005460545864713421,0.01204019221679645,6.2
0.02304290523042334,0.11282021351628276,9.970326528223927,0.0124843212864692,0.012443393057186298,0.003484582387687211,6.21
-0.20834994998367176,-0.0572829129958333,9.838362753973717,0.002284564647799579,-0.0012681111219507316,0.009393068039838873,6.22
-0.14279214706599228,0.06853089458334652,9.592327529978098,-0.0031662705661145824,0.004407708591576216,-0.0005236130120849979,6.23
0.029621545637027392,-0.07800428860376703,9.91079308680493,0.002181825442278388,-0.006506091503313126,0.014479229293037498,6.24
-0.04817671413666827,-0.013806199445094983,9.775090613619632,0.008288255977038585,-0.0024157098825980613,0.016896527460845908,6.25
-0.02222558560601845,-0.07137488808588215,9.737398088208867,-0.008947281928107623,0.007890038460495848,0.011955222095296878,6.26
0.03233457184168202,0.02008516782632426,9.674442476582904,0.025830823220397855,-0.009226800090829382,0.002865576860004996,6.2700000000000005
-0.07390746282336658,0.029082925281361985,9.7800413471554,-0.012647324985306336,-0.006444987083925629,-0.01104853194897429,6.28
0.0424643993086101,0.020727076369190703,9.996643790394787,-0.003940478344549924,-0.0027812027289995573,-0.0014643645943992329,6.29
-0.07512796353042889,0.06374293533587126,9.935719861416725,-0.013412220500617165,0.012599132390767893,-0.005122980321027351,6.3
-0.03376807199131126,0.13232621893115423,9.90038290882328,0.02610003920824621,-0.0015989599535040874,-0.0071083565385373386,6.3100000000000005
-0.07539593313472424,0.07245897232953263,9.772944013336838,-0.007770998928719153,-0.0040763517127840425,0.009400512924015874,6.32
0.022662087259373284,0.08272926345000825,9.920791926695662,-8.86086809861156e-05,-0.014732218321437696,-0.027547811027115066,6.33
-0.08796991310482594,0.005778378714484862,9.776948123395577,0.0069475904258573095,0.0035128049463856548,0.001328589426180431,6.34
0.034717756537980315,-0.07418290240130364,9.77867360775566,0.0031644027888193577,-0.0075234985952470045,0.004307880495543341,6.3500000000000005
0.05384092582819372,-0.034088579211927005,9.7491483435834,-0.004606442984737343,-0.0117946986096912,-0.006393816840515221,6.36
-0.06560640702685937,-0.0015691082160568027,9.695926310606993,0.008404323604903802,-0.000963028968963832,0.03110676741933354,6.37
0.03784476304087894,0.10832825017556989,9.67623947177981,0.001960639652496894,-0.003045938107294512,-0.018874026887247094,6.38
-0.037392588941491424,0.0378473458953415,9.880329800679824,-0.020190967660808096,-0.005500874379337918,0.009314502428056653,6.390000000000001
-0.10038758844300369,-0.15804893277605536,9.759846895733727,-0.00039100814628595994,-0.010098781199863065,0.002182692917413827,6.4
0.11812939937916403,-0.12448446065272226,9.866290328503336,-0.0038227560738353116,-0.012462042475498699,0.003737343507169043,6.41
-0.07863872223732506,-0.07995603869145328,9.886101071926205,-0.014603311365451534,-0.007289765340245038,0.0004655700725623912,6.42
-0.16530634931817845,0.02750527467487083,9.721118839897368,0.015298388779215681,-0.0038492493545901297,-0.015128225271560134,6.43
0.10691913802234282,0.020875621695895505,9.641743733049953,-0.02173243109666883,0.012180815140083706,-0.013443453982926403,6.44
-0.006015210935016318,0.06580202445736068,9.812951142614779,0.0033279144883747954,0.0038543067585386326,-0.009865480358346284,6.45
0.21981287000151717,-0.08758795592564379,9.707485336085073,-0.008445601998296052,-0.006734562314657433,-0.0017675796967365088,6.46
0.015168298187417904,-0.1539923717327455,9.864088327738589,0.020615507619356994,-0.008563152711918851,-0.00028132619841500956,6.47
-0.0033059694552172027,-0.009340319052364534,9.734291953388437,-0.012469161872360085,0.00012487959906153627,-0.0016851212473523746,6.48
-0.06724293282792407,-0.006647131040492169,9.87062551203153,-0.005821506632292665,0.0017194811199631465,0.01245680015852001,6.49
-0.03130225697201582,0.08195370438812147,9.73071376973134,-0.0005250508591389142,0.010215535969837654,0.010691811480235482,6.5
0.02053829566748775,0.10919200219668795,9.739239379479182,-0.02683506239349346,0.01695087218980336,-0.0020874269532501237,6.51
-0.06486420424409199,-0.04806352263369443,9.833110914134144,3.296013349090025e-05,-0.0031669829253332307,-0.01401657169208623,6.5200000000000005
-0.10201794961180954,0.027893293292016997,9.759197068166372,0.004765533470686297,-0.007999508970243575,0.00538376991740739,6.53
-0.1294201675098667,-0.033633239852990944,10.01159937455962,-0.010498021484897275,0.0015763666241748863,0.010207924557324456,6.54
0.07959475313512754,0.14037882050006537,9.751925269890735,0.0018906236784863447,0.008463436796419517,0.002805345734361266,6.55
0.12070147608084224,-0.03592292033900723,9.840231554877459,0.006878117612146347,0.006803845232845215,-0.001658093529483754,6.5600000000000005
0.015363935152142134,-0.16946003854613634,9.806244491124602,-0.012812965089971151,-0.008008612050148028,0.0029287463793258974,6.57
0.06353202222398119,-4.7458452420250655e-05,9.653170564250159,-0.002394993308385096,-0.012318082501168313,0.008478830880012117,6.58
-0.1052851776303401,0.03764630684171566,9.840594177189908,0.009752164634813624,-0.005869255134640919,-0.0055416317136866775,6.59
0.08112010914807605,0.07156260504163656,9.756434510091406,-0.008546250032871542,0.0038989788424510894,0.016126149617383942,6.6000000000000005
0.09037266898207091,-0.18449734452649194,10.008245985490543,0.0016805330677028114,-0.004943384521409695,0.0071142383432963845,6.61
-0.13018645750890806,0.08495340922011539,9.82821136484854,-0.010687032154728915,0.01508233478518363,0.006093885657583976,6.62
-0.004383608507240043,0.055535699269455986,9.75095614345293,-0.007778026631599864,-0.004679340044333944,-0.004237130419686377,6.63
-0.11068172583667407,-0.0812055382219986,9.915780540805756,0.004616186691171026,0.005522694250820491,-0.0005804034132009395,6.640000000000001
-0.0235676208391897,-0.027557860620114782,9.635521920872701,-0.015031443688196602,0.0030911696759701787,-0.02960640063329507,6.65
-0.13979638802396782,-0.1608660455896631,10.072314947789332,0.010252446746693676,-0.004273762057093706,0.0027617107673958887,6.66
0.028132710839594885,0.03935453742554129,9.838591589749218,-0.01563921927790364,0.009551628387868032,0.009016041800907823,6.67
0.033351330498791874,-0.08112965329847054,9.643663741905906,0.035054323629122204,0.017701631248193576,-0.0019648718987162676,6.68
-0.017542990519228294,0.027514685908036074,9.767870782494697,0.0001347306440635848,-0.010032935968189913,0.005616461558419522,6.69
-0.010132405768589727,0.13425344432346273,9.647549480583148,6.481041145173505e-05,0.002657096849216713,-0.006106983463697082,6.7
-0.0065321128944368645,-0.01220117174516261,9.800337901560415,0.00711387406197741,-0.01654859512311898,0.015946487291014687,6.71
0.05353292554482039,0.07193164797980596,9.633918372800194,-0.00692759997624617,-0.0027811991579248774,-0.011908844963912178,6.72
-0.04506425863420787,-0.07010451416743564,9.782162323437637,-0.005527525343329926,-0.007190128993278192,0.009982976619520986,6.73
-0.051914795241899896,-0.11151979237209882,9.840489793912646,0.00809966753006198,-0.0009339446847757216,0.026524219081687707,6.74
0.12402619210258317,-0.17107294518970959,9.963309762754452,-0.0005618946228415419,-0.003389880098718552,-0.0017977693174915069,6.75
-0.017463588274087397,0.08271994940159878,9.757772266143979,0.009995311318924149,0.004544408469654,-0.013028740024933387,6.76
-0.17974118981216194,-0.15490155318203125,9.77640154783324,-0.0054495689761782165,0.01705939025139013,-0.022157522880057325,6.7700000000000005
0.024752276821509833,0.19694340156839632,9.775827966909253,0.004379037754175251,0.008363503948543318,-0.007807886501681286,6.78
0.14303234744903615,0.05490248752716163,9.775439732311117,-0.0031084381677733276,-0.0005195996264150272,0.0020227569576582137,6.79
-0.016636778919557713,-0.056251775637432756,9.945839012556858,-0.0014904321726671083,-0.003670730461056442,-0.012845566873549402,6.8
0.0350660336352921,0.11442386475385176,9.874048674315524,-0.004273160822851134,-0.0049259002631105225,-0.003218876864686167,6.8100000000000005
-0.0434031594349262,0.0948471474047155,9.851584275234373,0.0012155635635411946,0.0011532488129977947,0.0018092693871231116,6.82
0.0874789616988872,0.04996774176658766,9.798296825017362,0.0008336441261988201,-0.0009275038241657916,-0.02177502117300231,6.83
0.1410590447297257,-0.0023857531557726526,9.749362120997764,-0.0020945438375981956,-0.006992127915422124,0.0012144552412880906,6.84
-0.019945123470656606,0.05619633279910222,9.761452640662169,-0.0008357830693005164,-0.002117722721226711,0.0016994649726251765,6.8500000000000005
-0.004652093205896644,0.09017885857709518,9.80481982421258,-0.003826713812413465,0.01524641036088882,0.023789302350274728,6.86
-0.04224507201465969,-0.056592815336891436,9.764931119322462,-0.008945498536983213,0.009981396832447443,-0.0004047152027433155,6.87
-0.06725470167774203,-0.028063614360003316,9.669652076169939,0.005171517431387653,0.01328985675157372,-0.012801344281837154,6.88
-0.03586865925057707,-0.06350035713625472,9.763981697855742,-0.00628193836952868,-0.01671977178648685,-0.008410265333954335,6.890000000000001
-0.07557745375541206,-0.026023232230736933,9.945530995908992,0.002904825073550138,0.010411555547296428,0.0009164504132932934,6.9
0.07559333301818388,-0.08248344021522525,9.845310888908447,-0.011361667788726134,-0.016692909019401927,-0.014036599434974446,6.91
0.1155766332536137,0.10069760335696812,9.979803395408085,-0.007231071210658177,0.011806934702009395,-0.0025949535694406384,6.92
0.046696334705488104,0.12961157908812224,9.80548412283405,0.005954069941126134,0.009228566979602157,-0.0024737953288258827,6.93
0.08062650050373987,-0.08830309473389626,9.848374422273631,-0.017604023039767738,-0.006130199336786091,0.0003299325291186412,6.94
0.0029541564759779566,0.030429438387337845,9.803602576970325,0.0035319804479723984,-0.006070646701379393,0.0003367448238316868,6.95
0.017281368156559746,0.06625704521266057,9.710026367432409,0.003484482332366601,0.016514661729948487,-0.016912550754074433,6.96
0.021502650925984468,-0.2166656507720599,9.81308346096491,0.004008019189933639,-0.007733901614396664,-0.010778156409074417,6.97
0.10250660610623413,-0.11710309635612946,9.760004999350969,0.011905716938472786,0.005124543600940918,-0.014226094272086662,6.98
-0.0083173149331256,-0.03167255966762075,9.79337554762685,-0.001299267813049786,0.0031893483582214562,0.009952391965988457,6.99
0.06883860676737741,0.03272571164856408,9.832589263682106,0.006859036330076281,-0.012244803985867855,0.00099782063565152,7.0
-0.14406995155018498,0.04187113499262049,9.800579712036404,0.002474665407370222,-0.0020015775505209765,0.001914468421784816,7.01
-0.12265334512121558,-0.16954522426829288,9.759524649526346,0.005925492126143828,-0.008886313709177682,0.0018420994519844519,7.0200000000000005
-0.12330174274803565,0.019843785965234145,9.892445632715042,0.002947508405861716,0.019954007799135306,0.007359554257837745,7.03
0.1083615622751174,-0.16340926612615872,9.677801765395325,0.008392298362151596,-0.004525359852764776,0.022095711253601675,7.04
0.011155674256477614,-0.06233009439743992,9.926161797412009,0.009625247141504959,-0.005674499863733655,0.01333668734638299,7.05
-0.13890502348922526,0.053888286072321184,9.92511999581658,-0.0030353906997951353,-0.015101100847570798,-0.0054677289686607435,7.0600000000000005
0.019132830252184825,0.007658521056306407,10.030253910064868,-0.004031312361193753,-0.011041681862891894,-0.004761223243569632,7.07
0.0596066830436667,0.004324714857474241,9.946565311687056,0.0021693567934298833,0.010673588227119864,-0.013770722003435008,7.08
-0.1879269925101875,-0.07200088795518876,9.625798149289173,0.010334798094211872,0.0007806959489626101,-0.011685878155051248,7.09
-0.035744713698732826,0.08641047577567207,9.804461625784771,0.0037797566430124393,0.014131857015148111,-0.016195441257331317,7.1000000000000005
0.18528278405192442,0.018953686688668796,9.844950098417222,0.009342871369675486,0.010110557351901394,0.002905897457236596,7.11
-0.11446768523677933,0.1742107733726086,9.723118209479802,0.006945283053795738,0.009067239077943502,0.0011536038461478538,7.12
-0.11519319977564331,-0.1592726394640004,9.703327976931721,0.0018538825849154397,-0.019229447393392034,0.015973261258255152,7.13
0.29539997377976696,-0.11556746470734397,9.799980583376454,0.009437795022300561,0.005186372104003622,-0.006853515479397426,7.140000000000001
-0.008607254085559967,-0.05461822907578691,9.880545352155186,0.009251643732107592,0.009216825772906176,-0.02035314554474836,7.15
-0.020177277972046017,-0.04951485417458845,10.010764764972697,-0.0015834157324580594,-0.00635467800108214,-0.0013936855657744585,7.16
0.056869616468645204,0.09586725352803076,9.66565753985378,-0.0044581885938059914,-0.008226822491318933,0.011185732676148313,7.17
-0.012531493457077325,0.06801349852693882,9.782147870719111,0.005930514737110974,0.027249820842182842,-0.01527061089675206,7.18
0.02514759445639647,-0.021843558839822207,9.807466684757959,-0.01712155100773356,-0.003994360805753971,0.008921657716143335,7.19
0.05106877906951329,0.07509467845937914,9.914763728431899,-0.01552997520244096,0.009364043693028295,0.006730891488332281,7.2
0.14080601039382498,0.02186537647279469,9.731146353069242,-0.021762634935323252,-0.004741995886892628,-0.009256240515820715,7.21
-0.02522479050664969,0.0746625781298184,9.786607391236622,-0.007668953499108296,-0.015621736283806207,0.003483714434410397,7.22
0.004859933807544968,-0.05840692327872025,9.863729438655737,0.006842195610216157,0.009040350327071567,0.009426984112057706,7.23
0.19914378193581486,-0.01308442849190853,9.786138045500747,0.00398159954634864,-0.010221218978016066,0.008641557815972352,7.24
-0.056223893694109676,-0.021327937133100425,9.960126249310134,0.003025216586544843,0.01915065753317418,0.0004142720771151676,7.25
0.15656057581685323,-0.1903583836912926,9.773141057427488,-0.0025567747447599242,0.019489379460202176,0.002364186212265656,7.26
0.10695320820967139,0.011343227225197603,9.66459636746493,-0.017335161504495034,-0.012742449283697178,0.006206312850394985,7.2700000000000005
0.1891896461518514,0.15232323828068886,9.88789523818072,0.007878976866217727,-0.0040988090286115655,0.034074912684333464,7.28
0.00875182965891556,0.047730426363126556,9.701342429261832,0.002304457329164536,-0.0014541343967832457,-0.0003471762015146246,7.29
-0.03913768777207625,-0.16771476791581985,9.915424641434269,-0.00031543711114250883,0.001099482792581759,0.00016919948848782756,7.3
0.03902119384144416,0.03674902844363754,9.8669859681243,-0.0019748290876694776,0.007539486309859658,-0.005359966297552511,7.3100000000000005
-0.02049247126195333,0.07412607361024813,10.0331379832161,-0.00834008504651987,0.004305659460550043,-0.0083644523435487,7.32
-0.04585726302734412,0.011309578851410668,9.802791354616636,-0.005474162021656361,-0.008293061984399332,0.010775956579617914,7.33
0.0395298507945016,0.05447714542514165,9.843083004795092,-0.010087403849052344,0.011632966522614177,-0.0017739890801696117,7.34
0.014829771006346826,0.0327697501145101,9.923886084403522,0.005729409163794051,0.00265287405027629,0.012906565129542382,7.3500000000000005
-0.020898734875876745,-0.16822783202983982,9.65745407774787,0.004902493985984522,-0.0204386864626776,0.004549809444641072,7.36
0.09588224100645382,-0.03580560030978582,9.805945569245445,-0.011290466234953082,-0.003773783175253787,-0.010789134515209988,7.37
-0.16909170886524716,-0.12391609841320012,9.850837354605195,-0.015729591975840736,0.005715420386083542,0.0038884099216963375,7.38
0.15789194204161863,-0.0536239187573488,9.73723835518882,-0.005206778776480215,0.0010687157944469805,0.0038255632398174278,7.390000000000001
-0.15795950315490304,0.07244381208453449,9.943906375171487,0.007779202990610792,0.008765681962553128,-0.0023597896412790986,7.4
-0.0437960032949255,0.05329371327155409,9.86141708121811,0.001782944850456206,-0.004894147433052738,-0.017704572576058362,7.41
-0.07391693372158276,-0.03237386507148511,9.774623820702697,0.00021277927147944484,0.007508838973086055,-0.005734966998262741,7.42
0.20174579928780867,0.12420117864864239,9.761896644057389,0.02164792412054944,-0.013260393198217526,0.007255311692905406,7.43
0.07390481591083418,0.09975518002104675,10.003964331706683,-0.0020268027752591068,-0.0009491470793153506,0.0002041680990189325,7.44
0.0735466973650191,0.23791982055096278,9.824796378778695,-0.0037256836995418073,-0.009885962160354455,0.02497416257291788,7.45
-0.16555048778997614,0.01443484513521218,9.829670618291615,0.0024724156332055673,0.001832199331561503,0.005482285007581167,7.46
0.007900051999396774,-0.09534978715965356,9.833620768473727,-0.00612468151611737,0.004634475354671851,0.0030834351909093333,7.47
-0.05670576514552361,0.1369459869384058,9.609216225705271,0.0011716556860392098,0.007853414917153164,0.01132647762043941,7.48
-0.06606619648605024,0.11756756257665223,9.725112616441173,0.010796283349505479,0.00821131365642495,0.02261127203234043,7.49
0.07586341337554,0.010393161506896285,9.793550756952426,-0.005286170267038373,-0.0004650224801071541,0.02707320700683018,7.5
-0.021406194100580825,-0.15744338111707845,9.737095083388356,-0.0012019776443088213,-0.014137589406405065,0.005163713494108744,7.51
0.04515378383901597,-0.0708643560445532,9.788685776631832,-0.0058748439503812505,0.008773699101460641,0.007225002847365796,7.5200000000000005
-0.17390900912725646,-0.09161522724843107,9.77530053891214,0.0092766638193706,-0.006352950364792736,0.004679484623134298,7.53
-0.206269714444757,0.06271687219906326,9.882170290882243,0.01104722597351424,-0.012012422674213102,0.0009691052479421521,7.54
0.06838029058985702,-0.08597588259993494,9.776187410892792,-0.011268556650154322,-0.016272682437814795,-0.005532428378244549,7.55
0.1019684635307361,-0.06644823984591804,9.906342619097238,-0.014519684174014834,0.009956452309705172,0.006724502994849318,7.5600000000000005
0.08392519719427671,0.15077873217916724,9.813714985436603,0.008524290196609835,0.002547801740041352,-0.0017033428403558995,7.57
-0.08625634345162392,0.020068735495738833,9.8547330493086,-0.011540636153205617,0.008040888877557413,-0.003309795007924825,7.58
-0.08675375786838677,-0.12690140441472395,9.825828503465,0.006281539554565056,0.013675325662981963,0.019773050754250707,7.59
0.1448902579438236,-0.07078369009202089,9.765033873841722,-0.0049524027440916865,-0.0013760373926955598,0.012917881675823337,7.6000000000000005
0.1554421415487539,0.029160573263194878,9.765990867660602,0.0023836753369801673,-0.007454600445003348,-0.011069544885721731,7.61
0.15114512258634702,-0.07174201760835816,9.605742444059945,0.00719347637079111,-0.0032770096829164434,0.003306467132822194,7.62
-0.016933171365072625,0.060977056767569274,9.708639508970858,-0.00031381210300074396,-0.012753755225280834,0.0064325318840498915,7.63
0.05415563428423181,-0.012015145716382443,9.83233728159229,-0.009468351843127651,0.0007694218916792893,0.0056563518352255515,7.640000000000001
-0.0839954002998767,-0.0038894387250157057,9.713261891121146,0.008409933427987843,0.006181797628349269,-0.005790818173968022,7.65
-0.11665670170362218,0.0864071269568622,9.864156191252006,0.004564690470833765,0.0014643712376998794,-0.012427737343639972,7.66
-0.10216842562248195,-0.10550445283267909,9.875426056136716,-0.005418641623909319,0.005082314361672503,0.0038781191922162652,7.67
0.0443345305828485,-0.1504691867192648,9.694030573726627,-0.00034485592480900827,0.006294932738894217,0.0036957330555517326,7.68
-0.2446623334563833,0.08147887897771909,9.666108419428097,0.013876433205247181,0.009695034368564222,0.013519582113488502,7.69
0.18100048385318743,-0.012671772448627276,9.744284573975524,-0.0018191684035284655,-0.0035262660008383985,-0.022080418635235056,7.7
0.04306083185662663,-0.07499168693488292,9.61160895206795,-0.0003339530441709769,0.0024600155678618746,-0.009657717435234936,7.71
-0.03728308043165408,-0.1580020776343047,9.869050065488542,0.003995510043296107,0.005053278588983847,0.007176368937513649,7.72
-0.16792111657531275,-0.03685429550567008,9.83787463708453,-0.021913212004179398,0.004623590896771898,0.010382023642048377,7.73
-0.01598222473350898,0.22341676774686092,9.63732156480118,0.0015574959345118606,-0.023931709341984346,0.003383500688906253,7.74
-0.04780008337370629,0.1035620095343367,9.833310751296775,-0.004427783199863797,0.009264933719629264,0.0011498715429065379,7.75
-0.2604066391971057,0.21798678321024206,9.629031257313535,-0.002189795245736814,-0.0017937265521999505,0.013844736197479097,7.76
0.06872697859276199,0.10874132359907443,9.708469468874542,-0.0012920578369562561,-0.009068068459181733,0.0032459417196182678,7.7700000000000005
-0.0507740794787566,-0.06901587655514378,9.926437223279684,-0.01261032793754277,0.015527209570181142,0.0021873082453382924,7.78
-0.0954125096780124,0.0018997076586648237,9.753827468274212,0.008525417718351094,0.008176220980062496,-0.010589227773718787,7.79
-0.16360812329970045,0.22204713033304935,9.836417933986667,-0.007591353528097259,0.002277186771407035,-0.0027615542501777403,7.8
-0.12327019508514399,-0.03612029574605859,9.88963539543692,0.0008169511203633749,-0.0055004463293683616,0.020174909768058212,7.8100000000000005
0.1498570811082376,0.020470719483665405,9.767439093579473,0.008847908739739476,0.0011753142025262135,-0.008617283590272315,7.82
-0.08957326852338061,-0.09017473926040447,9.796381980112026,-0.0071157995010776125,0.0009403085529541927,0.012652695702660208,7.83
0.028713068478338228,-0.058579631589599945,9.874628629168821,0.002135950579825327,0.0029132621334317546,0.0015106999926297257,7.84
-0.027791350957117645,0.002301550453938455,9.887445393624342,-0.0022512761939437807,0.010341453896261411,0.010035878825521696,7.8500000000000005
0.18774628647531155,0.011702659013161717,9.827405006036129,-0.011684950240129808,5.8846105316951285e-05,-0.01749699052073965,7.86
0.001294096891102277,0.07763022874043685,9.731772831378526,-0.011907904808352044,-0.006850879996117387,0.008317210309719374,7.87
0.12333640191103601,0.09278417020789721,10.01737377070838,-0.011653864075535366,-0.0041516501466936934,0.003960681022498385,7.88
-0.040846830930235646,0.055724006707775164,9.843805560410596,-0.011077667221085084,0.0063661926730942025,0.009769514445280073,7.890000000000001
-0.11522208501451077,-0.0064956895421411425,9.835095345068735,-0.008935972091303162,-0.012155195625332335,0.0036126639928084742,7.9
0.0604561995014966,0.024265420039036097,9.844865813079203,-0.012347173460853325,-0.00541366977287046,-0.0037461946691052946,7.91
0.054749617925659626,-0.08309715927223768,9.712002149949948,0.0028785488051321947,-0.021888207634818028,0.0004919559854616647,7.92
0.0928544529893527,-0.15456856737328076,9.87198077603229,0.001450531404551953,0.007552230863892902,0.013876062459091345,7.930000000000001
-0.09636224038267235,-0.07093754784503704,9.902166644020417,0.0053388471841983014,0.004267742918330463,-0.0021639455065729334,7.94
0.04577466123170565,-0.016659467538343794,9.715616043854324,-0.0023103760644278062,-0.0045599717868384255,0.015336627262197516,7.95
-0.10317758623318436,-0.06558940479046695,9.67533158267131,-0.006417199364418445,0.0051249088939785735,0.008513145833281735,7.96
-0.23375329058940145,0.18047919808475046,9.80512823827606,-0.003536938996952663,0.011801999288142866,0.015024613616647213,7.97
-0.020576646252636447,0.12987856049504218,9.901076880260561,0.010799495770732801,0.010989147922178573,0.01506347034056125,7.98
0.021336047727830865,0.019461899460756625,9.847792987054332,0.0034913127388976222,-0.005926804402688111,0.010986916407226401,7.99
0.10447622021602197,0.15011731530570904,9.791653268363328,-0.005477751854576814,-0.014028746253986757,0.008820047659542909,8.0
-0.06247843664111609,-0.09280517258453963,9.902635138239603,-0.0019449636866263557,0.008422241438549924,0.01968105032874702,8.01
-0.03744546750208,-0.055377847011410464,9.95425417800865,-0.0009694729874083246,0.00706472200386262,-0.019521347818333687,8.02
-0.0061432294945738845,0.006163912634553497,9.83221510728162,-0.0015845541362647403,-0.0022443086385928136,-0.008247067551870801,8.03
-0.010733900207923457,0.1205435283368721,9.96938159765519,-0.0061095735290366306,-9.35128719736049e-05,0.0038829594516007933,8.040000000000001
0.02764263468278615,-0.12047497420213903,9.886114615288307,0.008655579461061628,0.0022922380322501464,0.011851830096270794,8.05
0.11673382577082014,0.15938734475969252,9.75090964867376,-0.014521232402882216,-0.017484573403698685,-0.018683122760855746,8.06
0.018372744434564638,-0.008674743763948561,9.835149169602817,-0.009695945077938391,0.008797592237199461,-0.0065552884081626385,8.07
0.09164930006066517,-0.29350363741490987,9.953424742980701,-0.007363267780192533,0.015483929456439172,0.015056293170590396,8.08
-0.0614212473646119,-0.14237787175169528,9.708615386799098,-0.011987503095779574,-0.004468745632083704,0.01698089112311317,8.09
0.03346743776850437,-0.1618716714974955,9.841646657024524,-0.0004282835525581582,-0.014782993034831094,0.010606495425700446,8.1
0.17994062405894673,-0.08846815230364974,9.80451783613293,0.002646315936722467,0.010643140079163541,0.01572976267732018,8.11
0.053565932977238266,-0.07708805494788777,9.715616094496593,0.004653813871936773,0.007530077290038481,0.0038463490019888507,8.120000000000001
-0.10550458380864308,0.15274201222424352,9.88543620377049,-0.008609460642408502,-0.0023942188615177014,0.007232662497550294,8.13
-0.026549459282715723,-0.05378602787034208,9.66063353285123,-0.00867449309459904,0.007968128972160628,0.0003376461951581537,8.14
-0.04659657518179917,-0.11451854773027018,9.719249729106421,-0.005120524084621754,0.015426518051342526,0.015826186659852592,8.15
-0.12434452591447634,-0.09155991928238054,9.849769354820246,-0.009828030988558164,-0.000137983317664551,0.01493597651831965,8.16
0.1285533291050319,-0.07490415936919056,9.828601444826328,-0.012701357259206899,0.006995327916262404,-0.0033056512181980973,8.17
0.032159003535654866,-0.14165704339560975,9.762648165228121,0.0029393167064660753,0.002497348183138074,-0.006710305569059735,8.18
0.2736390307613012,-0.07727150449329252,9.66316723563443,-0.006903344433417751,-0.015757434217766115,0.005573116046961184,8.19
-0.13051495229882099,0.048182184475373764,9.811737941298587,-0.011327691741039295,-0.013321497827883864,0.008445922193650897,8.2
-0.10737196856861986,-0.08555755526837577,9.880943582705852,-0.00476010995830361,0.004353167803018109,0.0020510114494453014,8.21
0.07097043934182921,-0.07106747467146426,9.803394845502508,-0.015303945398444058,-0.009339305737396119,0.023019504141278492,8.22
-0.13848134304400989,0.015709067189735994,9.759239475565732,0.000122139043801545,-0.011395049754719761,-0.00881577109883079,8.23
0.14530178011301995,-0.04506960114251568,9.90530156357317,0.018076918400132612,0.011417645974961584,-0.007594392786850047,8.24
0.0806055943853525,0.030724725250294557,9.781008272377157,0.0029500535413295426,-0.0008235848534036743,0.01819495949648013,8.25
-0.11960899194168911,0.14440728569206782,9.770415273800191,-0.003157253728108227,0.0050546023521152,0.0039742469452736465,8.26
0.09249560335219105,-0.17211817913591998,9.75454348202033,0.0035622882499131044,0.0003468435004833165,0.009167041418845369,8.27
0.10685693822119234,-0.10080112273907943,9.784479531491344,-0.01939690090121745,0.009496522343751031,-0.017052022412474662,8.28
-0.031355123788757426,0.13859643101328972,9.778450719216805,0.00044162693240751,-0.0028129036435616604,-0.013189171613840986,8.290000000000001
0.043522443912955594,-0.09015836806469642,9.565651402382018,0.0070263028429203836,-0.016865768126346218,-0.001888346968274113,8.3
-0.033488957002880966,0.03586488162428295,9.657785884058159,-0.0028083996029830698,0.0025705056079752715,-0.00031992551888136283,8.31
-0.24705064352386008,-0.05456658721537323,9.622126289297917,-0.015597747071270497,0.00544045425617659,-0.009112741925749585,8.32
0.1493427548820274,-0.008964469219431325,9.92899014765965,-0.018134602712477823,-0.01718614851700017,0.013363629319936968,8.33
-0.17397658387086168,-0.06055344268429365,9.808187927690712,-0.0021783466856250154,0.01040058469324047,-0.009196432874253965,8.34
0.0771475211418711,-0.0038846150108454015,9.839323753770568,-0.012907589600244353,0.006985399878359437,-0.013523104660880244,8.35
-0.06834505461096983,-0.0029588254803038913,9.75464999668389,0.025393970770419567,0.027787395192302042,0.026456660860025676,8.36
-0.1107179316378635,0.04983448252791514,9.811060290914615,0.01877932874053594,-0.00657262026066396,0.00865248477707603,8.370000000000001
0.0851772765423894,-0.30833871997384216,9.707305410493337,0.01160732535235394,0.002572678706857141,-0.005705443411177163,8.38
-0.13980974846414954,0.1152911042606797,9.810878603653164,-0.01104853742779648,-0.001175445879687376,-0.030965478606591715,8.39
-0.02009105895141803,0.03609434015394263,9.849618284157247,0.004645815532887326,-0.0013468448446774326,0.007693900895914917,8.4
-0.15627842242435855,-0.009100671215838614,9.707266652012068,0.0024012962712557117,-0.02069297788058298,-0.019363858079904057,8.41
0.0032834553324433014,0.11027522335993332,9.788595228912587,-0.005067128474101762,-0.002139821567496914,0.004268735751724946,8.42
-0.00882262412467271,0.030266617560331933,9.831138630791491,0.028909036131931354,0.005901375793810964,0.0072238798415944815,8.43
0.06593575619249269,-0.23811120079364712,9.817897965726536,0.0073473340047993906,0.0038475000333135535,-0.01830184808892079,8.44
-0.04208256658085218,-0.001527047981435773,9.770407919752763,-0.00420811672625345,0.02195839939078195,-0.00933700704391887,8.45
-0.14785597376996784,0.008056318120864497,9.828391411785562,0.008879610963414056,0.0020954160908861733,-0.014242003810399534,8.46
-0.00915641062696078,0.1088212799803,9.881552443710241,-0.0003246977627901856,-0.007562273276959496,-0.005675180077468336,8.47
0.07066674894995555,-0.053861590230625915,9.88747097347572,0.0005688267988198431,-0.007834142922149552,0.014122530187747215,8.48
-0.09003442045958387,0.09384340560395846,9.781472025450562,-0.010491636904381405,0.006255282676971256,0.005882219036273798,8.49
-0.07687925980734157,-0.046471463986256956,9.592317043023545,-0.0013680748853715416,0.00040847741696843897,0.0020704487497236186,8.5
-0.14602298003641034,-0.09905421593522169,9.81549455982473,0.005420327749332266,-0.0007772309964782552,-0.005790533430182976,8.51
0.048022223185272016,-0.048710033248009675,9.803917273145693,0.012188009044126378,-0.012449266126695535,0.012061332371836903,8.52
0.03197935227449587,0.01385786525777101,9.992631796444755,-0.009054287209075418,0.01145704533058511,-0.002500701878665941,8.53
-0.22693525884223686,-0.07596568628275899,9.975444285624206,-0.014015867425598754,-0.009363216921963086,-0.0014874460786332905,8.540000000000001
-0.004868204168351275,0.03332189710254879,9.841957087360434,0.0018687131627307283,0.006668015010075339,0.00993010926497644,8.55
-0.01719357491565429,-0.08907223924914182,9.737085675259609,-0.014611292234530074,-0.011224034677046428,-0.009429894452091922,8.56
0.08182744056712948,0.02310113423087013,9.773753757740646,0.012022020383974968,-0.005493910912057526,0.0012479814543619086,8.57
-0.08613220346388846,0.059636172022264726,9.87026472744525,-0.014511056277672293,-0.008691965758439463,0.021559875734006514,8.58
0.0013432800219968018,0.07836194343550239,9.889729172403166,-0.0101026609594584,-0.009279594124916295,0.007154549552168504,8.59
0.12587777076789838,-0.05569846108097392,9.82426709259171,0.016596317922731117,-0.00030355014618953474,0.002265965519700934,8.6
-0.15363442905429242,0.10330292830681115,9.649951128131278,0.0015561598533694798,-0.0012105650747114307,-0.013449942461781158,8.61
-0.16411533777726361,-0.08013281105699437,9.869575475306764,0.005262473324409381,-0.015819089335660542,0.0011359028842435792,8.620000000000001
0.04435640310355714,-0.04315465077843435,9.758754209098042,0.0022611077351709437,-0.007072415089381619,-0.004139622110842374,8.63
-0.01873959825036866,-0.042819401654365576,9.930468366984934,0.011104685353944845,-0.006568535476298874,0.0030020284993641276,8.64
-0.1354952992925522,0.022006483573537086,9.775069653825874,0.0044727357745642324,-0.014249291287994108,0.004650845911522783,8.65
-0.02158788428483918,-0.05525161426640118,9.746862701832658,0.011638442295454899,-0.010203648620373897,-0.0035928153010490833,8.66
0.06271358549073125,0.01758053670046053,9.838007542785606,-0.008233030612517827,0.0006513015425251165,0.0113155799216003,8.67
-0.009375835046633314,-0.03694129648697064,9.69074263873942,-0.003139607827810486,-0.0019184499868546876,0.004483793006929701,8.68
0.08862639217396377,0.127458004597894,9.866295503843055,-0.0033949602669734293,0.004298110886939246,-0.0022208286762676155,8.69
0.012683833279166046,-0.10207023816169265,9.655591077894341,-0.007329503806574541,-0.01284957959507046,-0.006635730431449394,8.700000000000001
-0.005710359402158682,-0.0024803255727686175,9.813992574198332,0.014721826912675375,0.01677085331675505,-0.0073955142512274795,8.71
-0.08451709513632344,-0.014642346239405477,9.978206810435585,-0.0035518248241300284,-0.007050232444741073,-0.0022112332635099985,8.72
-0.1016943533211176,-0.028450940535806914,9.880856822562643,-0.002933125126215942,-0.012396259286905027,0.008006335883613188,8.73
-0.0618278957985694,0.09637289056294847,9.626161224500024,-0.0036889344638524175,-0.004012586466025934,-0.0008914426780329897,8.74
0.016912872332033365,0.08688869383169437,9.881793056655866,-0.004692389393096825,-0.005429031228370261,0.004940763956878165,8.75
0.17570800064296174,-0.10009136106989602,9.743942985797174,-0.0009529751418178813,-0.008234611561990636,-0.02088014432754841,8.76
0.07228322865025416,0.07567945072527232,9.701063014076938,0.015937093822868533,-0.003491747236949594,-0.0035872576588685486,8.77
0.03239916160138727,-0.07829338587604312,9.811807219041274,0.005842382578955485,-0.00609357479128708,0.008689857492582194,8.78
0.18981298829726545,0.012761667319627523,9.638441866017084,0.004317818612485598,-0.0008212268313361352,0.00993944982936883,8.790000000000001
-0.027951462055276616,0.01606183860475499,9.925766931491665,-0.009567921910427822,-0.006673542235787198,0.005980874288240602,8.8
0.05784912389376349,-0.04610662583911217,9.757808421323926,-0.007719527364951332,-0.021260565236784244,0.0068578984395144165,8.81
-0.022898003511689493,0.15417655502322714,9.772322648764643,-0.006283895813339955,-0.02447222596983129,0.016752702169827154,8.82
0.04398747793974706,-0.033799183383379096,9.777968805591655,0.010309276122101259,0.0033937550689638234,-0.00804106523016554,8.83
-0.015116725631119418,-0.04233307318988515,9.73940327192129,0.008356721907275341,-0.00556965988928879,0.0011217562219879185,8.84
0.08866327765610754,0.06003891469200541,9.885572376117238,-0.01247936579472047,0.00035837721100812016,-0.01222055324882657,8.85
-0.059033372282357346,0.19776564403063135,9.805659148145176,0.0044196554478530235,0.0041260397157363085,-0.005262712754006082,8.86
0.06218643522154818,-0.22784222507158336,9.772144865591388,0.006472277212000497,-0.006088525251093145,0.005156633778320762,8.870000000000001
0.2766015313147095,-0.03707918327951639,9.883540787040523,-0.02535153480723051,-9.211748698231904e-05,-0.006547533204934161,8.88
-0.09240045101968389,0.030024008865907715,9.888502619341043,0.027985163817487224,-0.004394205068670821,0.009862617897963935,8.89
-0.18445018480734998,0.05395193473114466,9.787573772023046,0.020328870189872603,-0.0014997417995028,0.009623370258320363,8.9
0.03516520130668876,0.041542589008994595,9.770090031803322,0.002623436750544875,0.01489303820038579,0.010537010891178934,8.91
-0.1380153642672822,0.08831544738390062,9.840797813118808,0.0008117082008687891,0.007861608301569485,-0.013179256132077231,8.92
0.17815396791386393,0.031624664997342435,9.892842689976634,-0.013924634034720386,0.0037582729277373483,0.004591728180447658,8.93
0.13348777347091756,0.07497233042851323,9.94505613861733,0.0023613259668983358,-0.006639232570996728,-0.011548942815818848,8.94
0.0006530380014782612,0.027469359141075296,9.893622066710666,-0.0006300224426122439,0.01344044314390778,-0.0005946621428373483,8.950000000000001
0.0020599872141163875,0.09057203435080557,9.847652977162276,-0.014221797105029807,0.004352591870271259,0.00709201167465141,8.96
-0.1168189878661573,0.02272299384371074,9.876779764903832,-0.015616500574066492,-0.012132252175953404,0.002867709362015043,8.97
-0.02933983874632274,0.18842072970534113,9.715031238438726,-0.0168337736742345,-0.016086005281594706,0.003511724732194224,8.98
-0.07888722287381122,-0.11012578384303942,9.889894856087382,-0.011572927803622403,-0.005749939462948785,-0.004485010736277627,8.99
0.11089114386930765,-6.179084908858787e-06,9.824866341255465,-0.009175610984436559,-0.007521528085045264,0.009965244052893191,9.0
0.005583316477834391,0.06987847903198448,9.96613495123473,-0.007834629008562318,0.0019106855443254342,-0.02095651523274352,9.01
0.016559452287654385,-0.04391819115778697,9.880808564607582,-0.001634884193608854,0.012261349735648781,0.010746240869773225,9.02
-0.0778327031531351,0.10949669793751043,9.61099545448668,0.00517028465551859,0.002305802379900975,-0.003244032505879641,9.03
0.11241700561548396,-0.11524578694042674,9.80983643912618,-0.007271878336136184,-0.0006491081904620825,0.006723575246457285,9.040000000000001
0.07077169488916656,-0.003881925329604996,9.820283772771385,-0.01626754689734101,-0.012747117953216855,-0.019127448601609545,9.05
-0.027539563259635254,-0.1324547936306731,9.900766433385748,0.012486257050745034,-0.0063611328389826275,-0.008025130286229946,9.06
-0.08183245090181218,0.07875492455361953,9.747189478323664,0.017152955249092418,0.009846716796293396,0.00439115383112647,9.07
0.2543682553795951,0.18577659139206715,9.977059906077585,-0.010074394283263002,-0.01454466619909945,-0.016106035131758453,9.08
0.05182511005969584,0.07154043165257953,9.783092202264312,0.00920343488146084,2.052711962438517e-05,-0.012471318441961683,9.09
-0.12776526430975185,-0.06298948689232288,9.614548572019476,-0.00415843531369992,-0.006662971667725718,-0.0013804333939522553,9.1
-0.08099080867120817,0.010630801733921181,9.727060540530761,-0.004108545590916115,-0.008723710770283616,-0.0027277736404783793,9.11
-0.010111848141139015,0.015827987386260733,9.814845199680535,-0.0001179481500787005,0.012851144872057574,0.0024156455233142883,9.120000000000001
-0.1497629444871727,0.05613551483399727,9.89371512851676,0.010989872878809561,-0.007473266330184206,0.005995613811718211,9.13
0.05903237133830025,-0.08117542042031671,9.686961904342072,0.012955931673765375,0.001566419875813921,0.005708628631365049,9.14
0.006117255484133018,0.004680446266538561,9.758470019384553,0.011106339527921375,0.0004618613649972059,-0.0004201506304060126,9.15
