ax,ay,az,gx,gy,gz,timestamp
0.03548092804255414,0.015819616948982648,9.709862663183081,-0.005898622257328637,0.01198296544651505,0.005660965069606989,0.0
0.10206606661046691,-0.26021071087602515,9.7189001038647,-0.0005026113308342554,0.0010684230397127535,-0.011421837851374,0.01
-0.0988532254595661,-0.08940972872728517,9.891618812052537,0.005397360993588763,0.0004233748872936088,0.005240493875952324,0.02
0.17837088650846722,-0.010420090793898086,9.941206889547967,0.003850434168376277,-0.005156192260152246,-5.860826652601464e-06,0.03
-0.03618937847198841,-0.030189778819616264,9.84477561613697,0.012045827287870082,0.008563705727841214,0.0032378918159609083,0.04
0.15431027615505966,0.10293664003482395,9.739797630947951,0.009095588183814764,0.00592052629476274,0.0020614386416867646,0.05
0.14716851392017521,0.07461880106973016,9.779882048238285,-0.0047571715922816084,-0.01005710570600034,0.001484984172048438,0.06
-0.0923365356104278,-0.0940203829963124,9.725017061074087,-0.014685354749471753,0.00035868336913258934,0.017543555447560137,0.07
0.08418692473110889,0.013227231540165902,9.867959665879358,-0.010377566217642133,0.006204804100487092,0.012030440501152413,0.08
0.05657841322567597,0.05008484705179039,9.935314243327182,0.0164984259452475,-0.012461371267844325,0.004325763923871608,0.09
0.05094770383501229,0.024126156492491176,9.798458655327664,-0.005810557288376133,-0.007249234982327967,-0.014703966145115249,0.1
-0.023747036303162387,-0.0316521961501194,9.81463418173059,-0.014934941138073672,-0.006342917834098813,-0.001821494925029873,0.11
-0.14677094434669752,0.014731160610634304,9.708586625144507,0.008499038800437933,-0.018970633805685342,0.0017933772323378936,0.12
-0.19123595539215854,-0.059973949101800095,9.818551418672186,0.012482379028128113,0.0042117338277206755,0.0013975705380313114,0.13
-0.012527548653730479,-0.11728224811485728,9.989401803870214,0.007193853558712493,-0.0009428778877116312,0.0051131268695318146,0.14
0.19501878146322532,0.018508925674104688,9.688285692975123,0.000515608053947742,0.01072937765615352,-0.007629559385548883,0.15
-0.01159632510256727,0.030739254583384015,9.874930930153843,0.0021850509161981226,0.0009556345331315694,0.00447227166386587,0.16
0.09145188075695428,-0.14323080991567522,9.767739348500283,0.001654107904252588,0.0011501820733237952,-0.00038610009658494025,0.17
0.047847843538434846,-0.020181289802936465,9.798415138052835,-0.0005914601961104548,0.010245656859688783,0.0032903712245802037,0.18
-0.14828735855676273,0.011991912893249041,9.956773496151374,0.0002075477385430648,0.010697764948801574,-0.008312040105225215,0.19
0.136144706774809,0.010444108746011871,9.830565690468,-0.007290564877962407,-0.02545822602794873,-0.0012294236727321073,0.2
-0.12023951230220234,-0.047708002383818546,9.65726677203444,0.0004810788257117223,0.0032854625058007032,0.00045218643106930605,0.21
0.02461905838455851,0.053334859659789714,9.926772890210183,0.0031734036601603803,-0.01698780626374987,-0.002314153842367964,0.22
0.03358998389310312,0.08966883253926368,9.818481680384075,0.01502941195564404,0.01415872802054934,0.016114445338181224,0.23
0.1047008556912573,-0.08055551795799587,9.970885505567919,-0.004979407416749718,0.008220367920196866,0.01436069724360681,0.24
0.12325560309794403,0.060611580658407396,9.86441471159122,0.013503814120458932,-0.01087132286095996,0.004744512103103486,0.25
0.040652912291527565,-0.15087757845738747,9.812853281951268,0.014341620277293245,0.0035402715025785454,-0.014378889774922419,0.26
0.1803172327120267,0.0406255804130837,9.783438308908385,-0.027375756978296386,-0.010975764710331945,-0.000851761322035546,0.27
0.1421770569128526,0.1856139849126452,9.966228087491642,0.0033411013239765404,0.009371732504041417,0.012564170827128986,0.28
0.03287555859938768,0.12157061606550817,9.696522496020716,0.006146361100672419,0.008470684381156777,0.007887012172179814,0.29
-0.10539268950712222,-0.009146606922276463,9.766104866879369,-0.004820812703850022,0.003997143107756323,6.486116260889471e-05,0.3
0.16282702607310762,0.10470623442025791,9.644409925997792,-0.012201643646391114,-0.0032814478187233914,-0.010759902767562472,0.31
-0.059013454498842634,-0.06574922961547205,9.753953119185722,-0.014336246672812938,0.019756977517289217,0.01323924175190798,0.32
-0.0037378549130874317,0.033834677702529736,9.601627591603085,0.0032130834355528844,-0.01657262682040753,-0.003095447063085333,0.33
0.10417700164882607,0.12776896739206373,9.798293246333001,0.0036811416322561946,0.01582739982616002,0.0016610243003904687,0.34
0.12081509124940729,0.13728329761330937,9.79570004089167,-0.01670542901641957,-0.007568531126089988,-0.015655195127360518,0.35000000000000003
0.01885543678300547,-0.09539391479868038,9.916138739616123,-0.013906777396427927,-0.023739189792787687,-0.014722272990163722,0.36
-0.09110736932295442,0.15644418654912512,9.872188344147915,-0.015092666626631104,-0.010246360520549967,0.004254016808776144,0.37
-0.16722626531031354,0.09085178647565453,9.83158186711715,0.005346292657922829,0.016287543373937497,0.02323689161411194,0.38
-0.10340243879314306,-0.007737557676416049,9.882137313527949,0.01775039865831745,-0.004593100267190559,0.0066504395386055995,0.39
-0.06296473583219972,0.05349997679949621,9.786507411110993,0.021384952606826452,-0.0028983409425925393,-0.011746353637786209,0.4
0.09600126475225511,-0.07171655111245989,9.794174756907397,0.004162448379980891,0.006809223238020426,0.004095909974429095,0.41000000000000003
0.08784839269942125,-0.12745841456785142,9.845177322864249,-0.02191762036052942,-0.0018777853242339453,0.0018522051845160739,0.42
-0.03682382935908606,0.025579660251460253,9.95545966135741,-0.0210865850485746,0.0039057546393588363,-0.015291459800382363,0.43
-0.10714978716008078,0.06580186914212573,9.830981703593624,0.011449727029312769,-0.007887114685817076,0.02691946390146308,0.44
0.02561945351393627,-0.03537184291141,9.84952581819931,0.0029800453881347363,0.020978630546704728,0.0044559985128054605,0.45
0.22361510707970958,-0.1174040225846692,9.6892918953719,-0.008367055409294052,-0.010868898717991588,0.00956803693612602,0.46
-0.24611760741147495,0.09801483448896069,9.725925676066764,-0.007361204589648583,-0.0023364839036003012,0.005254664355324166,0.47000000000000003
-0.04347408895703011,-0.1326296187390694,9.879440139891516,0.009394846752336974,0.005162154931673309,-0.007282466289354304,0.48
-0.07024449992725641,0.08645414062514559,9.870832099922584,0.00774207122004886,0.013219494417794754,-0.017268387613412362,0.49
0.1898201370507012,-0.02558795307676099,9.69927588426787,-0.005602282807800567,-0.004547463372422351,-0.0012513340889787163,0.5
0.054298591168560964,-0.19663221112711726,9.84571561411569,-0.001822987338872657,0.024231220292580496,0.012478710634225334,0.51
-0.044783291052320574,0.056460246526991754,9.77118373083756,0.0034044411612442482,0.007043970451114208,0.017146390195422058,0.52
0.15980593438265822,0.05683011313672736,9.941429981241226,-0.01569365476412763,0.0008078363563640856,-0.005105345356956537,0.53
0.11106786660070206,-0.035779182902834335,9.765749414775044,-0.006357166736546572,0.010779969674992382,0.00350429279565298,0.54
-0.19404487186468117,-0.05478324348378543,9.795138103875612,-0.006208607287190899,0.018018292541227738,-0.008796927685022939,0.55
-0.13482648625601687,0.06875418825053986,9.85783620548506,-0.008421865161176514,0.001586383793465045,-0.00445956297662123,0.56
0.11212270230907567,-0.04885022351574724,9.799815655296054,0.007882863276609827,0.011988718652267638,-0.008542323531139548,0.5700000000000001
-0.18270969870399675,0.10568592020144466,9.755673542284157,0.022790819897144887,-0.0035344192712534,-0.00945417610747653,0.58
0.07003393997568363,-0.09528214268019469,9.917639138567187,0.001729336671464393,0.004206941725104516,0.004643047533146221,0.59
0.0016832714897120184,0.002692724009807591,9.80941306363901,-0.01748521830093547,-0.007050197009326044,0.02156657685742742,0.6
-0.018424440446930004,-0.12597107913767824,9.852113706210524,0.006415796005593708,0.01454437792863428,0.008609183977407597,0.61
0.05664489551593119,0.13386635659301258,9.756046052857576,2.9220855668614666e-05,0.0010298235792709541,-0.002952363784100813,0.62
-0.0037934063422439025,-0.043732199657281756,9.912029083010765,0.021341886080103064,-0.01420547059837228,0.002091326199280014,0.63
-0.0724101352880634,0.04281497601784432,9.714161568176637,0.020678178606362445,-0.014667218455545918,-0.00028785309211020333,0.64
0.0818181929960911,-0.08422405584781624,9.58392983909804,-0.006654940892051237,-0.002710593032000846,0.0021253684660065973,0.65
-0.008745880128766887,-0.14486229626383162,9.825451078369074,0.011165789268346658,0.008782335241950094,-0.00512886727330701,0.66
-0.09601977814470682,0.10943948031532419,9.733433366002238,-0.0021300110421139263,-0.014677290960340936,-0.005432903012964785,0.67
0.006154801592370176,-0.014396380019854,9.807359471123322,-0.02636364395781822,0.012132662018138812,-0.0023578182307882087,0.68
-0.0023438497295843568,0.05428722440595194,9.818711546275466,-0.013050432949380223,-0.016563002707648825,0.006818816925266935,0.6900000000000001
0.06056029965242178,0.031648607175043864,9.819670453425896,-0.0031088273635703012,-0.002902118370285319,0.016117200043111627,0.7000000000000001
-0.051434613284408376,-0.012386328891005358,9.735707902747105,0.0008430541496614592,-0.0018150768173614672,0.008570916803061044,0.71
0.0070795509008863,-0.15080045582440615,9.865664526168937,0.003989949844616026,0.005021544316918949,0.003728503016783142,0.72
-0.020176391508456584,0.11176160958395626,9.838186366224702,0.0035000219537984355,-0.01795701220029167,0.002282433458965664,0.73
0.039692700072635145,-0.06180182605568016,9.911973579349366,-0.011188994583038183,0.00203869052994112,-0.018857207285125285,0.74
0.13201182859299518,-0.029249233024724958,9.666048624366132,0.0006579214995931668,0.0007390047841350397,-0.0006792985363088465,0.75
-0.050773533238442775,0.14187570889470877,9.639596305284819,-0.0051478597484936155,0.006678336124828726,0.012292667181921138,0.76
-0.197781923294697,0.028648315567905775,9.923390054231373,-0.010432878186723907,-0.0028089551499070778,-0.014623148265694242,0.77
0.09184735523732748,-0.06156598351370366,9.835700986484223,0.011521090003357508,-0.005583885431555037,-0.0058293963811875595,0.78
-0.033810281354613704,-0.10470362981447219,9.97126575682575,0.009018357681663584,0.005343773884507194,-0.0006604379245089552,0.79
-0.12648651490386315,-0.08314233586471864,9.846377788560515,-0.015885882379383136,-0.005714844776625415,0.00882514826388988,0.8
0.13398129920322774,0.036654006763282246,9.941261258417276,-0.0013866669155488632,-0.0022098810483674003,0.007557426868139382,0.81
-0.21860870696525816,0.055068532361155345,9.85013863742565,-0.008772994140493486,0.00016978916269535033,0.01894492719523497,0.8200000000000001
-0.08766807386683928,-0.00745390750108845,9.836567448582732,0.007218969331804529,0.0030489892754046043,0.004912125352169574,0.8300000000000001
-0.24988030238891376,-0.14081091066002593,9.915873181940642,-0.01188917178929921,-0.0034322618719815883,0.009402228590831932,0.84
-0.10649177496821852,0.04317085314504607,9.939115382874979,-0.004999601156611446,0.0013858105700016055,0.016591911536038725,0.85
-0.010340077888301115,-0.10155526193134806,9.870790349637163,-0.0009674636708010061,-0.004092339570597979,0.01031739496104156,0.86
-0.14951155329549679,0.17476411386048252,9.916948596622678,0.0013706123253053664,-0.0004684147424785117,0.008010473401611042,0.87
0.09373334069334087,-0.00985168891116644,9.618402007252516,-0.013726255989193232,0.014192054101178764,-0.012927548811443309,0.88
0.013659725358922549,0.2508724076564498,9.792980493830415,0.0008654265884387179,0.009157528109809316,0.007452277018296384,0.89
-0.06521946344545439,0.20075427291598472,9.825659914697152,0.004891821608963843,-0.006755854736741646,0.015501358245987824,0.9
0.09123320745550717,0.033282054209609994,9.764179238540894,-0.0014314508585386923,0.005475997584277906,-0.008605930108141143,0.91
0.07328120232317058,0.014497662274145588,9.82502688649144,-0.008504974469163372,0.0041271051640899056,0.004623808293199056,0.92
0.049748429767041566,-0.0831309075151071,9.820695797302221,0.0057282355888047375,-0.0015271960646545334,-0.011052863940306853,0.93
-0.004864729702647581,-0.1582213676288497,9.72195928608202,0.0030299531614514374,0.007515287274887184,0.024293778739101973,0.9400000000000001
0.1379011564202776,0.06525307670116379,9.66637920635601,-0.01017097881471059,-0.007673450513731975,-0.010488194048099643,0.9500000000000001
0.03683557299849143,-0.1770383428891646,9.722455176211506,-0.009123997076037374,0.008442565600769255,0.00628948204968852,0.96
-0.10205203543787318,0.0006515585008367176,9.905029076755817,-0.0022911027394402874,0.010863401655376427,-0.004827885918348041,0.97
-0.24313341586897788,-0.03829815742922094,9.888831673900082,-0.0014008822042702344,-0.012358228544056216,-0.021740004672269914,0.98
0.13432419221275604,0.09038451795737906,9.746014008522367,-0.006697707834301688,-0.02752561067892661,0.0007462349258714111,0.99
0.05596174722184808,0.08894890753181459,9.884202584542388,0.006041880981854782,-0.007065227840618384,0.014271501650703304,1.0
-0.0297954044816494,0.07439903283242497,9.860106318878744,0.0012740356393366058,0.0042953131248417075,-0.010224876440616561,1.01
-0.09473016428806595,-0.2070005183715666,9.866318607236325,0.005857960508958465,-0.004458319987789243,-0.003830374231203771,1.02
0.13956195079772468,0.06268891555427852,9.915611552652837,0.016500175317304064,-0.003712979089944453,0.00879435216364323,1.03
0.03399569117136054,-0.11917359069128951,9.74528826022568,-0.010628314296430064,-0.010253410181379487,-0.00022493946928172097,1.04
-0.0493103321489921,0.04213887425269109,10.017624607421993,0.004968436183098831,-0.009045046445896316,-0.0056156304210751296,1.05
-0.07375176469478753,-0.08604633351042947,9.771126991501205,0.006000221744021902,0.011638509742394363,-0.0017187912127207478,1.06
0.10206352031132236,-0.20439917322635703,9.724367091911153,-0.0014054207541913549,0.0009690039454893917,-0.01378966694820488,1.07
-0.05838096313641166,-0.04082669588404275,9.889645966484002,0.01544923255613748,0.011108690838389652,-0.005910422423572006,1.08
-0.09961812264944518,-0.07183036757629586,9.839743783645241,0.015046553539768824,0.007587021535496992,-0.002593814146664052,1.09
-0.10548576211897268,-0.1192456143257073,9.755548691764883,-0.013691527683995723,0.0058395345176868296,0.0035865702105025076,1.1
0.08746322228996574,0.11444295111559884,9.834613630694943,0.013037776846776877,-0.005477213391146991,0.002213083378210223,1.11
0.06845250504361697,-0.08362600314715021,9.709107097953904,-0.008331823075125725,-0.0021206779468101785,-0.004787293137101851,1.12
-0.07416199610275563,0.11789902158550405,9.856208754708991,0.0009415999090751419,0.0008794150501433605,0.004905863260884615,1.1300000000000001
-0.08466348660588863,0.004243977445411868,9.633763868896791,-0.010601642868643147,0.011392267858489805,0.00583796069881386,1.1400000000000001
-0.18108947184134924,-0.10178124622903542,10.064154324210808,0.005730134878871112,0.0029099730794601686,-0.0010503118930671506,1.1500000000000001
0.07132444555705628,0.04749158885843637,9.634450109904455,0.0040345149847167226,0.0003015987377190393,0.009469911813361173,1.16
0.030372791023863845,0.21302689270471162,9.791570376532698,-0.005303066177185637,0.014150845647219499,0.006866329285712487,1.17
0.19162127341670188,0.07537321180906273,9.71693052725532,0.016370908178116057,0.004889539759270971,-0.005989935190482201,1.18
-0.0717269650498829,0.09344713256598225,9.63017286258547,0.0059060875478935525,-0.007513536999432588,-0.008741540560986525,1.19
0.07043666703701355,0.10900314021214784,9.944157056068146,0.005880688030551343,0.010883285267166481,0.009070222256532036,1.2
0.03733909696718896,0.02122239367487208,9.71548090380666,0.011271897927359609,-0.023249447293227535,-0.004599743053346754,1.21
-0.16222622340879597,0.05380233121032627,9.767162634900462,-0.011945659018543081,0.0015852207805574056,-0.010605494707868052,1.22
-0.2378520443448946,-0.11668498966050454,9.819157280170996,0.00983237669976376,-0.005301707247528731,0.005170647546436544,1.23
-0.14958704602188494,0.0502063821884029,9.876209778110061,0.002106051097388731,0.004128985659112872,-0.006938461212708267,1.24
0.0049939039096418975,-0.005970643449573165,9.711223156969902,-0.0206243250209629,0.006675732712508422,0.009286362706537397,1.25
0.04821042943730729,0.09040855955679718,9.862978250440761,0.0019682048151045957,0.0022156273881861373,-7.466632749024924e-05,1.26
0.13082661562809136,0.1703577440454415,9.836879671621448,0.004206193596269778,-0.012402449207658948,0.022143242040420796,1.27
-0.20559459744854305,-0.14627305899965679,9.886844256545533,-0.004232627647731624,-0.015647411769264003,0.002854915021641791,1.28
0.21018625814101385,0.1062516282049762,9.919011749831588,-0.00013819199810898911,-0.01185644889105218,-0.017135982091168397,1.29
0.01859459338225852,0.019705522631280756,9.782039005126155,-0.016776937390919122,0.0007523101046766373,0.010284586095207764,1.3
-0.05470885168423768,-0.01511545681430917,9.75604051063698,-0.012506460416860973,0.005229401922077235,-0.0048692956745058176,1.31
0.19575660646183873,-0.018252505901033274,9.73460710471994,0.009532896187692838,-0.01201383756677106,-0.003504234198424751,1.32
0.0036741237018680078,-0.06713339318139744,9.781500879146924,0.002532602865409995,-0.006542156929927996,-0.012259179645784329,1.33
0.05864216971795769,0.015046353105947478,9.86841616720375,0.012230622469467125,0.007270437980339343,-0.0032649617072137366,1.34
0.024178985489712215,-0.062344550249322034,9.887580415335739,-0.0030251338770518423,0.009244190322032659,-0.018871873658056586,1.35
0.15052382466529632,-0.016625861960411253,9.837330942717115,0.005459408608081592,-0.004259779813281342,0.00043929966157463826,1.36
-0.144410350501564,-0.03426234883813153,9.81178925656602,-0.01049897085785284,-0.01154751925828425,-0.007147429369449085,1.37
0.015915289785617716,-0.07541891961920245,9.908537566615664,-0.00801110788082696,-0.022941226990279645,0.00628112346447839,1.3800000000000001
-0.06867939628796767,0.16397866356215626,9.947222623856335,-0.00553182834936288,-0.001491450357051564,-0.002600893367186756,1.3900000000000001
0.038072500382529774,-0.03449375702699086,9.650621911523407,-0.007499790547212039,-0.003325872491057835,0.005985560586166429,1.4000000000000001
-0.04945060705338623,-0.0639114988871211,9.837149065497465,0.003549854575164135,0.010768479827995465,0.009329784518368528,1.41
-0.033400720569329224,0.03856421265359209,9.74266860350281,0.02135267628065402,0.008079328776612495,0.00423816389574151,1.42
-0.023743437546053906,0.12148178535473264,10.05408172851741,0.008776067555848439,0.017179877104688476,0.012000944934977938,1.43
-0.2340284551774083,0.06589341427685268,9.84360067240032,-0.011427818328538855,-0.007325157630081425,-0.0010042635165049662,1.44
0.0997746378190309,0.010365180324919517,9.602756327126041,0.01338320309350209,-0.010384779924522263,0.007338355364780819,1.45
-0.020238552725051817,-0.08068221412337068,9.940729141277913,0.0017266342783809655,0.006672355832762295,-0.00443882307016604,1.46
-0.033398345883792986,-0.17854518209962542,9.814729379386028,-0.0074678934875708125,-0.005449684938031852,0.01964424249379756,1.47
0.07199542124963422,0.016431610647944496,9.703572790606643,-0.012311032582982825,0.0024294096888764025,-0.006382349645663732,1.48
-0.10022882475389061,0.04822330988369559,9.862950575127051,-0.008372311441678347,0.012264579734663364,-0.003777474814607455,1.49
0.015566839069803433,0.1568130625940798,9.707841191873037,-0.012588577386121087,0.002078200915062608,0.010092696251604564,1.5
0.16609543483728528,-0.045587492530224184,9.92019733121359,-0.013336190441999412,-0.006469565444384845,0.013072487260647934,1.51
3.199388304440756e-06,-0.04515674344063021,9.692592794425488,0.0012255059406790544,0.004938168367753277,0.0011490682889156206,1.52
0.0918246006188115,0.059357037829367354,9.84402662932844,-0.008124348460734438,0.0014517188681733531,-0.009491987533180549,1.53
-0.09506701889081429,0.2185993022183076,9.740426191309016,-0.008018708845824948,0.0050759507995832755,-0.010968078478099996,1.54
0.004855458530219889,0.03420194790407111,9.894539925159727,0.012402344769604006,0.01822306070192686,0.002072675821941062,1.55
0.0347158705534323,0.10663099350092836,9.80589002771406,-0.002592352578535472,0.00633048001410786,0.0123884934361862,1.56
-0.10036607336554466,0.1342128207596446,9.830235430696263,-0.007972219602757779,-0.0037199754614513983,-0.0014706667282922306,1.57
-0.0795136031374387,0.08182942875334077,9.837628242524088,-0.016975768592403177,0.005745263046781043,-0.017314374848290945,1.58
0.07510802096835215,-0.023018985110420564,9.81224565801916,0.0106596385338605,-0.010516072105902148,0.0036859365605991946,1.59
-0.07508827492979968,-0.1207195662709018,9.919899717609535,-0.006519639441559287,-0.01231305727857336,0.0008322200968602166,1.6
-0.19336199829378503,-0.14457286216895662,9.885613310023915,-0.01169379873105949,-0.004540572510019173,-0.010625034853430953,1.61
0.05607563819534847,0.059612571694524046,9.840600061117264,-0.014465035455165181,0.016671847051669703,0.010501245051004684,1.62
0.019681890748133323,-0.060207190536217974,9.967354645664397,-0.00965914225629007,-0.005356981985226435,0.01866216221557222,1.6300000000000001
0.03284163113851181,-0.10161972180486507,9.786742650477217,-0.014379397909425313,-0.005199563002341658,-0.00949953738592235,1.6400000000000001
0.09407386654575671,-0.17341509923069298,9.925636545767693,0.00509685892411377,-0.021541616301423448,-0.00045781511421397067,1.6500000000000001
-0.002335858016152961,-0.01013440293259981,10.043164587371212,-0.005225394141005615,0.014349247315825014,0.0072394868017416295,1.6600000000000001
-0.1454356272977628,0.04285819486357307,9.739110581464933,0.004460558494030671,-0.002728586175846957,0.0044914313721918534,1.67
-0.04035476954242381,0.03942670845091457,9.796589178601186,0.009387772969972322,0.004461757769865985,0.0013844191285401217,1.68
0.018883025222290257,-0.0647342189380966,9.765664961478004,0.011891987075163552,-0.008662886725492131,-0.003333312407744163,1.69
0.06391267393606363,-0.1086277893996466,9.777787877706809,-0.014947883481074793,-0.005871536935163004,-0.0003391431482580651,1.7
-0.05738145441642883,-0.03385244612274338,9.673814085223778,-0.0047620461327393965,-0.010560154672347713,-0.004950842764887743,1.71
0.06797257947837983,0.01873669687743745,9.705947272231443,-0.0023354647547035503,0.0032144548436604113,-0.014914245185125406,1.72
-0.13959281473714966,0.10935204142322724,9.743582259870266,-0.008145342791291074,-5.900173302935482e-05,-0.0017686589927049306,1.73
-0.01612774645892672,-0.011067448867287546,9.804077442850565,0.010837519617661646,0.002921669677620481,-0.009124107877080906,1.74
-0.08067398428698762,0.18370427224131602,9.752529733307833,-0.005558463768118868,0.016190470472972777,0.00273943467930363,1.75
0.08273804604781404,-0.06721970204409432,9.69684244213309,0.012153850234068553,-0.013824721726332409,-0.011886682062808334,1.76
0.28062455015869936,-0.19275811918550953,9.676743336728462,0.006496629836056536,0.006040352984362647,0.0029297440173826216,1.77
-0.02298763752003729,-0.23331646392425306,9.8396752182743,0.0015652977600961041,0.018266569823304376,0.004906798626655373,1.78
-0.022855837153799477,-0.07482390032100222,9.944136608920235,-0.01603421087378738,-0.00881497982458134,-0.0027934931631406917,1.79
-0.04123572022795528,0.20447554538735743,10.027218444833968,0.0057830441022990895,-0.004274902610476229,0.0036351767859327927,1.8
0.022567598265646402,-0.05029588501224263,9.74621897647956,0.006862805471810813,0.004236845474726096,-0.004799551850487472,1.81
0.13663880084700528,0.11746720588129161,9.729078226333499,-0.003524888770953002,0.011175837100672065,-0.009325961251766107,1.82
-0.020466687696083726,-0.03924142225056526,9.834308889767945,0.011196781346776126,-0.005164473968034083,-0.012336766810324085,1.83
0.025451913996554512,0.006507824306277755,9.809321630833022,0.00891496231490958,-0.009576745453698424,-0.009862975381833434,1.84
0.05194466019959866,0.17980930542823512,9.63516287005272,-0.00789554118748419,0.0005956754558212022,-0.01156694257194464,1.85
-0.09060696721154117,-0.06069602425746565,9.773944190284519,-0.004691664944640434,-0.0016329471606532256,-0.012739481326898536,1.86
-0.03944332713860836,-0.13129286977683724,10.064457906889915,0.01375078982302629,0.018857655854367456,-0.003580055262015216,1.87
-0.005018517519449221,-0.1673879216337183,9.699609018298384,-0.027192867255345782,-0.0014041784116984102,0.005068181036279158,1.8800000000000001
-0.014908995059370381,-0.07855533071283148,9.930313180530193,-0.0057925938210296206,0.009797930535158955,-0.010428321750494652,1.8900000000000001
-0.037702634079416764,0.013668399335170374,9.870169694261326,-0.006500631687215032,-0.01062098908553075,0.011598021131258223,1.9000000000000001
-0.04507186077975611,-0.0625437315530571,9.78862899785382,0.007274635068089699,-0.016156178177224815,-0.009865511738880076,1.9100000000000001
0.15875882015649723,-0.07108902866200868,9.911499460063304,-0.006767466039605652,0.004111998691227971,-0.024304679435010884,1.92
-0.19694903262755215,-0.0027407825840463315,9.835263365202296,0.009412053869789957,0.01373647619041166,-0.008838345733100232,1.93
-0.03589555852746442,-0.07302949131251878,9.985066277308773,0.003719437661646815,-0.005072164919827552,-0.002246526778474127,1.94
0.03146822918119159,0.02500290223146044,9.854945727083976,-0.011495731681793662,0.006667466404201857,0.014488866414580873,1.95
0.16524980601080677,0.0625111731003056,9.825766483457926,-0.0074711060466352164,0.010143741887711055,-8.74776015599823e-05,1.96
0.1062496526434686,0.015324174147174203,9.716049702567206,-0.010217350693310213,-0.01642332417543919,-0.005380889381824969,1.97
0.0010033887790984893,0.15430808217565753,9.64113576235092,-0.011165769016766011,0.014310936342894116,0.016197659056925738,1.98
-0.030927271780452598,-0.08505014745578121,10.023734968925478,-0.006863792726544106,-0.010083019627217436,-0.0019378713555067949,1.99
-0.03182160141746975,0.003056318009800407,9.679422767796096,-0.01621323375439942,0.0008820439070701373,0.006297589244267071,2.0
-0.11565796053780977,0.11324347799759955,9.745327863781716,-0.013117690012458896,0.00831621902455814,0.013777224191605103,2.0100000000000002
0.1134304581078518,0.08638178344812032,9.74346279820984,-0.014766872108034575,-0.0015734671174095355,-0.008810456465843509,2.02
0.048322325434614656,0.10914701692041405,9.755165296100209,-0.018259944588842576,-0.0010159841721745196,0.004407807733138913,2.0300000000000002
-0.03175142826017776,0.033013253730961,9.811027351274204,-0.011156555597339843,-0.0007921038628614395,0.002693404647922434,2.04
0.039009607741274405,0.1214511788294582,9.811515447846295,-0.0027826819000324383,0.0024311210538426934,-0.0038087564270154668,2.05
0.0656018162368567,-0.050091617997662236,9.970298815270516,-4.4447126020531226e-05,-0.00449909247545648,-0.0011673266611408049,2.06
-0.01175374946610908,0.03665055349062886,9.81060206245429,-0.012820468931737104,0.013594545164972173,-0.006340156934565911,2.07
0.040110580504122445,0.18938754984133876,9.687202358715858,-0.0035221223792159303,0.001227076302854673,-0.02029524374195113,2.08
-0.2009691539684952,0.025274762615984655,9.922300889296116,0.002728120867477366,0.002470612992127097,0.002392960777005381,2.09
-0.1290407257027977,0.07327323449439997,9.677367540240633,0.003147198426788882,-0.012931677745562064,0.004674755916552833,2.1
0.018070703628956974,-0.018193131195313874,9.729056996555606,-0.010155008570610047,0.0011435199480324468,0.007479012810217952,2.11
-0.13299503038157193,0.08235830199797727,9.742526996657741,-0.02075325049981854,0.009920422685337292,0.001805792076676246,2.12
-0.11219701658038178,-0.03864248683266563,9.650181964110221,-0.01140168051217084,0.014909091021027186,0.0009341346428249005,2.13
-0.0771343204144877,-0.10377116971172747,9.850001867446835,0.015688414585653697,-0.011099293909278505,-0.010706379187641979,2.14
-0.054529872125013396,0.0032207993156027647,9.663710935744646,-0.02485983256008542,-0.005258944189316966,-0.016047409975248842,2.15
-0.09516614529345126,-0.10052264653064909,9.783183669140616,0.021186947163066818,0.00431748896328577,-0.004700742268256763,2.16
-0.13802244921326343,0.05323792368677589,9.940133444636785,0.006341314148860215,-0.005369996755071292,-0.01976910557993576,2.17
0.028104106725156727,-0.016996767831411533,9.753936987100616,-0.007102990250677579,-0.0020419043722658455,-0.002852078566933504,2.18
0.006739781310119546,0.026593101073589278,9.692841806125362,0.012560502894552891,-0.00688054803133077,-0.00928119416588277,2.19
0.024764262501873028,-0.0278105757984293,9.632892295601964,-0.010841282008070694,-0.007397680192279071,0.000705792620583888,2.2
-0.1683484871504122,0.07101311941046065,9.89378439173248,0.016469499881199865,0.008012258989292993,0.013689024751913446,2.21
0.09087972316597648,0.04037044822925319,9.901655182952178,-0.0059400642380196,0.03481701595239039,-0.010129001163508618,2.22
0.12635737010927653,0.11464350218523814,9.878136985342882,0.02259775840642903,0.0009527098358172873,0.0036566448966183114,2.23
0.029699050734692103,-0.02320571902879526,9.815969355412504,0.014267983604956121,-0.002236665558611107,0.001875923510245403,2.24
0.026597035189720293,0.02888160717244333,9.909174926252714,-0.009291965072210737,-0.007163962959764109,-0.004386463380233156,2.25
0.04834344652025279,-0.0349567127124728,9.730774364804518,0.008421383916225692,0.008097696548331017,0.002281036125001588,2.2600000000000002
0.021250009404367866,0.06493209921047437,9.81733709109694,-0.015297568743105956,0.0029823498164301726,-0.002473812142127643,2.27
-0.28552943908423717,-0.04811538802609904,9.823290752361855,0.013932476198758986,-0.006420460543557024,0.016946099888660793,2.2800000000000002
-0.19641084367102477,0.05576153983839201,9.730551589153709,0.01260312178910568,0.011486809466208774,0.013144007476719262,2.29
0.06601014512440788,-0.0027737423714413326,9.92210026950446,-0.008424765064147539,-0.022805714425508813,0.003680516548205898,2.3000000000000003
0.12879590034132915,0.09794020545875692,9.895976555961097,0.0024143414307013305,0.004971057290581795,-0.008082223184979953,2.31
-0.12241924270667087,-0.06813879129839519,9.845578771333054,-0.005083431568923554,0.006081834821079422,0.0011391301211641231,2.32
0.03106652958444718,-0.06004686870806151,9.80664074991337,0.0023163225668516537,-0.021459550459865823,-0.0026538068909571604,2.33
-0.09316186577488686,-0.07303106984610332,9.767824618342507,0.005788501439332071,-0.009341107254075205,0.010116131398506777,2.34
0.013556425614389071,0.07204312680835126,9.783485472518365,-0.0122599431523495,0.008429510667736872,-0.00968033226053027,2.35
-0.05038170447753126,0.06726253695269066,9.807135378638234,0.008653836799306642,-0.007562445961546679,-0.007114988196151562,2.36
-0.0026988747797851037,-0.05882099516421211,9.860008896183745,-0.016900039956702955,0.001762445363151428,-0.013997401017249299,2.37
0.07965976430171626,-0.03817656158375485,9.823449435040601,0.007614788892639293,0.0016878672317218691,-0.009008129555338503,2.38
0.026000489991269415,-0.05281330656937483,9.792501708730216,0.004004600304616611,0.010544840932657798,0.0066731498564062686,2.39
0.02142798160365399,-0.07488754885126941,9.783626074699814,-0.016359327851581226,-0.009356678013958132,0.00303097316704803,2.4
-0.063603833116237,-0.04491280147794485,9.9081304269231,0.01195206736265451,-0.006334079990763359,0.01484226490566594,2.41
-0.03159352463844319,0.12797114579777943,9.955280843378677,-0.010761165743110304,-0.004479639923992311,-0.0019099711262193972,2.42
0.035665283838182564,0.02976021723748645,9.882340689981955,0.003573159785838327,0.0023663363525020203,0.008318560760595776,2.43
0.05454161182606674,0.023954604979315244,9.750934268081261,0.019081928256973794,-0.012362514108420944,-0.01590422818254671,2.44
0.14927161700005812,0.09844416933354545,9.867470618157638,-0.007036746605372528,0.006518608995294761,-0.018826456078172033,2.45
-0.06829438879671788,-0.07187969442715086,9.671831931476651,0.010075547508205896,-0.02063888966516521,0.008958451833524008,2.46
-0.0727090949899511,0.06475248598561191,10.029141598169577,-0.0026941431103078514,0.0041813944772206265,-0.033952423179332177,2.47
-0.1395446483120186,0.035096811108820784,9.865804365107559,0.001999890937947344,0.00903311609202492,-0.009937649624760873,2.48
0.07686687683877515,-0.12959645403061723,9.805385237376214,0.01182898639555485,0.005023815661323121,-0.004547916889781031,2.49
-0.10727611265701864,-0.12244132696197321,9.855439945727499,0.00047062388996923636,-0.004197771508730333,0.0019331924544642469,2.5
0.0869804972740365,0.09475253697781785,9.621163875646907,3.972217751245247e-05,0.021362792679402182,-0.012445340972352692,2.5100000000000002
0.14396779089430306,0.12986184860631847,9.766030714652452,-0.0018749433445556815,0.011333926681051579,-0.020886875155219732,2.52
-0.05606452917583624,0.08680330706895796,9.985711257531396,-0.004830759566108554,0.01946473439883185,0.010481107815581954,2.5300000000000002
-0.04867210741040581,-0.04194567837778183,9.877893345792089,-0.028931086350719674,0.009420073919866802,0.015484216092322986,2.54
0.0076384228692831435,0.0965036753286815,9.743458469203217,-0.004153089074146747,-0.0056317012286344285,-0.0039050280446278817,2.5500000000000003
-0.022124677944682467,0.02677755299603629,9.810389091100573,-0.005610755736108117,-0.009054383232837599,-0.008056108717650752,2.56
0.04698769676535805,-0.006808935657271845,9.897239841764373,-0.00872365603189267,0.0025065703020891164,-0.012464030662083046,2.57
0.0015634571979062308,-0.043568403852016845,9.91365101547509,0.0011613993690391198,0.011169204570617097,0.002147570230504773,2.58
-0.07838831683176051,0.05297105742974406,9.925616749471455,-0.007161854189538373,0.016664384900317943,-0.003623858757446167,2.59
0.014783112893265175,0.0515430242026403,9.916972872889707,-0.009199963789846118,-0.01772590062501954,-0.0037707013502087006,2.6
-0.021204949275325038,-0.1548822851587186,9.827582309877371,0.01831177448913715,0.010190140213436658,0.00333829317953568,2.61
0.08925682153391111,-0.022906284343721595,9.800416389705457,-0.0009682681029674192,-0.016088323210440767,0.004811707450687007,2.62
0.030173400426640587,0.03424730908598971,9.866132349008645,0.0009007512146395485,0.0029597680232283556,-0.013262522794015057,2.63
0.08519083615521825,0.0031251245616934413,9.89794053356765,-0.007063896813467819,-0.005038865096265355,-0.0029949988604264727,2.64
0.159116094281638,0.051315847991184486,9.683254281846631,0.015623092697364548,0.0025135306495215758,0.014946274194612363,2.65
0.10103590843403383,0.011104185892199643,9.772130264210578,0.0207205249732009,-0.02133521586068027,-0.028690436341227123,2.66
0.042273092474295115,-0.05845599774615939,9.759328186721016,0.01799750647102925,0.01986102790132531,-0.005744950892746618,2.67
0.022568728581293385,-0.1987531364719604,9.72935222718575,-0.001767120634911919,-0.010831937849437425,0.002317918296107065,2.68
0.15411667711351737,0.04072442892986097,9.895246965759918,0.0038098647972445027,0.020331578405593766,3.814558076100483e-05,2.69
0.09431477693609824,0.011169902699225256,9.928576089899792,0.0159514241646928,-8.219438875301858e-05,0.00043560228816504184,2.7
-0.17646160864603497,0.17073141980526607,9.884405439720057,-0.009885670742360037,-0.0027660829200601375,-0.0006232571246438856,2.71
-0.1395699214622887,0.03358594440812409,9.985603512220367,0.007389834771116468,-0.013052769972339253,0.011143529689731193,2.72
-0.09401110548079827,-0.2883429257399914,9.80754690105807,0.007914699470199548,0.0220616199573236,0.012306290042093418,2.73
0.03563518779060462,-0.13401976538532342,9.777710027150379,-0.03285427157319119,-0.008314118470919297,-0.002123822727624578,2.74
-0.02858364908725954,0.01983463187502241,9.857977911833986,0.00043764599161414113,-0.003711141803443267,-0.009368572570805476,2.75
-0.1233476721368974,-0.19699831127881065,9.896853405604032,-0.0016480065219954018,0.00929706596280794,-0.01217583347302922,2.7600000000000002
0.18226043357131794,-0.022177739606397743,9.736732065016865,0.004861912998610509,-0.008592904658451148,-0.024673543031769003,2.77
0.016414980674965548,-0.12673972841475367,9.712799975478179,-0.004080837776069713,0.008460781591416552,-0.0029986061371120977,2.7800000000000002
-0.029875055873577305,-0.23926856546687342,9.98832981949728,0.02258936182383667,-0.0010854377871156052,-0.009083496030586622,2.79
-0.15074076243255208,0.023434257645837217,9.689075377656996,0.0153562868769708,0.008183278416521857,0.02724311491905112,2.8000000000000003
0.06092994554688749,0.12940194607613523,9.81423529972594,-0.007923822845873613,-0.01612596719660763,-0.009758593074343385,2.81
0.04533846313443605,-0.021727940445645633,9.79798812296964,-0.0011018578883899683,-0.022251659713294927,0.011768407849105227,2.82
-0.09645986902587694,0.21131927296497285,9.642912542416607,0.004328504229417532,0.015492533075467281,-0.00343963782486388,2.83
-0.005422038901369743,0.08055202869166793,9.95668476329396,0.01738978715674917,-0.0006053335336240309,-0.0063563736530684615,2.84
-0.24736777304241941,0.014234701477733881,9.922604784100093,-0.0004084436082620163,-0.0010788354087056789,-0.013802927221842487,2.85
0.18927946768919876,-0.1059939002444462,9.805602854613376,0.004426739894482072,-0.027202888879709137,-0.00040374555990288643,2.86
-0.0795819824560509,-0.12959644125295153,9.926983934295993,-0.003445724740656549,0.012226302481729621,-0.005064569022323355,2.87
0.05133909760024996,-0.09119738866033383,9.854386175013886,0.0032626311723881526,0.005671598476695053,0.01009962767315248,2.88
-0.067997536811395,0.11844107034727294,9.714788567778639,-0.009175616197880616,0.005339654394026401,0.008942845327349317,2.89
-0.05905392223291053,-0.0390528873225379,9.836925595367537,0.01910801890275313,0.005953246777800692,-0.003607366446772152,2.9
-0.21992828370221,-0.004919330334312884,9.76052072061964,0.00690696936144021,0.0009613689166011746,0.00766486715716794,2.91
0.0524491985248324,-0.09192042848841567,9.870709139728847,-0.00522827517460388,-0.024994999028012516,0.008179101461361273,2.92
0.06880455433869703,-0.13986812356397185,9.849818480717994,-0.005319937521945631,0.040640487458122924,-0.016328299808113646,2.93
0.0018183640323564693,-0.07147870461832538,9.828157637230783,-0.010829493133447976,0.007796781590608392,-0.01247636267457657,2.94
0.05040729213768506,0.011785603487607868,9.667232567235088,0.007058405126936761,0.004956725024407494,-0.004753233833224979,2.95
0.1378340870990227,0.20897900609150982,9.73835621653374,-0.0007125631295407094,0.017091857359207152,-0.01247338787107833,2.96
0.009220266218498595,0.04849676308913688,9.778564425416839,-0.02349786820222783,-0.0004930972479148819,-0.014781017715975509,2.97
0.118492379666185,0.05935901514509295,9.894132680252937,-0.01990864859306373,0.011442747003610303,0.010390388229784329,2.98
-0.07534996976868136,-0.023430878451542392,9.76988844488541,0.0064269123809165335,-0.003939506708672764,-0.011327166776824741,2.99
-0.18888771857418812,-0.169015540098159,9.800701557018073,0.0018866888119872716,-0.006651602303359673,-0.004551297786303777,3.0
0.17813677937363837,0.0891735861852943,9.910269748788021,-0.003320081990983825,0.004879408736436079,-0.009815581038180636,3.0100000000000002
-0.04647126175851068,-0.045019512868605255,9.811168528921279,-0.003231114438119688,-0.0046640209409722485,-0.017924168041488643,3.02
-0.060232118293577476,-0.08024369834997339,9.811829831119043,-0.001543185770416853,0.014889105966573725,-0.004363732091444844,3.0300000000000002
0.06734087140487781,-0.03454812749306948,9.84002489322418,-0.0019379820582732482,-0.0001810835465393597,0.007854905987393699,3.04
-0.00012557640092256765,-0.25239750082832835,9.612946930139875,-0.00024137592642128007,-0.010111032254514611,0.007712590521043125,3.0500000000000003
-0.2244239398320514,0.013053396098246206,9.766828093724257,0.019758018741979987,0.014360803767520188,0.005024277467513056,3.06
0.07645796875287375,-0.11381293198137893,9.81953398043039,-0.01808747349321485,0.0023595209511703,0.00259811413649191,3.0700000000000003
-0.1451812648900387,0.016671462244987317,9.840531220453995,-0.001570361398971346,-0.014497511020071768,0.003559646131702981,3.08
0.06366113536432177,-0.011239343000996861,9.883757918157624,-0.0023059372583698196,0.015658576733556546,-0.010999962944871426,3.09
0.031959289008468415,-0.024856246590544643,9.920933370636117,-0.004802966190605385,-0.006346314247815284,-0.00047132445473500347,3.1
-0.2238947151026042,-0.06039838334433276,10.007243642987387,0.006508977088478913,0.006848369024212284,0.016717961181621336,3.11
0.02181031216398263,0.06274734079769317,9.90974712341158,0.010651540797111638,-0.008397775072149614,-0.0009543218561000156,3.12
0.14625670432365703,0.13661231282647654,10.033598958534194,-0.005916069669480117,0.010350932434221747,-0.0027522119259923874,3.13
0.05348708574260014,0.06940568677499614,9.908167758781127,-0.012994228112935838,0.004934496335606615,0.005986018935725645,3.14
-0.03140487998645591,0.05748144146313647,9.9136133294818,-0.0007223023305112039,0.010316860117138938,0.005157745550101224,3.15
-0.10131380998488404,-0.0021051418031683387,9.786080928902335,-0.008118898751218927,0.008700412062815919,-0.01010051344271206,3.16
0.06428551070978425,0.06223927463273711,9.769581669244268,-0.0035839536540658817,0.012564076530877266,0.0032514575545636126,3.17
0.13765604407628734,0.1003340077446529,9.76277670453426,0.0004916118699737892,-0.007500673391866606,0.01108035164272558,3.18
-0.010020152735375307,-0.19211596971744813,9.841395788047793,-0.0016921635540601172,0.01963826823947574,0.003038229939079435,3.19
-0.02798426346861197,-0.037509658541820375,9.91012757725355,0.004962814438142138,0.0012368614458258534,-0.02293775489239515,3.2
-0.1476386912285326,-0.034718015013452216,9.721584731183704,0.004716679448029367,0.011724751486264434,-0.010498890289639802,3.21
-0.039185680801727706,-0.07278625145674723,9.819672259133785,-0.010417814601884583,0.023471814452328103,0.013237798855729534,3.22
-0.10510724947081188,0.08212285768513966,9.83828491375461,0.015441223343242865,0.020044569454324365,0.0037726835733124246,3.23
0.04116322066812112,0.029810362585805446,9.86048889529387,-0.01059214754324259,-0.00508179643400757,-0.007300533106361517,3.24
-0.046853564744194214,0.08990284799527298,9.81561720564003,-0.004576331926929433,0.008312366142458534,0.011322682635738624,3.25
-0.1268154416197404,-0.04267530374747913,9.994531681100565,0.0008838671273485819,-0.0024596861161716712,-0.004102285382028962,3.2600000000000002
0.064987013286972,-0.043865246922322555,9.825473053263028,-0.006862383347397609,-0.009400959098047518,-0.012608125713890313,3.27
-0.035705064844090105,0.041497563132396866,9.863375067735014,0.0036834055320060484,0.01422882937037411,0.005229005133034738,3.2800000000000002
-0.06757458868885627,-0.19996877873345928,9.81709296054423,0.01336512181710997,0.000582870987963903,-0.0005750472514869917,3.29
0.020971606417101076,0.25303879102102217,9.76940085062347,-0.0059663740758345045,0.00201268936956707,0.00775365802529592,3.3000000000000003
0.12297344176036276,-0.023760343293895567,9.85906183980622,0.00770411380122718,-0.001322563980298127,-0.006776780264931034,3.31
0.11640229161290519,0.07887444928154527,9.7795040568496,0.010038336826396162,0.013243673706743573,0.00988886047284248,3.3200000000000003
0.021383920149474513,-0.04008701447455732,9.84812906746934,-0.010053865572987368,-0.002268030163517577,-0.006410940971041274,3.33
0.09515282024768414,0.10544887315813595,9.794034636140053,0.009588484419704392,-0.014187975590954551,-0.017528945660979022,3.34
-0.004422570081512356,0.01525580670817735,9.933776360863176,9.066035474891085e-05,0.015234113163355423,0.007817936877167876,3.35
0.11247524326530345,0.20728017844051105,9.769971071733943,-0.0037352076395766034,0.015249606477947462,-0.007709820351548736,3.36
-0.04619078183785354,-0.03487894785902631,9.595753485422334,-0.0035588496526695428,0.007594420456711838,0.013757195843209181,3.37
-0.0912723736469063,0.02952580986612644,9.76086722803864,0.022738701321312917,-0.005943098057387769,0.007882802290705416,3.38
0.18070536901823586,0.046815897189432375,9.795356615232295,0.021678282220766048,0.010087607953916477,-0.011272709314451346,3.39
0.0956080675983075,0.023170900097264385,9.916322446989733,0.005370326807719774,0.0015408343363547473,0.004488517411681843,3.4
0.09703678771204417,-0.12573179576930912,9.780651560315933,0.006770985791401173,-0.004314391637874883,-0.0037620900541231106,3.41
0.18678990442797352,-0.07584761006225832,9.883177321135891,0.0029280856373554527,-0.01986780264370316,0.02012318357840887,3.42
0.1277365299702806,0.0972566297574151,9.880443081931057,-0.004619805885084454,-0.0031973643518027105,0.014186980051376507,3.43
0.02146398556635966,-0.05577978850328931,9.779556889307862,-0.008285765940762593,-0.008328660147561758,0.007989639017405365,3.44
-0.23288649942351292,-0.02792940323936425,9.846311397327499,0.017335466564908534,-0.005991015284200757,-0.002881416694058893,3.45
-0.10239921376191544,-0.1433732339625003,9.742960750793353,0.00503787417157531,-0.013401550925842512,0.003899915490837537,3.46
-0.055588862592596024,-0.050626932227292254,9.753496090544985,0.01134314690121893,0.008446557574816105,0.0025246999030526583,3.47
-0.02221506297618435,-0.09668994139900532,9.978661851098002,-0.00612106446428106,-0.0036736181139260427,-0.0017028137232241096,3.48
-0.02367499880651528,0.00957942508317577,9.733035086878912,-0.00480500738669165,0.010734867772338176,-0.0025054657706069738,3.49
0.05061133962923441,-0.1749949630602624,9.704660785919915,0.008778231701906045,0.009939706847744633,-0.0005730165872058993,3.5
-0.028404020209124616,0.024107048421466937,9.727256489968735,0.006358811869460745,-0.0011018386385412719,-0.012923595527166792,3.5100000000000002
-0.08634167160669977,0.044997677950801895,9.941704499933511,0.0007810043787754094,0.011966732401648193,-0.011864462218255972,3.52
0.08256313231126847,0.08912720821252558,9.8394550323821,-0.011167023499993574,-0.0024962402370055582,-0.011352527175513261,3.5300000000000002
-0.11814996461454604,0.09762618087693817,9.679457328035047,0.0074433850537639545,0.004480940179757531,0.015726985204856003,3.54
-0.06814565002701642,-0.24831788075671773,9.953773478198398,-0.012316589699406345,-0.0020824721298735535,-0.005153791026136321,3.5500000000000003
-0.20766508052991006,0.06762659449382505,9.886194091503581,-0.0012114191540402973,-0.0012612999454290341,-0.00643603741992852,3.56
-0.018786346731335016,-0.08065474626118697,9.76018936228337,-0.009212306200394524,-0.001451900130470005,0.020217943058859038,3.5700000000000003
0.04284673532931063,0.23314278286610832,9.62738501165404,0.008396371443589306,0.0017684062060465639,-0.0022777833224380917,3.58
-0.013847975491543516,-0.0010051532038618683,9.752116459374879,-0.01636011304780312,0.0021267145182181113,-0.0023656661100941545,3.59
-0.05973459768683011,-0.09045358091951537,9.8039436527009,-0.003900076857623956,0.005870415829615121,0.013349293993267973,3.6
0.0990150096723995,0.066089162995967,9.878316724861769,0.0023215536436613673,0.021535541026084896,-0.002561268222338676,3.61
-0.20233830303922634,0.14875244798973183,9.661627526578247,-0.012796399648004312,-0.00041886685484139325,0.0005702728034288355,3.62
-0.0010801102452399779,-0.10809264285011862,9.666174674715005,0.009161017666571666,0.012654217424258438,-0.0033310678194439294,3.63
0.030494256262818622,0.0372181881415496,9.836754452579905,-0.015817351352622196,0.002439107323255224,-0.0115138003400546,3.64
0.05111642502590143,-0.08690114645258712,9.902271637395433,0.0013977095413733832,-0.014606828804803906,0.01353833092919591,3.65
0.014484362234437992,0.2763417377619136,9.876519318121124,-0.004336322278457611,0.0011484514383661621,0.001423580453949167,3.66
-0.06455405792720978,0.07692246675416997,9.713042083433535,0.006149833770682407,-0.015518851057785011,-0.00652436940960708,3.67
-0.010526774479794457,-0.1039698313175692,9.938955967019956,-0.0011651861564662088,0.0008408498482668205,-0.023897277129525125,3.68
-0.10287967974645706,-0.0959876176934738,9.629231422572158,-0.005125517724211972,-0.014843776091770976,-0.003793502060307447,3.69
-0.12950250666866425,-0.06729264662044566,9.755157650465025,0.01018340951156011,-0.007056587670071527,-0.014451449162865643,3.7
0.11353272813829998,0.004196605982360049,9.726593909441297,0.0071309311736031025,-0.010847893995493504,0.009712961780185193,3.71
-0.040238252291692825,-0.08487171625510481,9.787133586115978,0.023513714189306704,0.004118515849606877,0.0009112434260761854,3.72
-0.01967004614498003,-0.009592857580934363,9.931953113935313,0.015308288778004192,0.011538488554033485,-0.007385582332143782,3.73
0.0896569277748111,-0.059872487559072735,9.786483949271515,-0.0031213465130364116,-0.0020076467789802146,0.009057576069684518,3.74
0.016901216468520063,-0.10783450210165771,9.883438428606281,0.006130025756450591,0.003923737860605253,-0.0020116064512538316,3.75
0.09705129432664883,-0.026355479567119658,9.70435104814559,-0.004074414033689884,0.018623498103315796,-0.014198418520246368,3.7600000000000002
0.09139540020575836,-0.05179749103715502,9.881057730728758,0.01866251638521416,0.009987404520378202,0.0005702870495151472,3.77
0.02565559800771888,0.10342134187715174,9.585632506349656,0.003010792519581025,0.012293497017109719,-0.01318266298188559,3.7800000000000002
-0.02680560012931851,-0.0414910952756591,9.81365645525779,0.003925843234542056,0.009105809275148822,0.00551514714816848,3.79
-0.12759899821944112,-0.06709911251339765,9.776822339297807,0.007325358298071328,0.0005677994504996178,-0.029415986214821426,3.8000000000000003
-0.0027961016126127015,-0.00536370380435629,9.744742639584583,-0.009096151791323417,0.0053733150802084875,0.015584483809314533,3.81
0.011729762923539458,0.05960479072021481,9.741915509088825,0.010873180206799513,0.011573972628393967,-0.012413055778749684,3.8200000000000003
-0.10646129447350519,-0.16894205804040763,9.75233215908407,-0.0024458480407574842,0.010545566154653714,-0.010207404423855879,3.83
0.08319265062239282,0.04499037078898254,9.801645024530263,-0.007221293173544244,-0.017418453150949215,0.0015236168876711484,3.84
-0.10812600616766557,-0.018315148962143164,9.902421860568749,-0.002653964932829431,-0.000598667635460381,0.0032118494491269584,3.85
-0.061396762745118606,0.07758454686113031,9.910433509328628,-0.011030244277850298,0.02342820565228482,0.0059901733436066446,3.86
0.004280416847884587,-0.014267518878624104,9.678699393043122,-0.012902598070384708,-0.005823240897341605,-0.014838274420789936,3.87
0.03241600785118722,-0.07866388619942498,9.76491266347207,0.008136613089951382,-0.008744108795216145,0.0006597600666158095,3.88
-0.06647334527061147,-0.05414693545060202,9.662781570635405,-0.007405596224749217,0.006005778899287253,-0.010251787357903478,3.89
-0.04492012471962503,0.057931362696477307,9.864686115457014,0.0038538871583645483,-0.008506134314244372,-0.012146940533808435,3.9
-0.030242506854499765,0.05321321660613897,9.919177596435796,-0.009204392032703863,-0.008206599165049195,0.0015293513781313181,3.91
-0.007911506759430899,-0.16880505338765694,9.699061526052992,-0.018210015160191568,0.00916393491376882,0.013561860385887588,3.92
-0.2426665417456172,0.059481065201783825,9.83249946196699,-0.0005338511595940939,0.009041526832489542,-0.02086016806305707,3.93
0.001239617149375748,0.04378923298386908,9.858928554586893,-0.013019617457920964,-0.008788884316285063,0.007108222562307873,3.94
0.1389159831826836,-0.06389686022023709,9.590372352999799,0.012087207052704493,-0.011528027118459357,-0.003209071874932006,3.95
-0.12744296510586706,-0.12823486776903473,9.710646943620205,0.005584592825554976,0.0003308382236579976,-0.011398350697351138,3.96
-0.1017907541826768,-0.08603061610956686,9.726666537404887,0.007225344630573639,0.005226148799857312,-0.0011923468445633367,3.97
0.0556250575680938,-0.03153350123932153,9.66789120929216,0.005426911470429629,0.008673530395580002,0.010404134814002559,3.98
-0.24623491149573795,-0.07150427617102462,9.931841995188528,0.008693726822195519,-0.004153088883354988,0.01113143405798314,3.99
0.07330828187868559,-0.016858148194768285,9.88106422668729,0.009701084233490457,-0.010381141636011419,-0.010592488427372993,4.0
0.14054671663091,0.11652164086408666,9.790858129376609,0.010256397342821869,0.016339493650405764,0.017052331117374666,4.01
-0.004196075705328478,0.10560821822986216,9.61883207050367,0.0014260380437980085,0.0145226317616131,0.02089880390522392,4.0200000000000005
0.1604309138361815,0.05430067050364126,9.76726236514989,-0.0010834435938887413,0.007913069100185714,0.004625658291717039,4.03
0.011740875721943177,-0.17521392187388074,9.846679836351406,-0.01160835392789082,-0.009842534158984916,-0.003267958957433443,4.04
-0.3022749080214171,0.11016960329413505,9.84037089657194,0.006059678258339315,0.005723769776946301,0.001245096917304039,4.05
0.0666873111151284,0.1318253221285934,9.779700518703281,-0.0058812894452986144,0.024348437500866384,-0.013151994006146656,4.0600000000000005
0.10351344486302623,0.11550286397935577,9.624501414564033,-0.022716793066944106,0.030936951462215725,0.018745310285457586,4.07
-0.04834366201496071,-0.06591799281933475,9.846889555953064,0.005809946735716498,0.00848249660019921,-0.01763578845342591,4.08
0.054792652391096486,-0.23472121853986,9.955356118696692,0.004767704359360754,-0.008549866469862819,-0.03043721804814552,4.09
-0.00924742349558976,-0.03172487745074417,10.000493657503077,0.0029079285921261855,-0.0057412259596074655,-0.0036842468087492,4.1
0.0565247099597016,-0.11191572472026966,9.867573153111232,-0.010042709363370783,-0.0007617966731486163,0.001365540189262131,4.11
-0.06981955541526137,0.04832763534012162,9.710388037398317,0.01318443372742295,0.0017554147871663565,0.00164306310349211,4.12
0.004605575644196446,0.1469460445469227,9.899773983302602,0.012741741218564806,0.0015302624983152486,-0.0007079222889002948,4.13
-0.3102631767656055,-0.09170964387556724,9.908759387413111,-0.00547395194042052,0.005433053959488053,0.004729482873748418,4.14
0.0015878446535477616,-0.0761445028802023,9.955636511678414,-0.006471233799614638,0.007551240572206406,0.026076316371783977,4.15
-0.16349005727326058,0.10465332249008914,9.831774947322154,-0.011896289186470083,-0.00611339402721851,0.0025577833152895598,4.16
0.07453630105789501,-0.08215041865304407,9.827901112805995,-0.0020244260443908883,0.022417608949986373,-0.004020580851560633,4.17
0.013940576086009737,-0.0067508563291196165,9.811294203610325,0.0026174509437137663,0.0035381833268135557,0.005212800671575816,4.18
-0.07074790644476457,0.059257746522797576,10.041805240740144,0.006041314817403502,0.0054100166503140016,-0.0031403833543801473,4.19
-0.08180093204155663,0.02915220392062816,9.720653587786046,-0.006028336481798584,-0.0006628242488213118,0.0067764276094325546,4.2
0.12273920311859213,0.012888227759522423,9.723571807888108,0.002050056376907881,-0.000997521669350608,-0.0048731423136624125,4.21
-0.027830796364495997,0.059400547462793975,9.781523611693133,-0.01849653333453034,0.0016652400631973882,-0.0038020715861950987,4.22
-0.05095362383068711,-0.08301470781290332,9.698810342026931,-0.006060958071057895,-0.0029370948597899522,0.008015516594458252,4.23
-0.07894485510894009,-0.004430751031266093,9.700295926381477,-0.004899285126130945,0.009393833035282953,0.0054395249194085825,4.24
0.07078558464189809,0.01506353389139844,9.84351415790327,-0.02013216314647322,0.006180796651655557,-0.007775871885767242,4.25
-0.007202009207443224,0.16935122078815718,9.66883560891625,0.004718075927036662,-0.021085380477699617,0.017017359127366762,4.26
0.023189244027168154,0.014377936749327509,9.947195879026284,0.008323991344172485,-0.008536220396081517,-0.009576584467924124,4.2700000000000005
0.15291661431346493,-0.011475941063186917,9.856470948975886,0.013642967134074176,0.012380907554698896,0.0003127380738288161,4.28
-0.11872837204739027,-0.12142427036945941,9.940284021144818,0.006545445514534445,0.009411597948352331,0.007117821701625164,4.29
0.15029171580364742,0.19492697689279323,9.64866224963901,-0.008285322703209376,-0.004865605688874615,0.024590950417599466,4.3
0.05118353402756057,-0.010206075932895377,9.82442391823771,0.006051985762986711,-0.016153034420084894,-0.005101582745831858,4.3100000000000005
0.004297523161738361,-0.02486341629852495,9.78385694525921,-0.013288881366398015,-0.001004712983651405,0.002275857260228999,4.32
-0.07341044705130945,0.18233983669022877,9.899930782521821,-0.0009745443646059856,-0.008570688828958353,0.0025605343765919327,4.33
-0.01736942282267468,-0.13997938160470186,10.175699157986081,0.00616856559177335,0.00023591022691026636,-0.015932831755679475,4.34
-0.12555448335026054,0.13091723343995557,9.845199128831965,-0.0075544940254793115,-0.008141536240742668,0.0186626741972959,4.3500000000000005
-0.23080845136498637,0.002509032179664016,9.808837218411657,-0.0031234276271214683,-0.005755820144172945,-0.013730334310032634,4.36
0.23504067595700362,0.021833667498040412,9.790338431962722,-0.002655230097520334,-0.0018159013197968602,0.01036271072566167,4.37
-0.06025613741614602,0.08207743782319776,9.98232789118841,0.009242739565157441,-0.0165691792807604,-0.005878395814166678,4.38
0.10909349026590531,0.08802011276046752,9.802595950350788,-0.003949350923119882,0.004100205564139491,-0.0036956727162295996,4.39
0.10596998811462449,0.10537710959325158,9.932274995458334,-0.03765813847764304,-0.0008580729128105517,-0.014359747307751148,4.4
-0.05798067361585042,-0.02552264028371584,9.686739231554332,0.0007211338531788924,-0.009150973719580062,-0.00559513751905882,4.41
-0.21306289046710566,-0.067928006784103,9.820592511310764,-0.0044800333546943915,0.01692091936953778,0.0035718267691409056,4.42
0.19762857204150364,0.05647652646010859,9.945367391380614,-0.009868454226052271,0.006007202029904746,0.006475327506296675,4.43
0.06284523277147722,-0.02799752151696047,9.756121249395015,-2.9297762079683956e-05,0.001753820489422203,-0.0065705691844479535,4.44
0.03489002960153207,-0.08969943544662323,10.06941749977442,-0.025391067694134323,-0.0060597264240751045,-0.0021287876721493276,4.45
0.049566523935639886,0.00624481363285876,9.631770362192938,0.0014858722798639504,-0.0011122070857365325,-0.00034766556310051504,4.46
-0.19683966787154444,-0.016533773713334515,9.840413099670382,0.020171163319394052,-0.0008811048441163716,0.0016472059918362018,4.47
-0.03828130757981459,-0.11084915917611093,9.924062575396421,-0.008488343120959608,0.001519181000442019,0.004625039962083596,4.48
-0.03876119042964499,-0.026663078791007322,9.85388184602623,0.003451870130387566,0.016173591851239847,-0.0072805073884308425,4.49
0.14604719414252038,-0.017299417403009377,9.737922558958491,-0.008674736916212861,0.009227120659239571,0.016954226369201592,4.5
-0.033452089920960985,-0.12973700238344243,9.569369224474352,0.008398092640052297,-0.004043431896981175,0.0035396150272875,4.51
-0.09674879565777322,-0.05054877933079858,9.809585395314096,0.007138391970278497,-0.0020781284572095773,-0.0038804550556267793,4.5200000000000005
-0.21645741834129836,-0.006951439136515654,9.792562188162854,-0.00564352280107262,0.0015958870578626373,-0.025468980288323232,4.53
-0.04301745065702269,0.01856690814038415,9.932653718889343,0.009083988156706,-0.003496469055623745,0.017620573874562933,4.54
-0.2143819991885499,0.00817848565553346,9.680354262746363,-0.0024207906073569585,-0.002618038014759686,-0.004605802229446288,4.55
0.14873135417839353,0.03532373882316613,9.734518782803246,0.006021604689315788,0.005196796869893616,0.01380572182571153,4.5600000000000005
-0.09358421563829351,-0.07323517085563573,9.905846091811263,0.005773082975861282,0.00023377380877445322,0.007365786127181383,4.57
-0.026676218986488823,0.08352417633210987,9.810188299538583,-0.006650648051913259,-0.0057821811131007275,-0.00793886481770315,4.58
0.09152405384851897,0.17649353565583226,10.022726099609399,-0.0005251409851552062,-0.010440047022095254,0.0036279385815279116,4.59
-0.015765523472449257,-0.03510193289019365,9.76080639712229,-0.005573271714886691,-0.009835031106127544,-0.009625312428826015,4.6000000000000005
-0.013114717857119951,-0.08766174186071603,9.761417045019087,0.0007321254171739833,-0.003747490350359882,-0.002221022098971829,4.61
0.03206489407351473,0.09776615662270127,9.80845416976228,0.0054278648089501925,-0.00039115127367934233,0.004566480114357195,4.62
0.03740476251306248,0.041690512410814576,9.683090125262684,0.012161371734085318,0.004267942655016393,0.005058124388378274,4.63
-0.1281642040251847,-0.11177948494558124,9.81922548789532,-0.004185895683679716,0.011338518730064216,-0.008680295148554042,4.64
-0.12586931302057855,0.23714515451687257,9.831886080092575,-0.01475173737911224,-0.009072004829839567,-0.011887966112590496,4.65
-0.010930653811152316,0.2757957265392663,9.828340672225117,-0.016605968635506414,0.0007716390172830146,-0.001288764456077979,4.66
-0.05934514670098179,0.008191606629982409,9.85214362471524,-0.005208317295328933,-0.009210844408388421,-0.010918428240284096,4.67
-0.029621862525860305,-0.0709561308564172,9.766686929732689,0.0039762841952177205,-0.003911912891525819,0.005371386350539582,4.68
-0.045184694278873935,0.12413653625540542,9.652795688796692,0.01236517859428209,-0.025892785287926896,0.0009292998392552971,4.69
0.0004953589458790118,0.03663897319812018,9.910120435127107,0.009334272218108244,-0.018875675157979853,-0.00026396540025154676,4.7
-0.13206099243951194,0.07960670039507504,9.94237771612168,0.00027566245828237546,-0.006452964210007454,-0.0013398332251061587,4.71
0.1257980601819285,0.05355688606408879,9.762296152949515,-0.010708950566660089,-0.0065703171130706015,-0.005015543243330303,4.72
0.0018035623037755358,0.005055878460111678,9.835364037265645,0.0055408308010238255,0.009085499615004686,0.0034100886228154593,4.73
0.00944398328200982,0.33359283544309515,9.832087467603571,0.0022783292109915636,0.013553427538365715,-0.006507076212864762,4.74
0.1150518920884943,0.0663414063406857,9.787271840226838,0.003596244489721429,-0.015028272836144625,0.00842331197541975,4.75
0.040679949189809494,0.009117369922381274,9.762604764042305,-0.01464781745773391,0.00035192785796874296,0.0014162676064940099,4.76
0.16175415456020678,0.11559998278329744,9.797876541397065,-0.011753025206987922,-0.008651528095509124,-0.015901770741228352,4.7700000000000005
0.0847758752019856,0.008602364063335815,9.872795541544608,0.011273497420607698,-0.01759347515856899,-0.008641335398594336,4.78
-0.14893374012939345,0.06824762817097525,9.762542307887529,-0.0039184190746909785,-0.011334618774967116,-0.006583885103658221,4.79
-0.043752580792159386,0.2467198018116241,9.705363316937452,0.007212982094505591,0.00798688923612912,-0.01009201489093854,4.8
0.02796038177250605,-0.06412485068950723,9.785465441970524,-0.015167106366770558,0.0008469380280707974,-0.006851524311425764,4.8100000000000005
-0.026091373507663624,-0.06837812989145585,9.938318829271115,0.00877176699176925,0.022698333470305646,-0.005372300628824429,4.82
0.0885010360473994,-0.1205032344256588,9.775690189297572,-0.015184237647272003,0.006352059616472057,-0.0022677615463957937,4.83
0.20681992661912543,0.17367142145076883,9.865221320846944,0.014564564915252418,-0.0013940011381084845,0.016344041672358242,4.84
-0.08221087860131397,-0.003699218463519207,9.831314317478515,-0.0003028841890257809,0.010969830425635423,-0.004521971677175784,4.8500000000000005
-0.03399288918751916,0.08080458910584959,9.925476490830485,0.015520536610115,-0.009487314818403106,-0.02491882781750349,4.86
-0.027700737222524165,0.07539022085843676,9.825835310260373,0.006092644990845609,-0.004134846890381234,-0.0071733171344081905,4.87
0.049153256402985956,-0.10864368007613097,9.843085106184741,0.016645596716692655,-0.0006902613620487185,-0.00034822111603247693,4.88
0.09121230056524307,-0.03197049543243353,9.742389554438093,-0.019182436819169132,0.012219879830093469,-0.005694265633437846,4.89
-0.14713028925246258,-0.038504985129967716,9.813857335266736,-0.0060209559967505455,-0.01206345893657198,0.00610781923056679,4.9
0.07982351817353417,0.07987121678415685,9.892262728895995,-7.113887070040053e-05,-0.009269725376413764,0.004245560466910432,4.91
0.060839683722168414,0.0011540493407778923,9.724691352447543,-0.0038162769585559824,-0.009735852092592116,0.004786859571026833,4.92
0.0020883384564613517,-0.1235398646467947,9.766834878646327,-0.003913571891700746,0.004352350941706715,0.0037411302140653636,4.93
-0.10051266117736045,0.054190152697846564,9.919437335234393,0.012945720236149143,0.00611439967725151,0.002670140699448653,4.94
-0.15033515459593225,0.042613828143590486,9.803577752360935,0.0011699212308195347,0.016863096449692066,0.023699870530268747,4.95
-0.09215135930227492,0.001046205091921521,9.67159909570729,0.009616927031772535,-0.005031763959459507,0.006577359485972694,4.96
-0.05433737913477271,0.2124988284514945,9.754038998430385,0.00103387279378751,-0.010300118753339787,0.009349347872497204,4.97
-0.0012531013708792973,-0.10482781364939389,9.696595629397388,0.006147793564857765,-0.02854207178048021,0.004434908675071888,4.98
0.1398672873087072,0.1187100877784058,9.787377536516118,-0.00699000598096932,-0.012677782101926752,0.0012415277516392726,4.99
-0.08761839265719151,0.20644943733702525,9.694369498034655,0.0027661177315002035,-0.012868307242050313,0.008316246278214378,5.0
-0.05936223811972699,-0.2137333209852683,9.67565816238259,0.02070643285101242,-0.004535930493636776,0.014851511028678724,5.01
-0.0014366158151326016,0.0511492197753493,9.867800284197369,-0.00035963022078516017,-0.0009159683382099215,-0.009716582062099917,5.0200000000000005
-0.026521471378156986,-0.1687146770152944,9.999090195134487,-0.010527331982765373,-0.0065417114836094714,0.01420826770309243,5.03
0.1630682963259718,-0.05969037309881621,9.642642434929838,0.01255421770647143,0.007912200867869194,-0.006879839156856696,5.04
0.06926740074308994,-0.08767798708872429,9.964321065761391,-0.008999534330908892,0.0226643781236529,-0.0015424458999578955,5.05
0.07536444381054545,0.06341038124072143,9.819396892565498,0.003668135368897833,-0.010553109982726946,0.005177482871843183,5.0600000000000005
-0.07588512865490273,-0.00036086448803976156,9.843309747180962,0.002654614434364578,0.0015598003332308395,-0.002509242209711649,5.07
0.07473584055285178,0.0706932552298883,9.990455779177655,-0.005207580932652622,-0.004769900648124151,0.006518559399595177,5.08
-0.08017063760034107,0.16514774894780582,9.92614495444381,0.0021225619894977557,-0.013290363186418349,-0.005116210368766177,5.09
0.22772913906776054,0.03231872086460318,9.809857690719607,0.0031385756855229537,-0.00439711986670804,-0.0036046510861069813,5.1000000000000005
-0.028060929753609094,-0.03208162523378615,9.689703385162689,-0.009522969985747323,-0.013845823553128309,-0.007941811611356122,5.11
-0.13903385365609786,0.035974175575867226,9.851186109635856,0.002626366675164845,-0.013021695951622912,0.013892792173672293,5.12
-0.1666768037830877,-0.05403606068064365,9.895863946339574,-0.016338079088159995,-0.007335153315667918,0.00297629621884509,5.13
-0.042977074695056044,-0.013375724722840453,9.801263198844675,0.0031374331193745764,-0.002857616147624444,-0.0017709235966706545,5.14
-0.035736154430190015,0.035340070698218415,9.809054387385837,-0.013799224259815553,0.0037274540417780878,-0.00282504160740792,5.15
-0.14655462741757527,-0.11701386187656547,9.710450053243896,-0.013390305947474425,-0.02049092083270206,0.013548778962937907,5.16
0.055842617956935084,-0.035758912524604856,9.797345525532775,0.00021152735162142968,0.00402155769462767,0.009734854313459716,5.17
0.2197795268451714,0.047710527975794184,9.750505934049363,-0.0049848689217741205,-0.008658828579153158,0.005075761546488814,5.18
-0.12617383930430612,-0.09092118507238157,9.748089371449524,0.011676171637602904,0.0015790513884170413,0.0005243132049854765,5.19
-0.011163174471487788,0.05062793284626278,9.79926808703083,-0.001965757686750541,0.005493799132398864,0.014474202591948678,5.2
-0.0925578713380702,-0.05583992491300863,9.829646484545115,-0.011345569703261345,-0.015107904963510872,0.010238326007099388,5.21
-0.07842370626443933,-0.06745743391845761,9.779011357940886,-0.0294814933564488,-0.011879353832850341,-0.010394792718168962,5.22
-0.07287992286004084,0.12379138817432928,9.853335349309834,-0.002222760056929644,-0.009099884660297479,-0.011314555082912578,5.23
-0.07424040812766738,-0.14247244401081846,9.828732838496947,0.002872887412978951,-0.0022282485845201614,-0.0008356691681476645,5.24
0.09502030143451147,0.09269877192005835,9.711087345221014,0.015766834796225947,0.01976860103669351,0.022649055833819078,5.25
0.02128343509967514,0.08233803466773519,9.701955133097874,0.010460867066381076,0.010891818376105231,0.005195075426387273,5.26
0.18228765666347188,0.043348351656116516,9.91267955738371,0.0012872762105885782,0.003505105388059496,0.013846309978802483,5.2700000000000005
-0.041408366240548417,0.09077154116761783,9.858736329924845,-0.004369094413382914,-0.008421157459215702,0.0006652697881763061,5.28
0.22852669157898164,0.021606435359564455,9.791442475167123,-0.0014516172604734565,-0.004813266436696843,0.0025725426503108912,5.29
-0.19698272317198529,-0.017587606160090544,10.029283289345402,0.005739809496895323,-0.016462287877335204,-0.011640322259154656,5.3
-0.07992697437659399,-0.1200721624473047,9.764553420341027,-0.000939759877021348,-0.007735520747532384,0.004394883746339042,5.3100000000000005
-0.08154342751462615,-0.08499511900892975,9.751335573179317,0.005431085594277705,0.0008532675818252088,-0.004939880528863456,5.32
0.011273499869792591,-0.06582856801192864,9.825748644630185,-0.004869104946004497,0.0037582333645229888,0.005804148103706983,5.33
0.05805725700061906,0.04495173763212995,9.615341900913048,-0.011888407922360556,-0.00844958367990967,-0.011309723918231243,5.34
0.06137120912274413,0.017288294493048553,9.847026300908936,0.0019420744085098035,-7.885693414891362e-05,0.0032648336864478885,5.3500000000000005
-0.22229680302791613,0.022046368790361842,9.816609384961588,0.02040383453654207,0.0064930224098974,0.01590588613229053,5.36
0.1262225002423419,-0.1254305880595978,9.706820863075867,0.003806265240708605,-0.005785215823444553,0.015438092212857652,5.37
0.0007858981577446886,-0.0720983543422478,9.951041398023714,0.0009103627030982638,0.0007523706742301343,0.01169017165311186,5.38
-0.020233739361957,-0.017403876723990394,9.781790760789585,-0.008615459268326948,-0.006085091902038233,0.006608598704487666,5.39
0.07613377952220618,-0.12055439901722212,9.845930441868209,0.020011104270688033,0.015321399719585077,0.014956933188686997,5.4
0.0004652792910741128,0.0970200329525854,9.805595787662012,-0.01458656267728676,0.007567277385041426,-0.01105812147187774,5.41
-0.06882778490688755,0.17289622423352904,9.762082162813156,0.007651427251236465,6.41423344894743e-07,-0.0036704440420990297,5.42
0.04102144212102728,-0.10478137661299776,9.985659438157857,0.008118395584104982,-0.003915486633433545,-0.013454814490694888,5.43
-0.0425262415548525,0.11705594744499517,9.580991035874527,0.004761097914523363,0.0009531945223359771,0.02096924562856723,5.44
0.23345416102789762,-0.07626344479551128,9.798474511518977,0.003903060967899268,0.009991660886610292,-0.012372913727864993,5.45
0.09585002817724957,0.06142558406190717,9.714842651776861,-0.00047240950856806437,0.0160065527441505,-0.004385553481059169,5.46
0.09478495580136495,0.21862415385434453,9.684566294140442,0.004076173256921788,-0.00010661563958775249,-0.016020129800095328,5.47
0.0711886200568624,0.04971317861709374,9.842198178563228,0.004144339108101409,-0.0072684279523720086,-0.005206102039417273,5.48
0.07679809033642755,-0.18135662778029504,9.67057319545282,-0.0035412361192951464,0.0009773682695532403,0.010509024445322547,5.49
0.005226207763572968,-0.07358782514116108,9.889145878692078,-0.0016085592920594847,-0.011490253820525494,0.0008605540371591654,5.5
-0.04664203487589836,0.09729551947358044,9.765073203239318,-0.006472755651586144,0.000502643452524985,-0.005870994223363824,5.51
0.016035745849791266,-0.14930298315310067,9.778193095399873,0.009562980699236348,-0.0046427010610804245,0.015008646127651886,5.5200000000000005
0.2033545275773499,0.17918335125909035,9.718545572471589,-0.01712348193137121,0.0030510420909490533,0.003013681333462797,5.53
0.11168184367305567,0.18331938341670018,9.920167206344795,-0.010016306790654765,-0.0007809046686760647,0.007423715682053481,5.54
0.005310614319474021,0.03924233408695885,9.719323867971227,-0.015310661260011318,0.0004027631709996187,0.0035751188717581986,5.55
-0.07251670657260963,0.10455867611902021,9.568144639533793,0.00990879813214777,-0.006596036496282006,-0.008486384851296415,5.5600000000000005
0.00399479817941007,-0.08556980958852134,10.041778340111502,0.004174946227078607,0.007882551346132603,0.00012561707090578603,5.57
-0.06549507822427851,0.16027193929029132,9.805452880007929,-0.005009598787569132,0.0017690716562304926,-0.0063404064121994385,5.58
0.09861280782571401,-0.09417050818384445,10.043590580648457,0.011246603123523553,0.01099201687019506,-0.010755769116258211,5.59
-0.13565109747107137,0.06337242117894967,9.71531825918582,-0.008314973929619518,-0.008312071051843218,-0.01544992192514354,5.6000000000000005
-0.08398667551581472,0.07236894723047847,9.86817752427596,0.0015892430088423853,0.006256072348811492,-0.004983601723135281,5.61
-0.08426071889806382,0.0009023588982160673,9.869644670995724,0.00012128202438369081,-0.0005487842806383866,-0.004208186996971729,5.62
0.06758482908156253,0.11146162496728568,9.787100876989584,-0.008177381839662708,0.003702382991058458,0.011668056060724614,5.63
-0.017351846058807706,0.03362525475717606,9.749025118631618,-0.0023388183831154286,-0.0038450637058478378,-0.005513283677333751,5.64
-0.10812332599094632,0.1615572948305769,9.915597497492657,-0.01476289109050152,0.011143476587737147,-0.004428644417877993,5.65
0.04709150586824949,0.007185445548847785,9.776630131794764,-0.0015451797880069293,0.0005901705423870057,-0.008846135697529489,5.66
-0.043874162875762145,-0.1120164111380341,9.714182167011314,-0.009614846800651366,0.0010879114395946612,0.006682831499558192,5.67
0.02456407337685768,0.10713439817550292,9.728126592345127,-0.027470748452459115,0.006335207122146877,-0.01913494558508355,5.68
0.020776576908566016,0.0557591821770287,9.601055549342503,0.0034982606901905835,0.012779744804585855,-0.0058576663780399475,5.69
-0.07482312234979209,0.11357036100198697,9.698800408250689,0.0035865861762740332,-0.0026265892091581573,0.0036246850918249447,5.7
0.11455834058976902,0.018572568913895218,9.859721323576997,-0.011538202755443022,0.0016196625193761593,0.013121594460420516,5.71
-0.05356065454754223,-0.002388739042305625,9.751607514433278,-0.0017024464740976186,0.007856780473560084,0.007214468242988209,5.72
-0.05463182593724905,0.06476390068111681,9.838605154658671,0.00976843606889464,-0.0037020320441853104,0.00318071884465338,5.73
-0.0019909415385281322,0.13017194432628096,9.644882179622128,0.014251251091594714,0.0024819010702113588,-0.01054124417337319,5.74
0.1084415580306598,0.030914123312720115,9.958287579264827,-0.0032729539078011215,0.00756070135277194,-0.0007346924262473792,5.75
0.20416830810029932,0.11732539164721015,9.880207445733474,-0.0012594035447850097,0.0036498425102272805,-0.004737941800716356,5.76
0.030981386505308253,-0.13484606849784747,9.903241150409611,0.0062482257526863365,0.0008438093158144304,0.010228673692571513,5.7700000000000005
0.10525014560787288,-0.048092215800416595,9.894436977294722,0.0008462937367259791,-0.00033096818595986644,-0.009929396790981312,5.78
0.05048235986688676,-0.02116301966105581,9.798054722003744,0.008455495910408731,-0.012854763928899013,0.0027505209247502124,5.79
-0.07609620183938598,-0.04035158779379892,9.769569715634422,0.0013070493377358567,-0.009320889189463267,-0.011599063050343892,5.8
0.11108359653034394,0.09215631287236795,9.759758497543356,-0.016478427085849803,-0.022130599379924877,0.006657613803151666,5.8100000000000005
0.08457229219574255,-0.17435665441507356,9.794926552520874,0.00794678415727538,0.01720240419934809,-0.012979327473457472,5.82
-0.043226761265985306,0.1322933478238809,10.038226190527098,-0.005033143063537693,-0.016425088538337157,0.018022647210139686,5.83
0.15465460368364004,-0.023968857142603918,9.822067890189171,0.002923430020680171,-0.0013171044681384617,0.004663046238984749,5.84
0.03139202651644961,0.019957636886190632,9.636515493661497,-0.0008222767394460343,0.0004935065085615499,0.014334008279097156,5.8500000000000005
-0.00894726993971061,-0.039120045969876935,9.924993814718718,-0.0006313184896006949,0.0037036434464206586,-0.0017578955640935208,5.86
-0.0930579423503462,-0.031919598963394066,10.0074652654455,0.012902637838803887,0.006448479732868384,0.01517419815376709,5.87
0.023186165035292,-0.14773751076539174,9.637426662322898,-0.0005229535365152822,0.009093961987181213,-0.015052207023410723,5.88
0.09569103478066227,0.019421447035784842,9.878202358330373,-0.006773238859867127,0.014822954084398541,-0.005833958115724707,5.89
-0.15373881964137115,-0.013593114158886397,9.819551836384273,0.01804605686375629,-0.023175183624034753,0.009662608346656793,5.9
0.02570724525413134,-0.11805854954111164,9.821619315745984,0.004685384984593391,-0.004252474707271944,-0.0053249970513071536,5.91
0.02263576239590612,-0.02757852519850189,9.743177301746282,0.008497846331413986,-0.01278976986592961,-0.0002715356097881277,5.92
7.914760475122839e-05,-0.18416133578566768,9.65591160793337,0.007966692301472683,-0.014310430288441723,0.014755350714952565,5.93
-0.0663524703725395,0.1171478066915241,9.803627995063003,-0.0013853115684322492,0.01183923296269148,-0.001682355810527542,5.94
0.014412855953428087,-0.0868570456962452,9.750728680386537,0.011194065876814024,0.0030356086038046317,0.011750424557968384,5.95
-0.09022106907498124,-0.05944335341218985,9.670542989968501,-0.003252311911280682,-0.01902694432051545,-0.013730044733082251,5.96
-0.22930770541243675,-0.12433634881399916,9.921475088890094,-0.0025830196847463583,-0.010731072548564312,0.0033310056809112937,5.97
-0.1834534555368751,0.1490216065976184,9.853288717784526,-0.006526720429958506,-0.015086914388926556,-0.001296197195253929,5.98
-0.04592827123492246,-0.0048720224095631405,9.866161981893727,0.008852039390738564,-0.0020497837368028877,0.0050595619311832795,5.99
-0.0778579395843354,-0.0407284956481537,9.784357019523636,-0.003647522238725632,0.0008996321481713854,0.017982127672247654,6.0
-0.0387561736395802,-0.12130146855258002,9.768709799906963,9.596933393583824e-05,-0.0120518478874646,-0.011459374798755025,6.01
0.09143270229787055,-0.1221333613840763,9.802323942135631,-0.004822988039219092,-0.0014736869474996053,0.012691388798422193,6.0200000000000005
-0.1314678481864821,-0.07785581785934034,9.725285581281122,-0.008004398122993025,0.0023878358950839397,-0.0205105021350305,6.03
0.036242977822065085,0.044129679620728245,9.904060713938817,-0.0031395785471694596,-0.006364269602567439,-0.0030252234867629017,6.04
0.0001545078684560198,-0.08359035470240694,9.85589930657883,-0.010888171141145852,0.002951883121920131,-0.0021406243751327138,6.05
0.015280039079298077,0.0429574658287139,9.730741573569906,0.00019493484279702665,0.009261507590093268,-0.0032161323647659354,6.0600000000000005
0.14186866779466792,0.14048980197629685,9.739919146030303,-0.010169192701873931,-0.0033938008177776956,0.007151977589551263,6.07
-0.058167715356385354,0.0340336223720027,9.936599032486699,-0.004074474855343491,-0.003284730808347064,-0.015083503234138396,6.08
0.12875017665034602,-0.18950116660929348,9.824761861739734,0.0163621729895983,0.0007715620896562844,-0.014455581816686405,6.09
-0.0818206468934409,0.09035855202964656,9.741633878879199,0.0005748833089016393,0.007858229794746882,-0.013415469043935174,6.1000000000000005
-0.061142609446175535,-0.0646472816721497,9.70763243774042,0.006671531566162859,-0.003715784282720581,0.004469746342803152,6.11
-0.05195124056160181,0.13592810334019556,9.864760105742583,-0.0014141957566454041,0.0017089704783778531,-0.008754349614928585,6.12
-0.008303063866024153,-0.03354908888851076,9.629217242234759,0.0030497199791878044,0.015318963024307857,-0.02422310615972714,6.13
-0.043213425164192014,0.1629126772882217,9.89819783733926,0.006287113738516502,-0.015049847119299393,-0.0003384559000485683,6.140000000000001
0.1288317513517684,0.021617625795587077,9.760780572206004,0.006258083624305585,0.0009917034975479603,-7.979581342434301e-06,6.15
-0.08084370655883914,-0.016126512411319665,9.598950827601392,-0.014440270781885598,-0.0034168529200443686,0.0038628853719671914,6.16
-0.02649927562288898,0.0948525217865272,9.856982647398663,-0.01019763412466296,-0.015336878715603464,0.0025334184577180995,6.17
0.05072092526437956,-0.06410404627933552,9.8993140358965,-0.005811539014828867,-0.0026766747925072933,0.010552689117630782,6.18
0.07955758602787105,0.09449853792779356,9.738535635705457,0.012979293131599916,-4.081748166963471e-05,-0.0036256029925474022,6.19
-0.04073496856395325,0.028504935273063386,9.822993236069838,0.008438429172098786,-0.004808729993099795,0.012795624279535052,6.2
0.005378225952404568,-0.04580799611642769,9.65095931579508,-0.014518343282326644,0.002998262561658488,0.008204415141218996,6.21
-0.009272442750494917,0.09577082047782812,9.732745927492687,0.013835660507589474,-0.003275767936786088,-0.0067110943416275794,6.22
0.08388448441568257,-0.11091814540564718,9.738552636300053,0.006046030072062211,-0.005226058220499885,0.010855915242145624,6.23
-0.04233469045423041,0.25468591215223174,9.824953654657447,-0.01113069042043781,0.00545439169943462,0.00033798127489260185,6.24
0.007775687272993755,0.028857456889634404,9.77101970232316,-0.013215445479000804,-0.011079594276835612,-0.0034705171146291397,6.25
-0.16104359927841866,-0.059032969816409965,9.905760272185658,0.009277738503634976,0.015245596797742064,0.018171219589861537,6.26
0.09035384597425632,-0.2066681653920504,9.78430636420403,-0.013637048394491825,-0.008641246010161896,0.002806423996370121,6.2700000000000005
0.02683478058835109,0.08604986719369834,9.63360982903821,0.010858781709369774,-0.011709583177010255,-0.01970031295599861,6.28
-0.06827370373386005,-0.014027182535444112,9.841915549235036,0.0066120721489147565,-0.003050373018858988,-0.0027601386585321946,6.29
-0.01802776332925504,-0.0029166277546743054,9.976503400850897,0.0035524972295818014,-0.0006148837904449262,0.005831465367235689,6.3
0.030653149113351697,0.16245429137448486,9.813735904317403,-0.010409296224073314,0.007214636341963855,0.015107396105471745,6.3100000000000005
0.10597685184868427,0.005933593887911509,9.738255791307305,0.0023910479978260933,-0.012405726327922846,0.021310612946378118,6.32
0.27116834561127057,0.008808313990408562,9.920579112048042,0.017415970445608008,-0.011703834002931648,-0.0007311819046907492,6.33
0.027487335299326843,-0.01869032073861891,9.766741611287518,-0.005106931368881955,-0.0056009180368717095,0.006976502027012016,6.34
0.11311405767921774,-0.06340288103318091,9.885164414315652,-0.006857849823772161,-0.008391428624130294,-0.007940320326875519,6.3500000000000005
0.12395541924454062,-0.16085160528602638,9.943321454655647,-0.018706389937727233,0.006608695400243733,-0.02105065761046531,6.36
-0.09617621009863314,0.055013926628176606,9.748273414371827,-0.01862787564411677,-0.014444783919381707,-0.012662183941507735,6.37
0.09786878220227002,0.16316422267193145,9.83790341484614,-0.007274836204304939,-0.007188352739815904,0.003639884467790566,6.38
-0.01473215305642698,-0.0977900690181484,9.552708693166737,0.0005511102948872721,0.017106106929554738,-0.0019967935260856947,6.390000000000001
-0.07826775785338613,-0.030524692769146662,9.80724649883378,0.0012020041920367914,0.004400290532081208,-0.00045829357618276933,6.4
0.04706150390733731,0.0557794250398389,9.743187124285834,-0.01375742908058325,0.0052885835822724225,0.011281687974528191,6.41
-0.0295686480938917,-0.019207280571289294,9.876598031703322,-0.013772080224765287,-0.010734556294011923,0.0031466350663094463,6.42
0.1826286320921366,0.008000516497028968,9.991768961452605,0.010220763886428157,0.009955755015372544,-0.011859333968868985,6.43
-0.05079501907351062,0.006424545781344643,9.88650988946043,-0.0023636698443152753,0.004441768774418491,-0.004536583951360328,6.44
-0.06733407013888587,0.04833372733963838,9.8323178249742,0.015601266071453034,0.003870403180468674,-0.011706717406634027,6.45
0.0959581379607974,-0.02748564947329047,9.932445905035323,-0.015031761629767819,0.000668176769519909,0.0013536658716188242,6.46
0.1018074294558876,-0.10015988206655252,9.791699805992497,0.004512590662746334,0.0045100591017486445,0.0030274171704285525,6.47
0.09084177729282245,-0.08521201386859378,9.79503661739567,-0.017793513940634092,-0.005336655767890316,-0.005974619497678643,6.48
0.08052312677600684,-0.294191777734869,9.753974606771296,0.014225451151299471,0.013079339734462648,-0.001519092397329309,6.49
-0.04398582977024251,0.05633396616881973,9.952986085254594,0.0018786338177509466,0.006521195001240381,-0.0005666758213382276,6.5
-0.10481653429073208,0.02314266778223578,9.763615340445151,0.001512941558845838,-0.003326118484100786,0.013473802011038094,6.51
-0.0668866435655081,0.043938203718271035,9.924766179020825,0.0032134464145251625,0.012977209046600352,0.007073525717149896,6.5200000000000005
0.09291519597035341,0.1519272081523505,9.748561081259153,0.007146856347018824,-0.017150599010764406,0.0030986746538338044,6.53
-0.15736791396904182,-0.18588308348619187,9.898971304474284,0.004120329816555393,-0.0058071410542034,0.010280295513859417,6.54
0.12107958303043763,-0.025748412861209036,9.841706641384686,0.009175043061883263,-0.019344900941435636,0.016989894519243275,6.55
-0.08707686491014745,-0.22015619779609483,9.778443598457157,0.0027147876786960045,0.02509663036709857,0.009883428633208619,6.5600000000000005
-0.1268945333690433,0.005435568239964751,9.728585146248337,0.01353991231904139,0.0058357700481849704,0.0023312127337681626,6.57
0.01025640873699371,-0.012381076486005876,9.795266735207186,0.005813021289883143,0.0045699950662827235,0.0019268734995952373,6.58
0.04441085091236695,-0.07589081350680502,9.731155191401049,0.010038782651183312,-0.006979571475300833,-0.009853126751371942,6.59
0.14397437680207245,0.0005586824813226456,9.759663964483996,0.007329585623993002,0.024025880548529353,0.017390433707341314,6.6000000000000005
-0.25459655945856835,-0.10292700185662003,9.76668256736117,0.011123415419599842,-0.009588140318174046,0.016669962395752292,6.61
-0.03571342230018878,-0.007257076516936788,9.726676098272689,0.018041395390099444,-0.00032436275201928606,-0.005256611819744347,6.62
0.02660606527378653,-0.02347043730740575,9.936928957443119,0.01070938438106417,0.00025977461033955797,0.014143224679779742,6.63
-0.03647516743384659,-0.0386771394000131,9.875636557023727,-0.003283533554578901,0.007591225319843621,0.003556520223678623,6.640000000000001
0.024391885592562956,-0.026761498855430034,9.846624564638335,-0.027664690280995927,0.002379295513977683,-0.007505173605256511,6.65
-0.019956556690792146,-0.050871696736415506,9.45378882564383,-0.0033223740921813766,-0.002609196381154273,0.013735755820016638,6.66
-0.10965970389469173,-0.01640769681658422,9.918562765784023,-0.015682116885334184,-0.014398393103248952,0.006579632005812895,6.67
0.06136844708517582,-0.20863434222964214,9.738837520476181,0.002038905879061988,0.007649796268804751,0.003217560716576022,6.68
0.10005009687493294,0.08625263757176133,9.91003243055202,-0.00515283650470461,0.012244230665739883,0.01656813830442574,6.69
-0.09390758755667569,0.01492614244113031,9.863957655204208,-0.001778332406010784,-0.0025194491918950584,0.004963711142537995,6.7
0.027953974385989396,-0.08308504492000461,9.652768112167688,0.006772827031539417,-0.00019939576939237525,-0.006878240943399744,6.71
0.11188582981260907,0.018326461752305085,9.732759411668772,0.010008831765012095,0.006281219565781164,-0.001004999678853024,6.72
-0.00981039274211989,0.10913572724532257,9.850505126833422,0.00636503833665735,-0.005036216214782357,-0.00229089638219813,6.73
0.09945280908825173,0.015244858794422979,9.877355356886447,-0.005441756449594355,-0.00657828184776989,-0.0037216278886810874,6.74
-0.04650665452231328,-0.06972969255369862,9.90202420611548,0.010005549171009003,-0.01981922827171723,0.015947149075071054,6.75
0.03296387025847202,-0.14000051065204008,9.744696669959605,-0.00453078954053721,-2.861976388493166e-05,0.005420352036648432,6.76
-0.0336251633218709,-0.07053091578585251,9.763942313058408,-0.008722513751598958,-0.016994043650800303,-0.0010728303388338727,6.7700000000000005
0.08647168898961752,-0.1063303384615471,10.089858351247393,0.004248763176803665,-0.0068261886251445745,-0.00485128005868148,6.78
-0.011756174646990584,-0.05770422101021529,9.819678372805237,0.0034212118086524167,-0.004078896078087136,0.001308967473070219,6.79
-0.034237071029762,-0.22034724157822252,9.743984211360853,-0.00855863801076785,-0.0023114433831912225,0.016578427157375345,6.8
0.24932688750131243,-0.06248668230107173,9.695250320007709,-0.013868423485202631,-0.0031628178780666433,0.002070728630057798,6.8100000000000005
-0.008379526863301448,0.13464199998837675,9.673366622245249,-0.013150009169776416,0.004014623632725042,0.002815917795696987,6.82
0.023875672406195855,-0.08830975517849743,9.853722480244555,0.00017346336695023282,0.009292039125361426,-0.010348738512579588,6.83
0.033483929568007775,-0.025323608880686535,9.70488621608566,0.0026445769371451528,-0.0014280436242302876,-0.007554812526741537,6.84
0.02913753880110372,0.11517651621152783,9.684942236325279,-0.0018112625253301564,-0.0009619488462440441,-0.015382624043948512,6.8500000000000005
-0.15695267084520192,-0.1367325683393472,9.75465978032317,-0.00906430014208532,0.0013521319204497168,0.004103000505928232,6.86
-0.04586084519430129,0.1928878522939956,9.712234921885447,0.008451389609868137,0.004965832685452291,-0.006338661467498146,6.87
0.18333852585109853,-0.027846034405809086,9.88818935750725,0.0005962330818857438,-0.004833928938850782,0.0052330378905031776,6.88
-0.09244630363973358,0.10628925537632859,9.746033714355017,0.003952825480285291,-0.003762798834752138,-0.0028013191812112288,6.890000000000001
0.11081986871993553,-0.007531800326577371,9.728687342260214,0.010876773525269324,-5.698646741326541e-05,-0.0025622963802434647,6.9
0.24634047506483997,0.080803789810349,10.093115300804655,0.009381721719315214,-0.005835259035094205,-0.010252431959302356,6.91
-0.0027222371124397066,-0.027151535213320754,9.812874267898167,0.003903158517618383,-0.009360145554489926,-0.0036586383908730298,6.92
-0.11475610054366173,-0.060936472214930704,9.89858758912143,-0.009734501384788522,0.005637435048174332,-0.0017363668194066446,6.93
0.16573344957709804,-0.07593593234464413,9.863083041595452,0.007084778331819565,0.024928619511041236,-0.0045072187874391914,6.94
0.0073143097960119315,-0.020759285939279656,9.675402471151296,0.01399270109485956,-0.001720741213587006,0.000581311049349232,6.95
0.016775722068150974,0.04423781522058823,9.969843828918926,-0.00027826108203805633,0.00877227788191472,-0.015559938336145251,6.96
0.04542280073494884,-0.14887133531396896,9.945045628055551,0.02226856342150249,-0.012172791359444086,-0.0053024874318425485,6.97
0.15073524724616885,-0.016002209831487143,9.80959479157587,-0.003455137983632845,0.00949710084995004,0.008641804741989341,6.98
0.04939169183897052,0.0037105744766685214,9.975401760726669,0.0020178027801994207,0.002709989278908247,-0.00012096932427231038,6.99
-0.10217603243048934,-0.0676318788712823,9.878105044465995,0.008257434533261866,0.0022965401187366157,0.005311193563580218,7.0
0.08791640695794806,-0.020870652918092022,9.738998396490464,-0.002293179091221818,0.0007507857391458946,0.004608758622275995,7.01
-0.011785349797366259,-0.08116920990605539,9.736254281550583,-0.016207787021649295,0.007551028260219805,-0.0013851445665830978,7.0200000000000005
-0.02482446962980429,0.06673347443452939,9.801884951553514,-0.008454485755188328,0.00031558203836455927,0.010922580869697687,7.03
-0.06363712479732869,-0.05736385618898598,9.842452461252647,0.015012581297947624,-0.0006310018726192419,-0.014653260646530573,7.04
0.10680732434341914,-0.06770076712711026,9.78957751156649,0.011132055533837611,-0.0016580023271653011,0.0010099804656317185,7.05
0.1309362656714366,0.09468045983783428,9.91852089862366,-0.01041661443991753,-0.008014992953379717,-0.011073712277571693,7.0600000000000005
-0.13453912715627267,-0.027435793681900456,9.66026109625976,-0.0007345554208196963,0.01356517624656175,0.0032729517221233113,7.07
0.09490082146493932,-0.153766909789523,9.611781856369522,-0.025921229689444228,-0.0034437528350871856,0.002259710415525594,7.08
-0.15711578048696864,0.04445669162423147,9.873808520256818,-0.0022881657945581797,0.0012626989141606467,-0.01944316733843172,7.09
-0.19668013511326407,0.016747123273316414,9.801443776756573,-0.003614601678346145,0.010411699283858789,-0.009901377542963751,7.1000000000000005
-0.015661685244550277,0.1828134445911025,9.923723859168218,0.011893155470093082,-0.003615134826349334,-0.01614541214574074,7.11
0.0415116211301121,-0.2404285925037237,9.76732079165031,-0.005685109253330838,0.010427901436836336,-0.00710263846026292,7.12
0.025205928199272195,0.09529097581329789,9.838918973339736,0.009246160699939205,-0.008141044258630908,0.008213673885020515,7.13
0.05656301166192362,0.0880521466930771,9.790249083758198,0.014449778943029772,0.008935987910197899,-0.00788872043641765,7.140000000000001
0.005229162513265824,-0.17202414025519827,9.887018563753594,0.003217947505305367,0.010512825360406423,-0.004082060513516018,7.15
-0.028917849493513448,-0.013724768317568976,9.751306839769262,-0.025078517528347315,-0.006561360523744531,-0.0021030756802093886,7.16
0.09633604602538792,-0.06424884262520414,9.915299891650095,-0.006538521348121272,-0.00024412800393163364,0.0030263339051539817,7.17
-0.1528175898962015,0.1038553127249111,9.858166517857162,0.007893816471674347,-0.000180920712876324,0.0038086945806236044,7.18
-0.13508232782436544,0.10318116653107778,9.995764429903767,-0.012175515777969464,0.016951251528777803,0.005073952376105267,7.19
-0.013928849438544234,0.20766015513331593,9.806313457273776,0.002742913447599036,0.004443747911352063,-0.008769437446726439,7.2
0.11171978305661363,0.01408257271811492,9.859337405104014,0.0088071773447063,0.0032465586606527266,-0.006808080076508341,7.21
0.06836076832859254,0.02590932825210848,9.815288958510944,-0.0007150981421639829,-0.008865867776804051,0.0035414374195905287,7.22
0.023862114770293572,0.10256804552604043,9.690161231878935,-0.00022550886866096176,-0.0008992952139935973,0.003923193317850131,7.23
-0.010686723221731972,-0.01011152173852241,9.724116601809376,-0.008094803477992357,0.010675691952550385,0.00013322181038642134,7.24
0.07494182313189486,0.01319024194376131,9.750170537758262,0.014945490137152613,-0.007482474188595338,0.0179590585526857,7.25
-0.06512268167710764,0.10646475104638949,9.789457546430528,0.006568624302352687,-0.018353580402811077,-0.00013711707119699017,7.26
0.052915896559983557,-0.10528609954838977,9.700619717957933,0.0018444705414054363,-0.016319678546809747,0.001423732223587925,7.2700000000000005
0.10166216326924636,-0.04005052983460806,9.570495085436598,0.0014593610990452652,-0.0036872691545173746,0.004163028439858689,7.28
-0.07720347349116678,-0.06092800922194337,9.759261445180737,-0.002644551223451374,0.004636510034461051,-0.008553416999509728,7.29
-0.21461893056383283,0.015336997372702707,9.828339855671668,0.0036294779774917216,-0.005552518742746589,0.027556325715735734,7.3
-0.24609960147273624,-0.06757320239132879,9.953439421538635,-0.015823763335591764,0.015059807811706492,-0.002980481155890963,7.3100000000000005
0.01625837054974329,0.189786498856103,9.74480508173771,-0.0028823420686885136,-0.0013613039591203783,-0.022147638397198657,7.32
0.08977653637867433,-0.08839021394893204,9.771805091413114,-0.004239361087104534,0.012892080396138131,-0.011459983896144254,7.33
-0.03201574925530454,0.032674005578816695,9.875719379050661,-0.002484951832737582,0.003476449676422723,0.0029068666529726206,7.34
-0.3159082461394701,-0.08550813934960778,9.991923533546649,-0.0003986258240320221,0.003623991247666014,-0.001605505209234326,7.3500000000000005
-0.04817491529398552,0.026058871125304712,9.843750879762398,0.0017241357393117352,-0.02519453160784847,0.001864968186771893,7.36
0.08997279263212904,-0.013790138215663904,9.754750206116992,-0.0046359563738294805,0.009947658762945599,-0.0058683916526516035,7.37
-0.2504493552342534,0.25471536591907273,9.979053246979436,-0.01753489232279856,0.004286431812589824,-0.0015660770738257686,7.38
0.04203788891078027,-0.2025178942483895,10.066252943355202,0.007091431065966298,0.0018869047720674811,0.001550630629708263,7.390000000000001
-0.042043664350024795,-0.1414918657892473,9.931819876754929,-0.009863147016318932,-0.018776498931084115,0.0013628855266973117,7.4
0.018206522166913246,0.03238379743600881,9.713615453800717,-0.004797334134717984,0.015293969840139136,0.0029377745462173424,7.41
0.016236683072676915,-0.03466621867181952,9.74475210228287,-0.011106816943462097,-0.006689442169755746,0.005372766280764717,7.42
-0.019249160997243484,0.029054090833930457,9.771160269036987,-0.006544121087377239,0.010813154605848056,0.00012696090226158187,7.43
-0.03809049915062466,-0.11676247611626603,9.719724892227035,-0.004674855802452365,0.00396834209416814,0.006921909360988241,7.44
0.027378466982104943,-0.14735206296555328,9.847044983991335,-0.002244415614541246,-0.006490120035090992,-0.004352941620823951,7.45
-0.01666267558530513,0.144714380671054,9.802924705041077,0.01615430782720591,-0.0026898829223469785,0.013118896100403689,7.46
0.06739943603775682,-0.12889088025629677,9.915403800252026,0.0021759715566722583,-0.003134910233327099,-0.0019924149441701176,7.47
-0.007518017007722761,-0.2184697958503609,9.644656663924332,-0.005266701430820439,0.004853456326052564,0.0069739230980839315,7.48
-0.0014125736408598694,0.09191244829337758,9.757980818051443,-0.0035441124428994843,-0.0023718918787349118,-0.0019681812068501076,7.49
0.023992273356703814,0.1662310526010792,9.850301625933854,-0.008084708077450207,0.0032170925149814017,0.006654146615845583,7.5
0.1746502344488204,-0.05881414310946144,9.87798031191855,0.01742770878761166,-0.0022362390125340707,0.0014281703807340557,7.51
-0.005580663416862655,-0.07565886948832917,9.772739801872055,-0.002443325686409032,-0.003540497694318447,0.0029340771943659437,7.5200000000000005
0.007657793073179132,0.06420993955549681,9.904805205988492,-0.0017632540163429993,-0.0010396886173030646,-0.016679014117267823,7.53
0.04263155273292073,-0.1983151083842968,9.926180384591971,0.004689456507437142,0.011306681620378218,0.005050669793206496,7.54
-0.22567390550663424,-0.24210465704644368,9.869020364855146,-0.004461061221329819,-0.0008959162399370538,0.0022644906709461737,7.55
0.020118413711461516,0.016846187007180286,9.771548988231583,0.020211741027133082,0.01983839091475727,-0.010981880326997026,7.5600000000000005
-0.11363078843756735,0.0025283686359046076,10.09734990409318,-0.01008795439262732,-0.01910030734658572,-0.004661127124412738,7.57
-0.0590258372812214,0.06983844001820569,9.732857762808804,0.010219662122538121,-0.010285006558011876,0.008061032695418866,7.58
0.025834952821777758,-0.028694401317754678,9.817728562038504,-0.005055557152358024,0.005478544987312294,0.0022426748376900263,7.59
-0.10727504676487332,0.009400638635324556,9.678679158889647,0.0029489873486107554,0.005663886700715372,-0.01375913321740041,7.6000000000000005
0.21304432462739029,0.057183754184083925,9.771634722186564,0.010793750254743389,-0.008185927169194513,-0.012741088466591733,7.61
-0.05556265636869234,-0.06352853522904449,9.84246311516142,0.00371783953478051,-0.009604539442967953,-0.015102607930184045,7.62
0.04203297486876853,0.1574748125028146,9.862729616898084,-0.019213142628404144,-0.010105440490359854,-0.007370593498115046,7.63
0.05162746970920617,-0.08816610578165311,9.759988309392927,-0.013025446517124064,-0.0026457763269580594,0.014053958368159711,7.640000000000001
0.038372282285811216,0.08486145245128429,9.731587614135245,-0.011497945487844686,0.0018284472307388334,-0.0001286404291047586,7.65
0.018480757273852063,0.10435690158179403,9.9634883416297,-0.01394852530855494,0.011711815286161378,-0.009181970187433943,7.66
0.10888133426869716,0.23157193739373172,9.888289462269165,0.01424268359733007,0.016505951851918308,-0.007990315061119354,7.67
0.060092732136233264,0.13834995859638508,9.851061408515712,0.004929322001509567,-0.013310563267992397,-0.01055668754987589,7.68
0.06882387926800694,0.14536902472113247,9.795687071386038,-0.002526530698427073,-0.005143717792896764,-0.0009405808532974659,7.69
0.05560681645799799,-0.2020753562631169,9.952829884496278,0.006083247827929243,-0.005334066818898729,-0.006223784967904146,7.7
0.012742821855061462,0.037756422901345364,9.851734443541643,-0.00648336248338576,-0.002722765877389947,-0.0011661581848083577,7.71
-0.028515448825324287,0.14092642824229226,9.828449962683965,0.003642118102764666,0.009570680943477402,-0.014860864594807364,7.72
0.052014348904746946,-0.08730629145519134,9.75372758087605,-0.008954710609781433,-0.0075702568518826365,0.011698455778018238,7.73
-0.1739491753226195,0.0556851175819635,9.792420362836584,-0.008755309488086295,0.0021627256088130476,-0.0027226642383220436,7.74
-0.09674557038947618,0.047482411583969854,9.826845168644665,-0.01982959997981413,-0.00999398784468537,0.0024670344865557344,7.75
-0.11619749960205739,0.03008116224870719,9.88104209319209,-0.001674509839944224,-0.01589189550562239,-0.017628878442812232,7.76
0.041476837002422016,0.16053278196085255,9.90683311877278,-0.017820739780241866,5.2042950127059156e-05,-0.0043447803684965374,7.7700000000000005
-0.005587038100761047,-0.013431140494397007,9.899241644939739,0.012780421540454943,0.01016341268654584,0.008254175205677613,7.78
-0.14438835570527825,0.0654494197627096,9.906579201487455,-0.017999613176384877,0.009890439332972692,0.006066358069238477,7.79
-0.0034074936767050147,0.09008619548302406,9.897551929279814,-0.005373491246891325,-0.008482951280992652,-0.00882828835639332,7.8
-0.007726701538564313,0.004073027013696904,9.824441889443891,-0.007217043575739072,0.003031284124033476,0.009947391291773468,7.8100000000000005
0.12621701343674036,-0.051117985566582105,9.758264996048624,-0.004226132818665246,-0.0022306345773981944,0.0038607020768183075,7.82
-0.0860290796236351,0.06895745753137596,9.866280055186644,-0.0022544519852100613,-0.019512120493000433,-0.007733767980477435,7.83
0.015049881477504926,0.01132611553895694,9.784630230945126,0.012107438067287968,-0.009468572989277639,0.013209843645630109,7.84
0.07606812985955234,-0.08435766833303317,9.917304656612934,0.01988833083709545,-0.014938940382579946,0.0026110314521492605,7.8500000000000005
-0.07942143587702472,0.0532055081730682,9.740444709907328,0.0027615781155008005,0.0052378035634877695,-0.009753016900620559,7.86
0.028345386299780586,0.010387007519694649,9.747414959256766,-0.008124518460473512,-0.0013218858974301747,-0.007634196709495009,7.87
-0.0035598913618051387,-0.14325680944169525,9.87315286216275,0.0013803889527290365,-0.003549950177651018,-0.0063243429336228354,7.88
-0.06403460144745422,-0.012873087635892552,9.728996403022428,0.004564705971438834,-0.0037263633578048213,0.005276480627357476,7.890000000000001
0.05882777670861614,-0.16541789238581953,10.044473930006202,0.0038590763236350835,-0.01675680710231916,-0.014434275378373152,7.9
-0.10051728084737876,0.11994494262162965,9.786630686467353,0.01978255831142851,0.000711206865535537,-0.0053106464274447545,7.91
0.03719294077569782,-0.02361750352130243,9.882942125707322,-0.010209298173927643,0.007181025523605992,-0.008372277588614061,7.92
0.12630240864283276,-0.043380303986602024,9.870890281789407,0.012373457766968915,-0.006182984125858963,-0.014914335095664023,7.930000000000001
0.1618054477886048,-0.05848034999261395,9.82074515890241,-0.01232912373721118,0.0009773237046554386,-0.004014049763419126,7.94
-0.03998276991208893,-0.007422875014418476,9.928132823442155,0.0099481891709619,0.01627678342571097,0.009791745980977708,7.95
0.010220868724654468,-0.21825256875982932,9.942904807829358,0.011454289459667866,-0.0018082247544442154,0.0018646923347615813,7.96
0.0064363884416160245,-0.02465836312643927,9.556185183956293,0.000498237731024921,0.0024217219135992184,-0.004622197496078552,7.97
0.2028994658141896,0.214745437290014,9.743025292795418,0.005173858253288108,-0.003759941616193508,-0.012249310233729762,7.98
0.10807426199295565,-0.055045903676833985,9.711831173581933,0.0038812354768488896,0.0008060291762933703,-0.005551182909570822,7.99
0.11848727707143757,0.13865225430856032,9.893709824951765,-0.006212179204438586,0.00574100959693467,-0.017839580123585247,8.0
0.24770954936041822,0.030377221939211774,9.837701632358188,-0.0022943259739616893,0.008635734581792518,-0.017429736510624724,8.01
0.09166563079590347,-0.09352078760511612,9.915375202877614,0.005923292529303293,0.007267188137756964,-0.0073937075768647125,8.02
-0.09215769610312595,-0.09068428343606803,9.779647554182308,0.012497679299417641,-0.00808120247060114,-0.016077830680367076,8.03
-0.08551416748789512,-0.1296460870729845,9.775620178473792,-0.005213823403282775,-0.006680349077088729,0.006680040212199558,8.040000000000001
0.059534512675674146,-0.02708267954099157,9.726516413959564,-0.015265159951100477,-0.004824049542591124,-0.009457680911593044,8.05
0.09692046151863529,-0.07652425943684749,9.985455634654274,0.022922010852541565,0.005838882877505704,0.010675599847264216,8.06
0.11690310230106016,-0.08423303561915635,9.73339166115137,-0.00943866415597913,0.016300003709943677,0.002530284506798906,8.07
-0.058467371166613095,-0.218892532339722,9.781496756447877,-0.003134661009393376,-0.0024028254913722033,0.02052408675368516,8.08
-0.22073619951856494,-0.10497366048046877,9.732724246913362,-0.00720157476281625,-0.001646473400007619,0.011239593553342031,8.09
0.04735192809311914,0.08341737982467404,9.736169112183306,-0.0023374202699554198,-0.0043956353624899,0.013561646137052227,8.1
-0.043869389345466,-0.28064481999910396,9.780135830754725,0.010020636317526593,0.018408146232304832,-0.0018903006582842521,8.11
-0.1453654611787671,-0.09724679613791361,9.900083072058363,0.006634479076374889,-0.003648097478066331,-0.005154294122314199,8.120000000000001
-0.027645995776397272,-0.13235273500940778,9.75834993255855,-0.009716188758315014,0.008044874713437337,-0.004713425981657547,8.13
-0.06480199297685864,-0.02641759704269165,9.791069643472989,-0.01685452547414175,0.007648599204913806,-0.0008283307852615131,8.14
-0.12692829385088614,-0.06490349870668953,9.795578198474665,0.01905333587274253,-0.005299548777877198,-0.007975569675366842,8.15
-0.21490666888543802,-0.0034390993244482735,9.818404335787141,0.0007110552927962538,-0.002221929079532438,-0.007617747586684934,8.16
-0.027503494976903905,0.015251420558939556,9.82428124602078,0.010670109344945888,0.001837910849956812,-0.011025341209427079,8.17
-0.050202295378222586,-0.05597314195041478,9.716361103290676,0.007384661799334821,0.009303289895070366,0.0037109576222618223,8.18
-0.048063977129894554,0.05526597089463369,9.922283371505296,0.006058390499150829,-0.014423027498012877,-0.007183240173609408,8.19
-0.06536843767143595,0.07569718669928359,9.891309105437024,0.00493249207724589,-0.006646882867946454,0.0013820439967409004,8.2
0.07205564507512345,-0.007451355144711901,9.655180053673995,-0.0038120486079760802,-0.016689740360820736,0.0029629131918750807,8.21
-0.032883419410734305,-0.10975303177470207,9.939696519825038,0.010141476890388815,-0.016588869722693324,0.008640932091017394,8.22
0.08858028033839616,-0.14339791309688754,9.645556295259377,0.017221511364060662,0.005172003822079174,0.01598945709967413,8.23
-0.07395632882486483,0.008720623826489422,9.730917426943646,0.0004922150767680588,-0.006191652361106275,-0.005014347624523673,8.24
0.028546755186832168,-0.11382086090256133,9.712411805768697,0.004061395717509092,0.0016438925487444378,0.0022800257434863764,8.25
-0.010465248277317122,-0.132522056163257,9.712320465660085,-0.004024348908567365,-0.02594481990984795,0.01773104512883356,8.26
0.10424360252939398,0.07591941421507122,9.914067491940227,-0.0207826728343506,3.616244808087457e-05,0.01036849996065246,8.27
0.23006913442459928,0.09266594911683657,9.632846469701736,-0.009597885924439843,-0.01706779115738047,-0.016582882166302767,8.28
0.13289909425287708,-0.08200996751560824,9.7708611933516,-0.0014668426343672142,-0.0008246207395435739,-0.002659308779479836,8.290000000000001
0.015714014413999177,0.17201721725162605,9.770071267843297,-0.0046813248970250035,0.0032159332621942093,-0.012852545647518103,8.3
0.09699384898657361,0.192223711629757,9.748053735977082,0.005154694159007833,0.005284009711662532,-0.019360740446884003,8.31
-0.03459091838993575,-0.03560738807785382,9.813970654954685,0.007385233417235224,-0.006377567818495148,-0.012183884193569514,8.32
-0.03003045641469408,-0.06007369123257921,9.73367746813026,0.007576847938629679,-0.008303347264975228,-2.3974663482411e-05,8.33
0.11379971057210446,-0.08787692634551748,9.717149945714201,-0.01966148564013112,-0.010704939709113927,-0.005608816116021753,8.34
-0.0064079487193994394,0.047895884814549865,9.755908898009206,0.0013221880780217288,-0.0047417761117838995,0.009958824295342525,8.35
-0.1738044636022101,0.16117727785896274,9.956471066046118,-0.014715076029671459,-0.004223839673663644,0.008169580591249642,8.36
0.11529560318327625,-0.06093051191326039,9.82426560735674,-0.0014095632017908635,-0.0016033847380680685,0.013890931157096687,8.370000000000001
0.11118127052612421,0.0987176422984367,9.640945974968052,0.018288497698496105,0.015286528039178165,0.009501955028872362,8.38
-0.197224297676171,0.10634858709708767,9.903348905262392,-0.005983061105043009,-0.0025603800260353238,0.006002842762877302,8.39
-0.15934762559784554,-0.17340502387735326,9.804001882999147,0.014424582926197964,0.0012258443831838987,0.002606847105718995,8.4
-0.14140133073647232,0.028774433665096185,9.90934998945119,0.02179685191163224,-0.01001252079472236,0.006018952838313756,8.41
-0.01284285874491403,0.047762121641249024,9.669536866287944,0.018810767561216767,-0.000782207207388813,-0.0004164329385242937,8.42
-0.16527643893503555,-0.07219438063808538,10.046658876477013,-0.010495705202951691,-0.006072001835506343,0.006141022489871947,8.43
0.04740836682274058,-0.12262106639885247,9.66152503656497,-0.010604528337284693,0.017408603952188552,0.021997443263331955,8.44
0.036525529873761724,-0.04258246526907719,9.846100536834468,0.010417900226517925,0.000361633726065322,-0.012445594620730534,8.45
-0.14147996225987233,0.011306138010126962,9.851852054164171,-0.013366614827624898,-0.0013934342027591433,-0.00905957206150086,8.46
-0.09543536169670845,0.012576085570864787,9.746997747790513,-0.002004649118374192,0.0007413196054953736,0.005175863368939935,8.47
0.11882201174106194,0.0612068075555298,9.855050067186003,-0.008531092048524867,-0.0007945871316918682,-0.002280473759480549,8.48
-0.016583465476253764,0.014126223791685705,9.696478694478039,-0.004968615023771463,0.006321367253094058,0.0072592663182681275,8.49
0.05367741903514858,0.11375562377532758,9.680784613281675,-0.0033194293655733655,-0.0019039016968771668,-0.019281447721385975,8.5
0.09512247279575906,-0.020414782918740826,9.747684480835636,-0.030075568211761185,0.013183931694190259,0.0028216935572038964,8.51
-0.22492022278343415,-0.031816715695998435,9.693077332088619,0.006123172028923626,-0.004741246597496657,0.011545540476078822,8.52
0.08508798281670882,-0.2219049867404891,9.90212414012027,0.0017986293883722204,-0.009682994730418072,0.009823174943631593,8.53
-0.04779643793656236,-0.056212929651153654,9.782357500850736,-0.01369948929313809,0.007283405160285901,-0.0003018934836297204,8.540000000000001
-0.059884579402165385,-0.08476958279325075,9.917530474681909,-0.0024054663703191597,0.013858006019736129,-0.01079015912903101,8.55
-0.06531822973653036,-0.10267945216718993,10.015778952237367,0.01320922125489882,0.007158842043108245,-0.02339358119470074,8.56
-0.27321226485053346,0.17815237079447735,9.862952765359529,0.0064230456751404805,-0.003390720643131855,-0.00819699554162298,8.57
0.07035297236167531,-0.17764386761825093,9.861822542675572,0.004677616607653471,-0.0015335743648645342,-0.012433801934246804,8.58
0.1477559573662666,-0.028414339588420906,9.871132319100433,0.00908713597836841,0.014311506278806885,-0.008797656864739729,8.59
-0.08034401285876652,-0.2104991657780623,9.874428106393161,0.007016118925995069,-0.005830815377695698,-0.0008343527162496776,8.6
-0.0750570526923271,0.14259769617632342,9.927983956241189,-0.007809904300892885,0.0026005134104743165,0.029278357383110742,8.61
-0.021437776650220924,-0.0643877850517648,9.850092606661637,0.0028274738621082442,-0.016680323016929288,-0.003579515706100396,8.620000000000001
-0.14953613803545723,-0.046199880346897086,9.608880922917601,0.01396836637241426,-0.005918430608725583,0.0018503971607208764,8.63
-0.1079084312742046,-0.011654275937151144,9.77564510475503,-0.0018448752209792025,-0.017446273310461828,0.010722511361458844,8.64
-0.09823033315039759,0.012870336364875314,9.945075860928364,-0.0075962297560476354,0.00886967963279691,0.0029784192255437976,8.65
0.06289127832890577,0.08992940811884803,9.896651619638162,-0.001379632316670594,0.02097775509030129,0.0010694405437295315,8.66
0.1332160456755626,-0.057038871729714884,9.856394998846312,-0.0071525750206683425,-0.01478932464840835,0.002344267829027005,8.67
-0.15934083357387577,-0.03136794354315794,9.917703765132712,-0.003248054732378901,0.008381674833627964,-0.0063132689968603195,8.68
-0.01610771396243264,-0.18362111805054174,10.017671150805198,-0.010331443759467327,-0.0019947128816476126,0.014225199272810875,8.69
0.06727357954582262,0.15596020020471638,9.506298392482023,0.01394435905648315,-0.006189074673541929,0.0018098762418640594,8.700000000000001
-0.23000069523380107,0.1178173829936883,9.844402020480313,-0.0025055851053721895,-0.01419984713843775,-0.008134128814465015,8.71
-0.10388408244363122,-0.08057975306211548,9.677314758293303,-0.002762837648041073,-0.007623728903009465,0.0066302422422730226,8.72
-0.14466593248343584,-0.2041502875097484,9.80422280115938,-0.02526479655500367,0.017147072710505716,-0.0018138147954116846,8.73
-0.01713121620276543,-0.004812951630276473,9.775686012916637,0.01253724666920575,-0.013729357988135283,0.011924924869589529,8.74
0.16598041048138418,0.08536383723666945,9.82436680982926,-0.008592683572487601,0.013450066428925007,0.00450188218125114,8.75
0.03711684221875341,0.2010493244093625,9.730287990909028,0.0008846010253104269,-0.012651768196870751,-0.011421071666311549,8.76
-0.06000653876685842,0.03623000331963499,9.640945409940956,0.01712675683899745,-0.00548899246811635,0.009110135937038273,8.77
0.028214813633606513,-0.10174349287361868,9.845907920509456,-0.009924878214327132,-0.001871092260013699,0.019476506614709514,8.78
-0.06782074455408302,0.026307999941617116,9.840277942169829,0.010063836551609685,6.058775549029079e-06,-0.006035111044277045,8.790000000000001
0.010487526862589497,0.12385915705967153,9.827003420368282,0.010711783391883152,0.010650134257281412,-0.004079197603124959,8.8
-0.19520652571427663,-0.11709390659576879,9.717004281345917,-0.0003492017340357168,-0.001874368678683129,0.01020107682006374,8.81
-0.011524464657562287,-0.05157370341578869,9.800805420548688,0.012662845676311561,0.00500895709363388,-0.0156791934077633,8.82
-0.03222766452367465,0.0060694356147937955,9.997460378124787,-0.019814981129685567,-0.001824034699427523,0.003105711932475453,8.83
0.04212741429820608,-0.03848623422052265,9.752589879869307,-0.019412666524299498,-0.012010835475827056,0.021536418613829975,8.84
0.0025427722863626875,0.1646665149534213,9.829652435026324,0.0011720419511663483,-0.01388943747645921,-0.008548677765840132,8.85
0.036843734939259944,0.022167420013250574,9.86505288310563,0.002607278700903889,-0.014670676443690904,0.0009252067815044179,8.86
0.041648452642557135,0.16838614360217258,9.81907977816556,-0.001417998795045428,-0.005439197689391776,0.00042384117627224604,8.870000000000001
0.1340648589988259,0.09066679986492651,9.770351299777204,-0.015360728879963923,0.00961535005772171,-0.0037488166498262088,8.88
0.030127700129243443,0.04863745269957785,9.704050532391133,0.006508678237478089,0.0060442597269997865,0.008111678720728216,8.89
-0.08279205480255626,-0.1487616446208116,9.765582619919677,0.001127739644012036,-0.008969268718018106,-0.0024616295178224975,8.9
0.049935899282970354,0.08530724686432334,9.85704977807864,0.020127341776855993,-5.076824484111072e-05,-0.00986831819419699,8.91
0.017313033114613276,0.006722254572035233,9.950750202419837,0.0032451750798225343,-0.0027817814150764616,-0.0003304186719983996,8.92
-0.09686848754062466,-0.02694687097114214,9.639569037108375,0.016385760063509457,0.008660479852051556,0.009681112458382563,8.93
-0.08234465037189259,0.12401687750382273,9.781429760479018,-0.01878372577983917,-0.0015478910926868515,-0.0018257557885973576,8.94
0.030415172657693536,0.15864569216141527,9.871603595129136,-0.017146824159073232,-0.0019321109289162904,0.011032149009459029,8.950000000000001
0.06688621805825923,0.03073416555604294,9.830065880216756,-0.0063091312457923135,-0.009888978510917341,-0.006973290532606922,8.96
-0.08074699506677853,-0.049278487744379956,10.00573920741318,0.009980007519784352,0.005803059711440389,-0.004276268569598989,8.97
0.08702187877228285,0.07260379100416707,9.81436011475928,0.0011145547897334785,-0.01168964622329582,0.00254883823635085,8.98
-0.11421708045309197,0.02214341939047902,9.934825680659266,-0.018104612650481716,-0.00659811251886366,9.963770514002466e-06,8.99
0.12918699447900825,-0.05823978737780644,9.849447499895819,0.0011501408893459986,0.008359484658179307,0.0004312488357787107,9.0
0.044314965479462384,-0.14574180065568917,9.915905237578931,0.016146227365854478,0.017265550785202186,0.00803437420461228,9.01
-0.17373586338850933,-0.261123138703542,9.854769787469994,-0.007684797741309637,0.008860783335614715,-0.00039315083140048664,9.02
0.10448679971196283,-0.12650450079153494,9.78309377861757,-0.0036205333298856097,0.00628636776249285,0.0013833554384980805,9.03
-0.05045999075937385,0.18812928564116452,9.975123777372593,0.005654559873312092,0.0027897785647335144,0.008435226917472364,9.040000000000001
-0.05830143496654882,-0.04247648089039566,9.897108998541812,-0.008490496348580408,-0.0006745552039688867,0.0010085734140971613,9.05
-0.016780706925487953,-0.1457113936623515,9.95303292047116,0.009034504883007992,0.003924599595757609,0.0020907824171317027,9.06
0.07354655765670191,0.07739967579299514,9.995204443338169,0.007170146890695863,-0.020620348676527116,0.010049677039964091,9.07
0.07648497283097778,-0.2679698374249253,9.71779854891928,0.012208238168700355,-0.007857650634479154,-0.009302080869609068,9.08
0.1450352085512484,0.031750598460357535,9.813017028586483,0.022399462218035827,-0.0018558902869959004,0.021807159888526807,9.09
0.04353553012394121,0.012853389820924543,9.739044068611381,-0.008013573155966432,0.0005615378195406232,-0.005015577827505574,9.1
-0.03775404983475199,-0.05762986178724873,9.761610541128608,0.009043067554553776,-0.010981966130092486,-0.005195839326503514,9.11
-0.04836073063156658,-0.015362897259201164,9.965407507113765,0.013371173291928658,0.009858222562770453,-0.00658931995419903,9.120000000000001
-0.06267266174427932,-0.01244842456419873,9.754029067483227,0.006172276736965801,-0.0014011013804682373,0.004229839181522081,9.13
0.07958905584925119,0.11338772964232735,9.805151841610977,0.005689303335625538,0.004249127872211773,-0.012656883363884777,9.14
0.11225851377664,0.1132442942892322,9.85491194467296,-0.00096506053497427,0.009756402964651472,0.0031517329909104773,9.15
-0.025442589938411482,-0.019805497410637037,9.755194779979476,-0.010452173975754254,0.007238518967225879,0.0014950794613950297,9.16
