ax,ay,az,gx,gy,gz,timestamp
-0.15175573694871508,-0.05497569540481126,9.76603555355653,0.0032725962822471523,-0.0005288779668766311,-0.00788290110713723,0.0
-0.13448003361397895,-0.25151581398118844,9.77492559561851,0.005709732847787768,0.02089281528998585,-0.01009398092895339,0.01
-0.020788474597822543,-0.20590223182487422,9.726666621270816,-0.009732919136767403,-0.01084810685440638,0.013568586553772693,0.02
0.04982877057801851,-0.0189185486242109,9.759768049048946,0.00039394968378153535,0.00972910040373592,0.007174815793000621,0.03
-0.02336452435426292,0.11846121334378615,9.800179841363851,0.01715365540016087,0.006325236238930371,0.010211870861147266,0.04
0.09009811062191748,-0.010939164477541743,9.755113044782956,0.007650537481719071,-0.021445886545288895,0.00031786443546578204,0.05
0.00773158325166327,0.08414076370746212,9.73005643078663,-0.0030734946853103982,-0.006596099901469433,0.011506415845816824,0.06
0.11157547949414055,0.0038723131674186437,9.683535321292954,-0.009718882170447385,-0.0076159596496835355,-0.003900139418459837,0.07
-0.020783787567376828,0.03695455110373763,9.968873818125669,-0.0033517019202514036,-0.004578016700018904,0.004014163112865153,0.08
-0.00799970312911772,0.12304601750239011,9.748920635184135,-0.019764958850554452,-0.025370042977729,-0.011673371740421426,0.09
-0.10335366542573302,0.12254985688719114,9.70373033149941,-1.3216190407599454e-05,0.01797547119550532,0.010699082937879509,0.1
-0.025811667208366536,-0.04036554771598528,9.859545725540327,0.029084010701742977,0.006321066008118054,-0.01898348338512536,0.11
0.055251529364348385,0.05845894074797652,9.930326680050767,-0.0019731894306078473,-0.005086794035475629,0.01732618737560919,0.12
0.06458547034714751,-0.013697091405229126,9.897257201486404,-0.0065711524569441095,0.009383778054645235,0.00902446575751971,0.13
-0.02596035425270999,0.05670544151480727,9.893185361188573,0.006943275301198361,-0.007713222957073476,-0.0036717320647915576,0.14
0.009606517457315084,-0.1341056663541443,9.895436752968562,0.011503657542800591,0.012414343130420448,0.0003119494820027792,0.15
0.014073959544510576,-0.11864397750853517,9.638523931800773,0.003790557691920062,0.009554434267510488,-0.014427928849164745,0.16
0.06868251085816916,0.15292427426623226,9.779692707259516,-0.0034425383326207675,0.004298129349360321,-0.009863301888471489,0.17
0.21951183178157008,-0.01576052362656027,9.771905576694063,-0.006664915548214768,-0.010263812161248142,0.004978566086346902,0.18
0.025078383969183576,0.026345029545142062,9.851725712013955,0.004025711648021088,0.0007618794395952811,-0.0035060380199353563,0.19
-0.07617867635943168,-0.047330772129907495,9.897539066099682,-0.009300967145404522,-0.0022912870789591035,-0.0028553351005660525,0.2
-0.08246528915740949,-0.1052397566566865,9.892860762967977,0.01343358817836425,0.004204226550703782,0.00236096709358455,0.21
0.10872250986506404,-0.10665951016986247,9.846519125947497,-0.009693655612157341,-0.01249484457313253,0.012086366086706463,0.22
0.06688243315088206,-0.1833271389427484,9.913393205508243,0.012370507551206774,0.004809397806159555,0.012458388674665038,0.23
0.14809938733748365,0.014767238619679175,9.817678984796828,0.0066060048727245605,0.0031610889594043236,-0.004265724679847813,0.24
-0.10326630906333077,-0.04394813175831429,10.042915340575322,0.0028585440430106157,-0.014485683803114314,-0.007728090005251633,0.25
-0.12900077766952728,-0.010885672103133586,9.901515943397648,-0.0031737298112829476,-0.018606185762044414,-0.005552021841274387,0.26
0.032629978913977196,-0.08793430623077697,9.849753484565777,-0.018167669466165187,-0.0019387813938076235,-0.01867310177813318,0.27
-0.054065458856541064,0.22788524729125437,9.885435352776714,0.0027903657937547537,-0.012346120747867869,0.0016912862654458233,0.28
-0.004504930079446908,-0.04587810570616024,9.874675593705021,0.013752276228922587,0.003913688399936762,-0.010477656514106554,0.29
0.08922492032923585,0.16301946035969084,9.924258191538806,0.009159628985235951,-0.012189191833881832,0.026880982457055405,0.3
-0.06760022660224138,-0.005835906683848979,9.703009616924541,-0.008286937267696342,0.004111412890615728,-0.01148772433404048,0.31
0.1832077848053281,0.12171945965123113,9.874770267827156,0.013005074878291549,0.01192018027942509,0.009012273622145558,0.32
-0.09517306221694671,-0.05648617422517689,9.654538378255058,0.01819142035428372,0.002435464795245532,0.0033377921124324197,0.33
-0.13319214211869002,-0.12666094211689632,9.749540398722303,0.007121878360281465,0.012619970215933748,0.006263916876116088,0.34
0.18352468602262062,0.1070077487449802,9.690610357268142,-0.011909945978247129,0.0039483747084842445,-0.0035378529701225714,0.35000000000000003
0.14114554606826588,0.12363347414947844,9.835765823657102,-0.003937611671006499,-0.021406867724666902,0.005565300729425026,0.36
0.08451889564487272,0.08207157414030813,9.707351807247557,-0.01531590878932469,0.007213531414636034,0.0034841370188421804,0.37
-0.07167278667515545,0.02157047194032354,9.86886126244559,-0.01702680878775376,-0.004552955327804687,0.006668021921934555,0.38
0.06394215972028876,-0.06690518333759386,9.761983379269063,0.006819738269184325,-0.019262963903681093,-0.0026126177344862438,0.39
0.051045369236535555,0.012433048453259977,9.867541384168275,-0.008575500247325925,-0.004226686950170386,0.007590482528124225,0.4
-0.10578776265372217,-0.2014819873256286,9.723931193868673,0.007531046098182142,-0.012389958727718647,-0.0139291310600717,0.41000000000000003
-0.1772166797729684,0.03353215173029596,9.559311822654987,-0.012679604374156845,-0.006283086474948062,0.000956181295412655,0.42
-0.011118571934397078,0.08841076167506755,9.846828633541337,0.0034992319790803335,-0.00913805591081226,-0.009523816467445533,0.43
0.014241728988001868,0.024863102292556685,9.807597741137325,0.014335062970600896,-0.013618851298986434,0.016728406658567833,0.44
0.18201503907501113,0.05308241090374321,9.906651135601852,0.0013785875297485423,-0.004711036474786396,0.00509946222612201,0.45
0.056796328255298914,0.006162445523282881,9.797019083595076,0.026511097564841123,-0.00011130577358351129,-0.0048631576235006425,0.46
0.14903033320554016,0.08682924643599563,9.864709735229592,0.004494611861607409,0.007518132289210336,0.01074944242963018,0.47000000000000003
-0.07726062662879893,0.005693373691300673,9.870233414489533,0.0037157296369996246,0.0025770566657543847,0.010811436015583695,0.48
0.0996463292336835,-0.06710099972388386,9.84925921393597,0.013744875127280317,-0.00014525922965412605,-0.003897052564656371,0.49
-0.01607640468689575,0.061798821026386765,9.79493083135177,-0.010851572283940212,0.017579792264447003,-0.005202892169867659,0.5
0.17085405475717041,0.04769042837601753,9.932453097189997,0.008012244543336836,0.0047002999136368465,0.004187271486911974,0.51
-0.05258200899990925,0.1218620052336839,9.771595799743087,0.012794252967529325,0.004734190210686638,0.004502665213407271,0.52
-0.0846346983103917,-0.08312380206225561,9.615770572739379,0.007178870312928175,-0.023747628629538643,0.007579028793188647,0.53
-0.0384912063953201,0.04668308349607713,9.764660048948535,-0.00452926272848562,-0.013695340781400446,-0.008400429169665711,0.54
0.08724949822284192,0.0006617487958848465,9.683847416658283,-0.00765604893607141,-0.007225029738909375,0.007506929620382267,0.55
0.17566079898756987,0.061176700567779234,9.681906761070206,-0.0016131079497642385,-0.009452012550495246,0.0013322412675639509,0.56
0.108454378939769,-0.07484193455852094,9.712723641862919,0.0002651548738688897,-0.017038062448619048,0.005041625956785533,0.5700000000000001
-0.022416077725211245,-0.21770844413598597,9.724860230417564,0.0016203029394979919,0.00073758809910554,-0.0045180944072314875,0.58
-0.09173866890002508,-0.009595556277866783,9.860906659456685,0.0010259116157769232,-0.0012117886174810228,-0.0064514290974591795,0.59
0.19930644076598175,0.014278066576965134,9.887881735768836,-0.013797240273440271,-0.006190339400222098,-0.00646258174130833,0.6
-0.06496048320475681,0.09827362995537625,9.744298171297219,-0.011501012450751491,0.008594374894104221,-0.011592135979723613,0.61
-0.0459465152570218,-0.016206410625282535,9.813276739078047,-0.0058518722476731105,-0.0037450144410791893,0.008030351509246336,0.62
0.15306242543700083,0.1544233712116556,9.872186726590472,0.005796746576002309,-0.0025979068841085217,0.018275005419479934,0.63
0.1592821778277441,0.042801968756786414,9.856792408555577,0.004213487520702892,0.0007532143368475052,-0.005149251150357473,0.64
0.06447388935356839,-0.04948533677020213,9.736485233314674,0.006644110781814337,-0.006677558669514948,-0.0057801732625184865,0.65
-0.022763282208367555,-0.08890429957392199,9.74367010675849,-0.00350616841442424,-5.7895279534584804e-05,-0.009471444956388297,0.66
-0.0018042908985693926,0.033448618325991955,9.804920408982893,-0.0028266950246824195,-0.00222559198752013,-0.01645057832265577,0.67
-0.058191212938685136,0.08716219488171432,9.628432199902127,0.0016896639034449648,0.0016706958863188827,-0.01478514283627069,0.68
-0.0639699922281287,-0.06326195023691887,9.932575027576398,0.017552271588374035,-0.0022989927746013307,-0.003488271660087979,0.6900000000000001
-0.09339467946786006,0.028361875661134905,9.704859074200797,0.0030812938220433224,0.009254970708137536,0.011361828098530037,0.7000000000000001
-0.1280025171597525,0.023767408987500484,9.891533029704094,0.018392832591443982,-0.010331715324011176,-0.005161199125218558,0.71
-0.08691972566661432,0.013459389834115444,9.860523298459436,0.0001112627604569721,0.0074517538083880555,-0.0031497095991998283,0.72
0.08609207232279857,0.031089652868006745,9.917480576818846,-0.0054713480249803164,-0.018270356064137794,-0.007262433481273699,0.73
-0.029483905034778376,-0.08135901370137122,9.956289845805216,0.0014318166935776994,-0.012699225263689568,0.0024644085863293756,0.74
0.010979899228170479,-0.02513237488460264,9.787366954103248,-0.016085622063498745,-0.0020083705365899966,-0.010743647045918809,0.75
-0.3864579452008568,0.04048486241538643,9.81818252993504,-0.0017286046166706582,-0.0041457051478769255,-0.009076979433463275,0.76
-0.10734631365973797,-0.1859384338316179,9.68721918313822,-0.012222191262868096,-0.017487300906589454,0.0014729264497583003,0.77
-0.1425430888757193,-0.055453348735593634,9.69756039244155,0.004251395233358508,-0.005191182092887741,-0.014293537320298467,0.78
0.04317345751669174,-0.00492696694945522,9.917276950930722,0.011320195231774403,0.00390637804668537,0.009920695130040598,0.79
-0.016402319104839733,0.040931988978919476,9.836547607366551,-0.010029095649596897,0.005026956602658016,-0.021612454322791082,0.8
0.033435085943514804,0.02246224693940002,9.885061915144822,0.01526263879628162,0.011834255423453233,-0.011548750171659784,0.81
-0.05349415627013254,0.035613231037367604,9.810905627757418,-0.006163803919536819,0.0066653798699685745,0.00381625137670796,0.8200000000000001
0.05701733484564164,-0.17641516189216802,9.835261296480185,0.007265368852721785,-0.010369728650470105,-0.005922096610234179,0.8300000000000001
0.08419705820739856,-0.017271542963689077,9.764584086515066,-0.012475776763389462,0.009835573286886584,-0.015582033486130298,0.84
0.06793044357368845,-0.09032551493016167,9.750928704349429,0.01051577469105379,0.01436962568568517,-0.026239747124058136,0.85
0.16820984547565898,-0.009298664260789529,9.815130691009784,-0.007860220670897535,0.006440343952240883,0.018040333063065985,0.86
0.027580390523230698,0.09672928603757472,9.91655090027395,-0.0010746143177025062,0.0014660733961420983,0.005056881559623718,0.87
-0.024209142064620756,-0.08752006367837695,9.749943387085349,0.0032517132625788864,0.015001334694290923,0.010850176094197802,0.88
0.0023625578006838655,-0.2014308933305058,9.694871658585107,-0.01900351328736509,0.012979764577238952,-0.006705052407292002,0.89
-0.005041189524706519,-0.1465329814547488,9.842549487767988,-0.0010045992320934934,0.009184990512093148,-0.0032268553643030125,0.9
0.1460102431046223,0.07828127660119116,9.906349715910155,0.007422236232053958,0.003981219599743052,-0.0010080754347802593,0.91
-0.008503242475111654,0.05927164558265644,9.831322998582207,-0.0005245447099850369,0.004363634242288578,-0.0018643836154019191,0.92
0.036608185105574155,0.19751252579437323,10.067653096079974,-0.010028869227199526,-0.022728538095837813,0.007219233562170198,0.93
0.03896757864375256,0.05759870466165615,9.724154608313547,0.004435731972852597,-0.00012289396777697762,0.0006853349200071424,0.9400000000000001
0.09918990162626812,0.17862814149735817,9.944831510570866,-0.010320492119029434,-0.004615199629517262,0.012328409397921743,0.9500000000000001
-0.08051863331715708,-0.047050411207850584,9.804372010094857,0.006063470887168347,-0.019195150977110238,-0.011238931509729919,0.96
-0.055115357492451694,-0.06036947692210936,9.902868716615401,0.025545448457786876,-0.006229525511417343,-0.014273237600605195,0.97
-0.012360537460347355,0.11886123840882189,9.701018383026504,-0.004096974102726027,-0.007943787168391548,0.00786060876653093,0.98
-0.13293147393032467,-0.04133981934721005,9.654817468649432,0.0004183121519929805,-0.010382079189655105,0.004105814367291247,0.99
0.14850594693249314,-0.056293576181959896,9.641824952029522,0.007854962339918517,0.007725954213666384,-0.010536345931452728,1.0
0.0242856297139199,-0.0014117580593669247,9.878036369748243,0.007014509118392743,-0.008599319123012258,0.008690301484007044,1.01
-0.12919508922553355,-0.07922601661911403,9.84385275194232,-0.01767335323899984,-0.008739837822912632,-0.01212294012801482,1.02
-0.1384706803433094,-0.016314931506806053,9.80007409667886,0.0038056459251697293,-0.004419358615654093,-0.001205397913357707,1.03
0.18109535115940364,0.01637878503000799,9.685283806053544,0.005455508838075738,0.016461250771902546,0.009838718814377301,1.04
0.11386278169418794,-0.011086682027596932,9.832255327901235,-0.006889433618128458,-0.026746548214849623,0.0026068689639261976,1.05
0.03648098489327746,-0.00795881850190201,9.729541059525722,-0.005443428022880145,-0.010499905981257598,0.0022020986217138046,1.06
0.18466828789782763,0.10313818332781349,9.96297392283681,-0.008116539093255108,-0.008807291322695062,-0.0007696514811992729,1.07
-0.2043493809258502,0.03661782224316495,10.013937298592419,-0.0007508028609400332,-0.004203156438177732,-0.01487457448401526,1.08
-0.003740425100692195,-0.12981536851862815,9.705689764805511,0.009294245738991387,-0.006504728525818958,-0.004806419125129945,1.09
0.06960509345949074,-0.027975109619451502,9.832548222147718,-0.0007105780242735207,-0.014082945616286886,0.007428750254669957,1.1
0.06298311032382896,-0.020103556574688524,9.675863375292433,-0.0030072087292144617,0.020723638815264386,-0.003914089295939784,1.11
-0.03125798378349698,0.08019616274537418,9.691133138297793,-0.021706653998946203,-0.000999970132582733,-0.01553992762788875,1.12
-0.1382121624754696,-0.09020510763436247,9.959502258228898,-0.016668320218757814,-0.006907115911745465,0.0016109751109514756,1.1300000000000001
-0.1412186188748424,0.02175665894721388,9.947450847090398,-0.010018276353430371,-0.0030673908392266137,0.0127177319302744,1.1400000000000001
-0.12837731341304864,0.09791283092379902,9.603077083045143,-0.0011689550192520509,-0.0050961694748658725,-0.01415843984170948,1.1500000000000001
-0.07596573258726401,-0.10951746639344676,9.726713056068565,0.00028298661026006193,0.005809441909759023,-0.007983136885713735,1.16
0.0019221021440315495,0.008353785190199147,9.71130926554652,0.0007188864799471683,-0.006022962730558254,-0.006740682436349018,1.17
-0.024393164689210503,-0.004397607387649378,9.774341557858197,-0.002829280726128743,0.0024422199757370526,0.009044803638615281,1.18
-0.0651539709156486,0.11362154325190264,9.756499077853837,-0.0027993955599616522,0.0013228281563431002,0.0039439879202848695,1.19
-0.0996403240223895,0.05521889232792522,9.836639950642313,-0.015723679686735378,-0.004457754897753299,-0.00558170194303702,1.2
0.062082460455165425,-0.11173185389011303,9.538852099534871,0.014892913315471584,0.007057758829389622,0.013589196231729859,1.21
0.03006426031358473,-0.07683332142232535,9.891765764297903,-0.009487707078324657,-0.013763353776424288,0.005673118287215671,1.22
-0.1100558115092813,-0.032218815247262944,9.89993135061341,-0.01741223733013871,0.02186394669026767,0.011457868200422657,1.23
0.0337554716639275,0.1312726725673626,9.857209957216032,-0.014764243249393025,-0.0068297883084296965,-0.007700694166483886,1.24
0.06116481636624313,0.16151953887403792,9.89257046608162,0.0047921732270137475,0.0013902333837969114,-0.0012553296660850477,1.25
-0.05637671480630552,0.04611003759124143,9.93717529900079,-0.004316525337115658,-0.01738139464366845,0.007061621015584619,1.26
-0.003995688290245865,0.019411851692310883,9.8483144916266,0.01411908116480783,0.013093325910807843,-0.0042357043070090925,1.27
-0.03565183150147358,0.01755456211531168,9.84072396037739,0.016149297608340947,0.014377379754064078,0.007935691354948848,1.28
0.1092435717972953,-0.12950725515385925,9.770244042151504,0.010447553488482884,-0.015538292974162189,0.011815968057203622,1.29
0.05675205984054438,-0.11700852562113202,9.833210373413438,0.011881623828303168,0.00501031464370143,6.964011213149463e-06,1.3
0.056265257445137974,0.07348299711115518,9.87743192057335,-0.0008910395431736778,0.0025965601830063695,-0.015661068710175734,1.31
0.07474463009160498,-0.06789904473791052,9.727010722060523,0.0026374053541065074,0.0008793217234066434,0.014499785347585326,1.32
0.05758541057403373,0.23507771120833293,9.785330546488602,0.002221989813778509,0.002265372202197609,-0.0005522781492054173,1.33
0.051749683675363256,-0.12955618022442292,9.923953870841052,0.008488657744334977,0.015842113551521694,0.01515081132724097,1.34
-0.1357049508850918,-0.12661854733137046,9.887635089023856,0.008175191362574883,-0.006225303920291445,-0.006047885876638665,1.35
0.07194273420351323,-0.19742040227703087,9.855417661230687,0.00928267446878841,-0.0025743406960871875,-0.0007415175067185237,1.36
0.16493087998876133,0.13276288107582151,9.844441702238122,-0.004655502778056077,0.011130106446808308,-0.0062103498048522235,1.37
-0.009292187036507485,0.0739519928073873,9.66098782413317,0.024299080291359246,0.004828261409913728,0.007499082529618443,1.3800000000000001
0.006522077946651633,-0.24664525632474554,9.853962022287861,0.0031474995695492804,-0.0021012386706714356,-0.008438366499207066,1.3900000000000001
-0.12676415274612945,0.01765923585587049,9.896060188914381,-0.015436188931969495,1.7480368326848464e-05,-0.008352601075298229,1.4000000000000001
-0.009396578744741028,-0.12751217067753506,9.78187657558555,-0.001444242248909448,0.005435724957279222,-0.006454067146716193,1.41
-0.10796118720516892,-0.13862141961640054,9.764489276514254,-0.00682794166295353,-0.0005101941167190005,-0.004117263108555719,1.42
0.03415122032950185,0.14090834825702947,9.926042198351642,0.004916554629547764,0.009494960340656933,-0.004252254771229266,1.43
-0.1440942352680069,-0.020071144826733965,9.910263836747465,0.015098792133229393,-0.015812442790230512,-0.010544210951426164,1.44
0.02595029045579221,-0.047870973709751546,9.896272126113315,0.006401301532147717,-0.010647631508176537,-0.005146228120128858,1.45
0.06937377944228013,0.15207077523049806,9.707003463351016,0.012666817171305782,0.005491847051926996,0.006492355515080665,1.46
0.16649558820971974,0.10833803295098594,9.801229969238095,-0.0074848830156812275,-0.0013800624724186728,-0.005673223714574028,1.47
-0.1777678800201964,-0.06165611450475872,9.864968420032884,-0.011578767794469957,0.009383949002377682,0.017078792317586182,1.48
-0.33899931568655045,-0.22209111653653074,9.787231209453948,0.009036452412915338,0.015224540572554438,0.014767704979802761,1.49
0.13597484792761566,0.14708833100967086,9.958234832566543,-0.013088595394331555,-0.00032661787791680557,0.011295012397105248,1.5
-0.010567592134618074,-0.07291607213343947,9.859385274480285,-0.016248379344208797,-0.0038484156032113693,0.008026914090483511,1.51
-0.02338676880534854,-0.11324923387079736,9.808810545840286,0.004464518738336005,-0.0039024987482827083,-0.01683691927567752,1.52
0.08482596702823143,-0.056840835829943294,9.559439541867015,0.017995643601847515,0.005703516491784816,-0.005769561381077222,1.53
0.04701026207709004,-0.11981178527221975,9.859851893955499,0.005222993739538385,-0.0033727371830511465,0.009235830016383563,1.54
0.010829446363444455,-0.08645062939747146,9.819794912467607,0.004831811704084465,0.026431262636206196,-0.0014727969978276026,1.55
-0.0019382324030308732,-0.12052048568538165,9.79806461616933,-0.0031242879503325218,-0.004913755003728897,0.0034020988255419205,1.56
0.040060639164602056,-0.015125847328235255,9.783281664642645,0.013694113345687504,0.004807613598744733,0.001286452935799122,1.57
-0.00768714559034117,0.14077710386438583,9.847870364025873,0.009311386868921499,-0.0051695830290041465,-0.005984515650760775,1.58
0.2336604707615164,-0.09771620272163956,10.028712377648992,0.004212737262302769,-9.705559971475247e-05,0.006663810579842645,1.59
0.07821389205954743,0.03741207606197899,9.65384437355862,-0.0027806183962541414,0.010302558533525701,0.005464516607261537,1.6
-0.06971452659859449,0.062487620246247724,9.81714404218808,0.0008911708531345345,-0.003258847750811138,-0.01284994044114456,1.61
-0.06433782483723822,0.06854001028298838,9.995813299318923,0.010875965853973579,-0.005446486020663494,-0.00022476485681255314,1.62
0.188523488318293,0.013183706008290628,9.79775498846141,-0.009575760118068611,0.010947324530402043,-0.011723860050617794,1.6300000000000001
-0.0454471656121593,-0.14232489970815673,9.765800072822092,-0.00912341103413698,0.0009942631719026711,-0.019793304259666692,1.6400000000000001
-0.050387737169347274,-0.21749090930799017,9.675100023185525,-0.016985523541170642,0.0007201923968111422,0.0034274016253021656,1.6500000000000001
-0.08608917486898006,0.052372948914402806,9.819214489205057,-0.002717478316145324,-0.006014397774985726,0.003003827246141236,1.6600000000000001
0.08164895536253018,-0.02085162698685787,9.732687733112867,-0.004987768759338657,-0.016335676533896545,-0.010348707826806625,1.67
-0.07622141676593518,-0.04079954634925051,9.834506754092413,0.010471437302751999,0.01449501342495584,-0.012653703882674852,1.68
-0.030592187558271002,0.1171668855535722,9.837377195361128,0.00979510698775667,-0.0023412890396875504,0.015842442758968102,1.69
0.13462027543538596,0.11287222544554526,9.813759634879307,0.012941940461928796,0.0054617047052493185,-0.004029122246251992,1.7
0.08834557256164585,-0.009006771245638071,9.96092717216046,0.006217632386347206,-0.01558938286017506,-0.00015520128912486556,1.71
0.16039634208436196,0.030021208057705157,9.865153165009062,-0.005356300964164509,-0.0008332610988788756,0.0031768681491440437,1.72
-0.15570647023019088,0.029425224823174972,9.772272241928656,-0.006389843437179659,-0.008933134124340386,-0.0012613220729547705,1.73
-0.08154441105313341,-0.03210642439489186,9.730074102072248,0.002747555588402099,-0.003616255414713617,0.024950378266805302,1.74
-0.06673674363466837,0.12500504513453098,9.780114096013477,0.0040465661326001,0.007111015664115754,0.004768049965908223,1.75
-0.156546008606963,-0.22342746548607217,9.907594563910497,-0.0067518109006265885,-0.003279103166053954,-0.011340891672905107,1.76
0.07215332389354373,0.14725018535174308,9.684666107207685,0.0028444991184271885,0.007229630897639723,-0.01399738719085839,1.77
-0.05565938138749386,-0.08869839270459322,9.758056552421724,0.0018672289852045324,0.0018732651695670317,0.029964271585317986,1.78
-0.04035614277331174,0.06752213504251711,9.86557575881161,-0.011389356285452394,-0.010994009591773305,-0.013864244331988138,1.79
0.008931623562991372,-0.15561169815944037,9.733984281586793,-0.013444538126470987,-0.012386015676335385,2.0258447849393937e-05,1.8
-0.003963222064719201,-0.041728539822601135,9.733552479021448,-0.005998468366887746,0.011518255937882782,0.005084890803636793,1.81
0.04521241231857434,-0.06937734451858345,9.846512367521624,-0.0035701370696155066,-0.0010413896506808067,-0.001365730436210161,1.82
-0.06729078331364145,0.023737374761230126,9.838689865832402,0.011499614247794566,0.013674788096672077,-0.001533683023137955,1.83
-0.10759759798712415,-0.05395631359525278,9.840602511916883,0.0033184575049966148,-0.007648357811116784,0.0038479599806698008,1.84
0.03367511623419909,0.13944804034385425,9.861822096155768,0.002697502728183103,-0.006910389500347029,-0.0020236194155081964,1.85
-0.10242980996126272,-0.009692465014514904,9.799034657549758,0.0016432948834824248,-0.008182745745816693,0.020441121269670376,1.86
-0.018604756646234843,-0.041792889811758036,9.663209209714468,-0.017219877004185865,0.0004949840642780044,0.014898246841870333,1.87
-0.03942498052556105,-0.11199807787691798,9.746933029339582,-0.007158483454835961,-0.0003266841474674845,0.014094818631132582,1.8800000000000001
-0.05125557483674367,0.016228100763625818,9.810073733319582,-0.012102685051403472,0.0003147282365540466,-0.007868716844856651,1.8900000000000001
0.08067572181160815,0.07340643487470522,9.814865723102107,-0.013836688281213707,-0.004919912836108198,0.01719466835214077,1.9000000000000001
0.18189472928687195,0.018599657527816373,9.735773419438097,-0.004564668504164879,-0.01889932739367067,-0.009420503832029309,1.9100000000000001
-0.021323293382397364,0.16804249925085177,10.015131912204962,0.0001711754752743636,-0.0087159025851484,0.008169704920240205,1.92
-0.04492850707013732,0.0013118581124087886,9.732567754556891,-0.0010388104589362066,-0.009643694012948432,-0.011868689521008351,1.93
-0.001270749105500913,0.10912446725455689,9.685127943179445,0.003949533882790818,-0.002985524676858602,0.003841841293916443,1.94
0.053603455114695164,-0.03408258328598374,9.795033013766364,0.01346916282718352,0.009023041027293571,-0.0016702015513363824,1.95
-0.000764872699278624,-0.23112207390291062,9.732317551967325,0.009676909626816985,-0.004954231281175046,-0.0031224125936930914,1.96
0.03991888475613994,0.12329594562300404,9.856018882336835,-0.00594977797329844,-0.012750683629964024,0.020750669075969216,1.97
-0.24200229881201085,0.0029517606631263896,9.789775690202422,-0.0050336177066082725,-0.009172394343018591,0.0013420646512096364,1.98
-0.010365545517698664,-0.0027290722066253825,9.793412347626857,-0.010866621384373967,0.00048400280662029945,-0.010403948565589492,1.99
0.009947850497038222,-0.10806433797222144,9.935419667565107,0.010641001712717004,-0.0068653356839315114,0.003325661171241751,2.0
0.0024708716401577076,0.014571993844810444,9.494915840837454,-0.010820134174051095,0.0032818642199241065,-0.009993786167954054,2.0100000000000002
-0.030485448116782655,0.13941885852945213,10.007382267873496,0.002346456007834821,-0.003971100396642649,-0.010067674661239732,2.02
0.050552788847351884,0.030803527779410363,9.773952344731262,0.007725002826744173,0.004897896094183727,-0.0007764213576967404,2.0300000000000002
-0.011898992646749307,0.037246569993220104,9.804980246300099,-0.0218616253418283,-0.01137183873813901,-0.01439425381131904,2.04
-0.15891493365997353,0.09316759943657814,9.892651499154194,0.0034422258428304093,-0.0017846022566360138,0.02074422557067842,2.05
-0.11143803997729336,0.10697477243152281,9.781288088265777,0.001142181071769447,0.0038408207036445038,0.008889464761523252,2.06
-0.09820985121670926,-0.13259745278536586,9.866556864259952,0.020850320336880248,-0.0016736168976809861,0.002016150174107347,2.07
0.09167099350873492,0.09147972747736068,9.791185394843852,-0.010898793159605971,0.011248490663880083,-0.027794056380874996,2.08
-0.06112980488821085,-0.12759176441757453,9.813645150121621,0.019500613325010626,0.011730193506636713,-0.012511016476745332,2.09
0.08049393131704505,0.016644511895848126,9.875727848872147,0.0018070527927226444,-0.003311303047717089,0.003939454364951027,2.1
0.030844086239358248,0.16305777884778547,9.867740695462821,0.01790892826092594,0.002483912624083848,-0.0010841689279746283,2.11
-0.06507346419664133,-0.0799648562224323,9.65182073063554,-0.0030629636438665804,-0.008750421035313514,-0.0035551616093880034,2.12
0.0674314177688276,0.0584213861785936,9.863865750032797,-0.012162528163045545,-0.00042008866964183644,-0.012492835734794651,2.13
-0.16328511565350576,-0.018296734730973097,9.889219898464528,0.0021793480781470433,0.006363806844772919,-0.0047569523297904676,2.14
0.0881360177539648,0.07442298393303473,9.633299024012638,-0.003323741050425155,0.0057612700972617574,0.010831924815226188,2.15
-0.08532174402451669,0.04098390932141454,9.752522557041063,-0.012241282522987371,0.002661522930711629,0.009530644618612865,2.16
-0.14710321580965235,0.09100852258684297,9.711224767061838,0.019236175889722155,0.001698286039487042,0.0012668264952014974,2.17
0.17295784452241672,-0.027986829918516115,9.8010322363947,0.0022915661287734495,-0.010194573023250926,0.007517341322680931,2.18
-0.12409451838886235,-0.06720122932765184,9.811055166829371,0.006852150592418106,-0.020917810996714036,0.007088154826136664,2.19
0.08152467942973363,-0.023632767351713286,9.871794222706187,0.010448474238027923,0.00602308324495043,0.01027433822674668,2.2
0.1315061059123769,0.031531791674355956,9.721662180314947,-0.007219792017339171,0.007013297650352639,-0.00923262673734401,2.21
-0.07691195549847274,0.03698526818249422,9.687828789349467,0.005618494882623223,0.0016409486709575286,0.008593157446768787,2.22
-0.07198071904209317,-0.016484700983618903,9.923452653705283,0.007367679315886195,0.0034967980385014327,-0.014224598167225233,2.23
0.0180649171309382,0.05206718045594027,10.02721056292137,0.004955272051622406,-0.007494155145583007,-0.010803078158202271,2.24
0.12828218730368335,-0.03068134382503243,9.860978042543282,0.0031144274605517555,0.0009967771956596121,-0.0022607647910073574,2.25
-0.04224903150544153,0.027813316807508728,9.869976287375778,-0.01610958422489115,-0.010611548122594721,0.01167496353558145,2.2600000000000002
0.03530201458088371,-0.0970417629265374,9.840888418420244,-0.0053715142878569605,0.01521599782633605,-0.012454033495678305,2.27
-0.05280398533020142,-0.07932386717064716,9.751559689725743,-0.020144624499843774,-0.0020031618655302506,0.023326943496811893,2.2800000000000002
-0.20790734242624487,0.03743748780659479,9.89652341840775,-0.003556427387265552,-0.007043720549755375,0.01279567857843052,2.29
-0.19625604915723116,0.008291028500084702,9.721282525762176,0.016195222621180082,0.0034611026915064747,0.010192622801375407,2.3000000000000003
0.04331211466240931,-0.026179607494935156,9.643028391039643,0.003662128601558888,-0.011675913068416524,0.007884816310828099,2.31
0.05807353740934493,-0.019093412994670926,9.763857662073821,-0.001531577778553034,-0.019133530047296444,0.0005529203029618922,2.32
0.054832029125122805,-0.13649267203220058,9.805809590147012,0.005136607823178935,0.0006150062909446481,-0.006967501041750975,2.33
0.028462918519034264,-0.15749610540067,10.021072535395984,0.010949548452772673,-0.00027239164633127347,0.0035595064559686223,2.34
0.06326676160070117,0.03872578609306336,9.86165829406899,-0.004925542334203365,0.0013664093431209772,-0.0036551722096320642,2.35
0.25163527276714115,0.06318543687734528,9.728235366891484,0.016348037129792305,-0.005520690692033931,0.006008482243806364,2.36
-0.06946551855945712,-0.13495625284742166,9.984407941286666,-0.00762607594268727,0.0026613152616918514,0.014275110504008202,2.37
-0.011390144305737572,-0.03576962921662651,9.89966325991094,0.018112272965071036,-0.0115287027768339,-0.002904954534919477,2.38
0.06323599991638738,0.04230391398486913,9.82571155806907,0.00926799235720674,0.007549149308232246,-0.01591026631272963,2.39
0.0013330179133228624,0.019099587183849527,9.761483394587279,-0.009325843688627692,0.019002825086382697,-0.002064910046814162,2.4
-0.01647302792016423,0.11266252389794498,9.839379323395292,-0.0020647882697660434,0.0019594806578738374,0.010240212448010152,2.41
-0.05922761447792984,-0.0710903205810202,9.747433034906216,-0.010046407046935775,-0.001772744886503203,-0.0013843210535404407,2.42
0.05236393029982614,-0.020228489234672256,9.787920061588341,-0.01924426742490014,0.016005310174286396,-0.003274748482772177,2.43
-0.20400120867631846,0.04140329214168146,9.9781311142788,-0.002094397152113257,0.001616084653364938,-0.010487651335205484,2.44
-0.022737054145979596,-0.046512133728521615,9.751885325678176,0.008777734590999668,0.01303514101885005,0.0012375050700882963,2.45
-0.004492522400040957,0.1078202988178577,9.799137893379822,-0.008427814992105135,-0.009334119199193122,0.02050732233163708,2.46
0.03922447378467964,0.169043054644884,9.843645065211922,0.006194400253267165,0.012967053020668303,-0.0014637190456705828,2.47
0.003988308316216217,0.023811368006931777,9.853101931855244,-0.014155555150766701,-0.007983488531254399,0.0008215304989959896,2.48
0.04226027826779745,-0.13344348494496475,9.790435416846742,0.004557583908287747,0.005960037453095162,-0.013145334628234839,2.49
0.17139013827662083,0.05949870090037254,9.834506267731774,0.007455434701169371,-0.008116525029831654,0.004356191546509489,2.5
-0.10543231164498644,-0.21953994692995304,9.933922202100835,0.005392134542761555,0.027837456875306123,0.0023121288701642272,2.5100000000000002
-0.05826742042322517,0.025512103944535604,9.767070126105102,0.0007115430546821848,0.006531667954445697,0.0026592761596585398,2.52
0.19376263779711247,-0.08091744812674352,9.822751794993511,0.03182949209488097,0.004083191160531607,-0.00426491365174544,2.5300000000000002
0.010336317335642786,-0.032460940081315164,9.819498289052921,-0.018575403459107714,-0.009953179495565926,-0.001857440993298896,2.54
-0.17285424243173975,-0.2217312660308852,9.569681925383,-0.006090751975582726,0.008365171873485537,-0.0008602513298760445,2.5500000000000003
0.035721219303592906,0.020354416953213654,9.764584787089687,0.0062479235426315186,0.014534005747522631,-0.0012917546755689953,2.56
0.011424171196437807,-0.22219515311283616,9.93660434472478,0.016768779616972894,-0.003334171290542245,0.0028015480569521414,2.57
-0.13823094856783244,0.06716770508629753,9.769403188494984,0.027668265461383734,-0.0013589169770540106,-0.016809084751182535,2.58
-0.18372493664636133,0.05801044699959279,9.798167532060464,0.00022432082594000266,-0.013714999827944399,-0.015516022876548399,2.59
0.03573163745482535,0.03850026252498607,9.736812187726068,-0.0038729942796017045,-0.010662968022026528,-0.011067767778140057,2.6
0.012233261111931364,0.0951401403673502,9.890150265305987,0.0031328702927476454,-0.0012276807249809855,0.003224174920963408,2.61
0.06243504214080695,-0.0005159714350722888,9.775154406122018,0.0029458091531083166,0.0008279170920577794,0.005363532464592595,2.62
0.09001635144089687,-0.11283045069533706,9.811901837875137,0.009961854889553994,0.027544168100336743,0.0003981056471279854,2.63
0.03691871925155313,0.03829498010129174,9.912231351732858,-0.00236934005932925,-0.001980577723125134,0.006878096563827021,2.64
-0.2285351178708752,0.02283299897030642,9.779860095825699,0.002690163121172768,0.006043095406030056,0.016217954462119117,2.65
0.06305471502417376,0.06106379474078147,9.791209967506118,-0.0022892120000218143,-0.004476352719859179,-0.008808455921458281,2.66
-0.09851664964705985,0.08517787833911876,9.713905492901754,0.014685434064607567,0.005257431446423829,-0.0007043709285535814,2.67
0.03739569336561616,0.07934996678533188,9.664163824663696,-0.0018858383839871265,0.006944594604005987,0.0019402888665963557,2.68
-0.11629299520003478,-0.007226514982604267,9.789710830892991,-0.005454304406941097,0.010005071599921967,0.0026529942115663427,2.69
-0.10224179911231138,-0.009878452603537494,9.8844224852824,0.0016967038606596103,-0.0058130486290951374,-0.0012750316415153604,2.7
0.050500808722711024,0.10925069142613107,9.641255986358379,-0.011700506579851331,-0.00883632019894629,0.0019585060988253195,2.71
-0.0958693234260734,0.1321796430711792,9.863102496318588,0.012288403044148202,0.012406279457812166,0.0006384893609206124,2.72
-0.03886130090116138,0.042234199630872986,9.86657341065835,0.00962803121360619,0.006825630360374202,0.011099555724372273,2.73
-0.14845138571254465,0.03809976272394232,9.95480988417035,0.013861127471283947,-0.008753403984079181,-0.0017084725044518479,2.74
0.0407587754355415,-0.015367505343409586,9.978571682768527,0.002949652549584427,0.0007108228098311375,-0.009365846996023011,2.75
0.11764625414212654,0.04395216031942496,9.858730006199755,0.0069701041510319365,-0.005425556341545963,0.010505418306038097,2.7600000000000002
-0.03919391247685086,0.270487248750952,9.768694547817049,0.0034309512555435674,0.0047285519436588794,-0.0015202353722942197,2.77
0.22519802016167545,-0.031691812152758285,9.780919531474611,0.004324952770396268,-0.002591248138168515,0.0019592400809394484,2.7800000000000002
0.2913575169887062,0.036369922402052605,9.785365619988296,-0.008329711028508902,-0.020138417798279677,-0.0035892420355122523,2.79
0.10448278236194741,0.06364056343252672,9.731617771373593,-0.023579409324458633,0.008209174476446968,-0.005150991261007425,2.8000000000000003
0.05354380254195509,0.1546048456363731,9.868672183883001,0.0032218647028002655,-0.004745793821351514,-0.001500858804394061,2.81
0.15815148986868366,-0.24276879665766582,10.075952485650891,0.0005506156822604707,0.0018629323196934263,-0.01702552426373835,2.82
0.05798172298289836,0.0336504456636088,9.838167739468707,0.015004463906975246,-0.013211641245773467,-0.01604868190108953,2.83
-0.017312217323771594,-0.03150029403679478,9.866072049151814,-0.01052291910029352,-0.012891746160506484,-0.003368444252758199,2.84
0.12801389939502053,0.049166850820563796,9.752066277839475,-0.029388135456839794,-0.006431209607259085,-0.00659685106258716,2.85
-0.020574252178083265,-0.07889645988195587,9.946075706331381,0.011947306433027051,-0.008001939386156407,0.002351933484325303,2.86
-0.057401410282130486,-0.00713820966248081,9.973269514996144,-0.005119748874919795,-0.007267794639935688,0.004215986699181315,2.87
0.03973006375048255,-0.11184940944403449,9.894330214648555,0.004997943114947281,0.006388738312827747,0.013364295171410924,2.88
0.09470015565885764,-0.040026987904626665,9.92204844103671,-0.002960679373529376,0.016668665625451346,-0.009383168888963183,2.89
0.027317537769583268,0.09327035982496772,9.700579957502077,-0.011129711464277119,0.0032791334663375784,-0.005744404328641111,2.9
0.06435963297668264,-0.07080619184520047,9.772057103444917,6.247295742555578e-05,-0.003634759252158999,-4.0198317708581906e-05,2.91
0.06928092407881664,-0.07685671879325202,9.936865156737626,0.007250575944766471,0.001134067696754849,-0.01292263839703202,2.92
0.10304190911894372,-0.0031727078223382915,9.762157717410819,-0.011962332061706198,-0.0013170489747706216,-0.014417863938612972,2.93
0.0926027104145047,0.14883028605840284,9.89441124958198,0.004737556857196349,-0.014069734867725767,0.005645000992872944,2.94
0.07135458548450678,-0.1232128900390188,9.843535745133385,-0.008271239496975202,-0.007557061026597918,-0.0031400035996278983,2.95
0.002971622739152048,-0.006369946782136739,9.766170429791428,-0.02023918483598628,0.008917536156186158,0.009363577072753756,2.96
0.09566804089274411,-0.0064523695124352,10.048441909177027,-0.0052872072614303265,0.006272593118829012,0.0026261213157555818,2.97
0.010466673860037025,-0.11158925135564852,9.9734381237115,-0.0007848041974157961,-0.0034868551611096574,-0.010561602190822781,2.98
0.030535112763446816,-0.053935918676148026,9.914023791089768,-0.0007459363110770002,-0.004406199094191231,0.003107183958884845,2.99
-0.269697608551137,0.03817304588446491,9.830545648272174,-0.0026257085285028158,-0.008579578542290177,0.014273387912396896,3.0
0.09428155564559544,-0.14477120752630554,9.832733195112821,0.0015911099486372916,-0.0006449682405751043,-0.005827946741124389,3.0100000000000002
0.09992459988964837,0.1433013111387936,9.903330043537402,0.008631470857204835,0.008850398244138311,0.007661148193344863,3.02
0.057007903587097175,0.028057374340947794,9.926197745974399,0.011707936971720246,-0.020067753160980303,-0.0064440056998174315,3.0300000000000002
0.19911329562063074,0.08599558448677089,9.75942237050048,0.004226081626524368,0.005726014056845947,0.008412214815270665,3.04
-0.03228782257333874,-0.041651664175383595,9.77656706811861,-0.005873542885727921,-0.015112841440966756,0.014425943806960445,3.0500000000000003
0.09913355912260652,-0.05177037575273846,9.776313852920433,-0.0015151271364740335,-0.0009030542634577807,0.00963379967280664,3.06
0.08939239288037143,0.022434354447644154,9.758648935423434,0.0006415444330134146,-0.006345784656592825,-0.0016384289618965584,3.0700000000000003
-0.06804655475004072,0.07861485602564167,9.782808107047215,0.00949488569477805,-0.0044711176376390944,-0.023588310864490942,3.08
0.07075295110061629,0.007039281628129834,9.762870589496314,0.0013908662572111661,0.005515576714285613,0.014796867563899248,3.09
0.14312178377151427,0.13471143683871778,9.610608448068012,-0.00991400882719359,-0.0013662832970407636,-0.0009701717049057065,3.1
0.16229840828036077,-0.15970432344407914,9.598884793378334,0.0030739055922477023,0.005290956555073102,0.016836142093159985,3.11
0.035623660562331405,0.11626537410627519,9.732081689478871,-0.009869322140659987,0.005245432901775692,-0.002222086209313558,3.12
-0.045573305926748076,-0.053678195859895306,9.674200861794379,0.004812686192141283,-0.0015264101276266265,-0.005061220951329773,3.13
0.0459517182454286,0.1257811998347212,9.644474025525822,0.015939730780126674,-0.012919940859839255,-0.008573103685212347,3.14
0.145739177723853,-0.10468300499762079,9.796438482201507,0.005057149309204513,-0.01019460668988349,0.006014944585724535,3.15
0.12006070470233626,-0.07952472875952815,9.84350923081889,0.005269260106418375,-0.008518795827223815,0.005915230726774924,3.16
0.07243304449599967,0.04993110577795707,9.773349788625122,0.004535630982356588,0.010704208298168077,-0.006895687442482105,3.17
-0.18742445456945647,-0.24687043291268485,9.785994469511866,0.009642896262682143,-0.005420431985240031,-0.01607529446188191,3.18
0.2383438018046798,0.1711388630937345,9.80388024903591,-0.0007658082817086756,0.0038185192493567196,-0.004172364989647215,3.19
-0.032600316851574426,-0.05769133873356367,9.606648449533008,0.007996327410938399,-0.0026939990760378985,0.0083568845093429,3.2
0.036823803696515646,-0.0392337278648364,9.670765743241265,0.010220244608183587,-0.0002824388564991616,-0.01412631801841022,3.21
0.097659854759624,0.027272498732056255,9.95368641777881,0.0003292414639592009,-0.00044623717063483427,0.009026437877588445,3.22
0.19576625665557892,0.10019132285739347,9.659293115537741,-0.00976934987296654,0.013278428855981399,-0.01800461927842212,3.23
-0.050501120617424615,-0.022402837107904264,9.730483460924527,0.00984587334965592,0.00262893297954576,0.00043069695473585976,3.24
0.02668338050937315,-0.02078836071803604,9.762788543848801,-0.00014459373248727384,0.008166383661362317,-0.0062753149999764035,3.25
0.10275900594719392,-0.04478724087822233,9.935307790021346,-0.011447364880221893,0.0019402404523732608,0.012318655627344384,3.2600000000000002
0.07859871144310081,-0.14491705807271923,9.704931790966524,-0.02067882120750218,-0.002850365493658575,-0.02964248937106055,3.27
-0.08204230700961768,-0.07003907204346609,9.826563043137652,0.0003603084958630424,-0.006173885443318965,0.0010642671563534812,3.2800000000000002
-0.01930033536147846,-0.12439108595807663,9.81096071384912,0.005475648217058571,-9.329265325476354e-06,-0.0046766845419716485,3.29
-0.16328995446570105,-0.1675716344948358,9.833204313408991,-0.007564872209068321,0.0005176400076951696,-0.01157174152296955,3.3000000000000003
-0.08233537610268576,-0.05122841654607473,9.708951181778707,-0.006895238717386005,-0.011274071550839315,0.009716734855893713,3.31
-0.05401234522218284,0.08480735418237884,9.802536386449347,-0.005177639231422312,0.01712592656303003,0.008104152867312663,3.3200000000000003
-0.007334668863015113,-0.019274727829098205,9.498676143977656,0.008508250342144396,0.0043915729259723715,0.01648528047492349,3.33
-0.03787032986721181,0.05599022464336926,9.682598253901043,-0.02264810404184048,0.027407942284370254,0.008813963449245952,3.34
0.03913750540006347,-0.02565163987452242,9.841383294997653,-0.00865355183324004,0.014007745230530173,0.02287610656641761,3.35
0.07685086785509787,0.015421201145183965,9.936207668337424,-0.0079971049443862,0.007729837837634288,0.0085945542528949,3.36
-0.034889745548789264,-0.05966915269095574,9.820016018437153,-0.00668880972352549,-0.0018897959338679824,0.014896224519098203,3.37
-0.04003354299991919,-0.232551044245804,9.805452511525498,-0.016520691955679963,-0.0010134609491873905,0.0010805635773155835,3.38
0.056928200680935764,-0.010793125640694831,9.850427158114295,-0.0026702227585309337,-0.002517787630934746,0.002438111761965578,3.39
0.026084795834111708,-0.1030797403590636,9.819807265677275,0.004792856667393844,0.004948377592419336,-0.00244766318183785,3.4
0.13507232747159878,-0.010102245585596054,9.745060115362826,0.005002560796178667,0.0033120313268760284,-0.01437250575884323,3.41
-0.020725563186948397,-0.014234343765474592,9.78593446767039,0.004124687950926386,-0.012588276450833265,7.334773651251978e-06,3.42
-0.03350769875165562,-0.2124497050552289,9.900593902894975,0.01499827310516676,-0.021439573370307045,-0.021061474141489372,3.43
0.009553939814684444,-0.014620268501570381,9.763806547551,0.020884415177363776,0.0038900739676627828,-0.005711014704387202,3.44
0.09120815204447363,0.0437269677185711,9.98376906416875,0.007217182215339344,0.011293032505707219,-0.018449241590582876,3.45
-0.04321369802987929,0.005754734509172121,9.86255918775224,0.001009064481659742,-0.005731544171664169,0.011215572062402172,3.46
-0.01194030186872192,-0.1832995783524192,9.738930236936332,-0.010987181678002372,0.002226907482318288,-0.012627619484804554,3.47
-0.013099060025179562,-0.0455728070812101,9.67310725723432,-0.009089872232756953,-0.00401240748241767,-0.0033762885137337494,3.48
0.019278877672998136,-0.12596310517234174,9.86650729581247,0.01149553596447969,0.0164311378489643,0.00015495728675052892,3.49
0.011205450962022316,0.017824309348444013,9.777361777593333,-0.023273520079297585,0.008664156636662632,-0.0070242043989226025,3.5
-0.011923276019118925,0.023222338272237884,9.727824108117419,-0.012560344281331721,-0.0010295483087388619,0.002199683790802868,3.5100000000000002
-0.004943253161178687,0.06569659930217839,9.588261173679335,0.011595054310044896,-0.006813389448327446,0.004633417642600905,3.52
0.014114011531651455,-0.04355282894649499,9.723418892736536,0.001038870545639541,-0.008100640582616269,-0.015155358436523434,3.5300000000000002
-0.004009590904018803,-0.012333228667619205,9.733703272097928,-0.0036706385742782065,0.015434564652641756,0.0017078850495116011,3.54
-0.03606318304477877,-0.03788002623022074,9.707370978114053,-0.006692809399584346,-0.016637248497215425,-0.002826335708895727,3.5500000000000003
-0.06312579823047361,-0.029486995431431552,9.569780894641234,-0.00604932446725716,0.005773254558897279,-0.004911556159083735,3.56
-0.056576869912716314,-0.15267401573179537,9.841658021857777,0.008096895234471825,0.003825253335209043,0.006445645087501771,3.5700000000000003
0.05930055491269546,0.017976782771456225,9.889091598378938,-0.014163077506614073,-0.021098332350306736,0.0064257299747205975,3.58
-0.028505872528914677,0.09817777803097698,9.851756819075602,0.01909679152413863,-0.005759560217228227,-0.010965722528990815,3.59
-0.09604671124534564,0.1504892273699084,9.915100079972701,-0.0026872575251313062,-0.0049988577601030705,0.006632791725719442,3.6
0.11053847014045014,-0.08302136701642032,9.930746718458517,0.008958934124810443,0.010661670975472864,-0.010848728061510006,3.61
0.10471123931861169,0.08403858725119337,9.88474680005682,-0.003224073450670943,0.004073805532810563,0.013857020997796784,3.62
-0.054080093848148714,0.09615750181689532,9.587327212108598,-0.003930049149687871,0.0007012605149486989,-0.004983814605850183,3.63
-0.05685624158691913,0.10408983312663622,9.931799042716333,0.0013021804323684195,0.004550780363118321,0.0008204913421481054,3.64
-0.13108401731737487,0.19848227683309078,9.697301233204342,0.0018713183601651933,0.002765749165771106,0.022150422808498136,3.65
-0.08620040359652216,0.14855301344967684,9.761245185143466,-0.00984479942765477,-0.01890916845406001,-0.0037592557830814746,3.66
-0.012704180384427508,-0.10975934438030406,9.924024906067043,0.0016067939470168757,-0.009001733262703435,-0.010758126118775722,3.67
-0.056461017338469935,0.14344219491807247,9.672075058309572,-0.00872788256646598,-0.016066336275166716,-0.013767885302853076,3.68
-0.07472016144258568,-0.062001527913798905,9.882074821180865,0.006025001192805621,0.006922642768462186,-0.011464961842128146,3.69
0.04289001704881288,0.05580855825389067,9.926725011185688,-0.0011264454154066984,0.007786760726064058,-0.00472674166210263,3.7
-0.04397960775205947,0.09559037334215113,9.791393492972714,0.0031832534060233252,0.016539073448991297,-0.028108027326037153,3.71
-0.1875436428404023,0.16252746426505704,9.827245268577144,0.002171742796091556,0.02068611222354696,0.0015224657152148593,3.72
-0.012444355263056034,-0.03859353654394435,9.731514701685231,-0.0036599345681400546,-0.0010935906605613753,-0.006527100924859863,3.73
0.011684060590566854,-0.004111207022326229,9.806592470282059,0.007876376804053474,-0.009105641563177341,0.0027225810337932477,3.74
-0.07654336924871342,0.13441723679767587,9.88829387035498,0.004392006373468175,0.005558057245248863,0.004151015232968383,3.75
0.0865379926778576,-0.1610043499325007,9.579594038195994,0.006998103957844366,0.011308417192153648,0.0001582924339753492,3.7600000000000002
0.07597436368322996,0.03744523772992226,9.777718936188762,-0.013071434067948013,0.004456239345977192,-0.0006249829120653798,3.77
0.012777319306919058,0.011256210716488087,9.854498569174156,-0.0163439185720268,0.0029244937734036924,0.006726738994097146,3.7800000000000002
0.09322295139693229,0.03012127028501543,9.823775797230741,0.010805779701383645,0.006391141087690971,0.01992923095687411,3.79
-0.04511162365603686,0.06396407538655646,9.86995643693341,0.019776307523401142,-0.022486295875662685,0.0002938055134071317,3.8000000000000003
0.02420655124452049,-0.10233085548514378,10.046209676414918,0.011289142204526457,-0.009366115099460389,-0.006964905430815375,3.81
-0.035304450946029756,-0.20748534543061448,9.735220641058413,0.03281799505723673,-0.003848209212513781,-0.007638179906742458,3.8200000000000003
-0.19219755363674654,-0.1149528062249199,9.800588304941229,0.008529347438207388,-0.0134857477322165,0.01233146730668534,3.83
-0.014936598494667747,0.0669850711600065,9.840353425381693,-0.003907875157447462,0.0005476013527968784,-0.010750428698673676,3.84
0.07723027447278304,0.04770880238652646,9.878526733963417,-0.009271987268739946,0.015799338872712645,0.020200459779063956,3.85
-0.020619897546246164,-0.09598874885044768,9.856457747715426,-0.01652620502735531,0.0005396993053163379,0.0028919492963202817,3.86
-0.02811788955824663,0.1235075047679176,9.73782538498243,0.0092423428283757,0.008248988989114647,-0.013003948262068014,3.87
0.04764453470825716,0.045267039623033994,9.759645263093459,-0.005773542181123667,0.005683225902184147,0.014926288648486233,3.88
-0.0394349362095748,-0.08408641329793441,9.84962311400992,0.005716250791453011,-0.0046667009652112375,0.013201655323518403,3.89
0.047670216290898036,0.004578779577587663,9.833933219772046,0.007931577504445928,-0.00027939000186590345,-0.019454397802429312,3.9
-0.009115297489333653,-0.013834787467984642,9.895763578794355,0.010175899293902444,0.005211400479910206,-0.007449077940050481,3.91
0.06913051838964634,-0.08997028493382138,9.835489825125043,0.004188672237647395,0.0026010540733861953,0.014650340902053338,3.92
0.03601785900030732,0.07153048763381882,9.657052381948846,-0.005184210522599045,-0.00027341427695674897,0.0015678852438022364,3.93
-0.1494758095842286,-0.17210534100769492,9.835732227707416,0.0015768911907447852,-0.002570377507223557,-0.014227704420062723,3.94
0.07190946969547873,-0.01415169625666074,9.629642856249188,-0.009394644660893505,0.0015035475903304163,-0.011945015378445691,3.95
-0.10261311822530908,-0.1048057751674853,9.707066225390822,0.004659281895188243,-0.005306635610589943,-0.010276043839192088,3.96
-0.022425850400449778,-0.06882444036363676,9.748641769957253,0.00884452520752206,0.008798381315394361,0.010112226434212772,3.97
0.08443598770025947,0.10640626554516211,9.833378725436082,-0.0026039116972781844,-0.004307975640670452,-0.00540149231096694,3.98
0.08605103953747636,-0.06970980421586359,9.87439639836227,-0.003514348757752962,-0.012999395625867074,0.0012989930501915961,3.99
0.032153569032561995,0.040204638733957396,9.768029451626631,-0.01846011492091601,-0.005193268961217429,0.014001578018451746,4.0
0.04609852965238656,-0.11137459972966571,9.81499205980822,0.013244779274818366,0.011426822390107193,0.001729056181793426,4.01
0.1123712291108616,-0.16603185064697215,9.824442303606938,-0.009038535897030504,-0.0110747268823543,0.008951377011969786,4.0200000000000005
0.05925352374757421,0.08811433820179546,9.715558489784124,-0.0007993500476651156,0.006592663226904772,0.00038331781068385126,4.03
-0.11219127075197582,0.008433346741528836,9.86026588490898,-0.007589102158055912,0.013888938039656597,0.007728715707274292,4.04
0.09611993006698687,0.020763675488385525,9.848019208209069,0.018481307474219225,-0.010787193973961105,0.007118288438123095,4.05
-0.023106003920775137,0.030841937268650796,9.7366456250792,0.010016091906014823,-0.001076217223645612,-0.01375020912429208,4.0600000000000005
-0.023667322801916274,-0.017232734686564343,9.747689991854383,0.0074881245596208,-0.0004323959961647317,0.0017762378610090691,4.07
0.03701971268154859,0.12985439233535748,9.907247350650486,-0.027398414539766623,-0.02071885737120867,-0.001053660351351093,4.08
-0.018153464498023537,-0.061752116304286675,9.803647915430886,0.0006000502747340529,-0.0040677098002028,0.009769932709263247,4.09
-0.06565669384231533,-0.0040084378059499735,9.79414075389842,0.0024370383214237265,-0.00416163228439561,-0.0071094414654356355,4.1
0.08521442328529334,0.05833607039171247,9.85427271923033,-0.006792606051748464,0.008841179173452021,-0.008648846421392284,4.11
-0.10059576883074423,-0.11057157071986046,9.864846056084646,-0.008800846002736154,-0.005641755514521764,-0.003982874912221846,4.12
-0.08429727925568281,0.12542369384855828,9.907709624817503,0.004572727447226885,0.0071489170628353995,-0.0033129688264592967,4.13
-0.06764479053033506,-0.07813015820406968,9.833422486807198,0.007067539044244545,0.005911720810652664,-0.0037559559306066877,4.14
0.048404929198845675,0.12408009062331199,9.81834832399278,-0.01647932251150916,0.0066371495565324045,0.0012071995243870069,4.15
-0.317534765251632,0.20079786725428678,9.828279310458107,-6.707987718194488e-06,-0.009381453794708883,0.003583287878992235,4.16
-0.05608308470031681,-0.0922902350959997,9.609384073582529,0.010264752342901414,0.005295662291158352,-0.0068096879910065165,4.17
-0.1731923942152188,-0.07009366883682597,9.770884181325265,0.001814589498378201,-0.011096271240788068,-0.0017197745498551732,4.18
0.20959996838853934,-0.07206828093647942,9.886043343606309,-0.00030228530052640596,0.003964711447540535,0.022144306047052878,4.19
0.07761693510530016,0.21497035532772257,9.631696635279932,-0.009114813186605043,0.004718270961612864,0.006070481116410069,4.2
0.0014023469149900725,-0.0803721509501395,9.773832750216556,-0.0021341598859481994,-0.0026493756550806154,-0.002010611764314711,4.21
-0.13894387506659672,0.09648826165375701,10.019634799249252,-0.001383767300565274,-0.02445704746044811,0.004424492839493381,4.22
0.18874442873894243,0.022894922023902094,9.780957866051162,-0.006036040987123149,-0.0013162499716017253,-0.00594380888485542,4.23
-0.32168237511607295,-0.016129210718303155,9.628263328384591,-0.004791580514499277,0.004828141544005019,0.004161774772282178,4.24
-0.07933814324985412,0.05457680794531547,9.883579964647916,0.020096889009490346,-0.010422577632132635,0.00566657681623928,4.25
0.014246103062713115,-0.050158055423592876,9.742240157926215,0.008196277356862375,-0.006408362435323521,-0.013340472588013536,4.26
0.06954986341142236,0.006466012027395742,9.782280024094613,-0.004404355437074007,-0.0012550173817730196,0.002655110684389073,4.2700000000000005
0.022554131660735374,0.1253904727162788,9.70169791415326,0.005188544199288043,-0.015362432371545272,0.0029338108463615267,4.28
0.028534976588461953,0.10935299672137429,9.86560944918307,-0.006867229246096056,0.0004006984352111751,-0.005176026239207126,4.29
-0.09310075481962331,0.17169258475073015,9.883580259233968,-0.005728814665406606,0.003142856874914941,-0.003552369480357142,4.3
-0.08057322178665528,-0.04581789054718915,9.813831321403013,0.0052835694726414565,-6.735765592085408e-05,0.0026244254821797043,4.3100000000000005
-0.10148178354352325,0.06373226653112715,9.810022040626558,0.0011997696472443422,0.009247215563845904,-0.004935574340333495,4.32
-0.011149823187708425,-0.05680973834218938,9.838595046016865,-0.013541238135031249,-0.0013447028824291815,0.001711027372148758,4.33
-0.04921502369447366,-0.20409011970855345,9.861814793142155,-0.005935391872014706,-0.014977941257913836,-0.015407852720032712,4.34
-0.03803414066515543,-0.20710424881394907,9.82011308318767,-0.00829406230738616,0.002830644379633996,-0.009697106055516155,4.3500000000000005
0.01713062558604881,0.07310282669214534,9.852035963931307,-0.014765110636300574,-0.004054848688137455,-0.0009942713935970223,4.36
0.09274984899946305,-0.2397348981399038,9.842377462673072,-0.01895934281214276,-0.0041288778143910325,-0.004011210437466799,4.37
0.1513317323750632,0.001033239327860444,9.900255469648275,0.0019339050896688304,-0.006240083134178074,-0.010331431759141052,4.38
-0.009100197119066762,0.039843755859319846,9.930420228190188,-0.015256182376649635,0.0029248444935171224,-0.0020436159229876225,4.39
0.03219824937566711,-0.02657566257545369,9.874526327780586,0.012444783459746919,-0.009150665132089144,-0.0029521523213009437,4.4
0.08517143889948625,0.06569744363023462,9.733030415421457,0.011152445681900268,-0.0039148472648920995,0.01597391899630965,4.41
-0.0530702250982656,0.14472663173140707,9.814574291884112,-0.0014764881277169123,0.010496119035141678,-0.007699622313642124,4.42
-0.1425625257323517,0.022388549770595057,9.966986007901639,0.019578417065104613,0.006157719101498937,0.007984169706023473,4.43
0.02508511493295267,0.08806125835938211,9.827035831153768,0.002001697832131745,0.013982573319534048,0.0069624316552338375,4.44
0.18922855426508697,0.061920596317798685,9.734052779298853,0.0006128301690235561,0.009724276133747678,-0.009424574091608727,4.45
-0.0895516254072582,-0.0824839439511277,9.653771393949851,0.009923455317599398,0.00028587924146785375,0.01777476732843789,4.46
-0.007325527448523739,-0.030362995081541833,9.890515862839955,-0.0030084057935201593,-0.006378480462432279,0.003080287363510265,4.47
-0.006085405380834382,-0.0639559697237078,9.754049463359394,-0.006207733501040539,-0.0005790005939707816,0.017898585974664746,4.48
-0.014732665154234797,0.023968352790773473,9.932042891693783,0.008740129119589421,0.007092741153066143,0.007656158293515378,4.49
0.030627916350164392,0.10168301688528801,9.790572804452175,0.0017637979363176665,-0.016182110337389647,-0.0039924334675788325,4.5
0.11561758441995494,-0.03655677464008349,9.931040971852328,-0.004716343691791274,0.021807514327051237,-0.0014060637959640017,4.51
-0.08685607861414431,0.1431406049161706,9.824769824373453,-0.011985748446308689,0.002247263629345587,-0.015690386792563755,4.5200000000000005
-0.06341973138324965,0.0373292342474758,9.830143457409898,0.004862639498924777,0.016789760470541332,-0.009424446494493038,4.53
-0.1364651267932409,-0.00982458909767684,9.823029697179146,-0.008130552195133098,0.017497747198135988,-0.0014391291812163734,4.54
0.03965366543210454,0.01112044108396975,9.890000626851535,-0.005230585987833189,-0.006533686428364757,0.003358959162685461,4.55
0.14131795240047787,0.18847798246182867,9.6392217479983,-0.021458448579101792,0.010040808213035718,-0.002241066600189697,4.5600000000000005
0.18869134577181038,-0.17350823393913123,9.718806731922328,0.012674919335280135,-0.00391807317234494,-0.012758605796439698,4.57
-0.1717775042155832,-0.014933487485703258,9.807661908463333,0.00017837669662073855,-0.003550056277480142,-0.002055807632847497,4.58
-0.03166235895418636,-0.05583994386337309,9.84024997775877,-0.001670116674786364,0.010861956976911226,0.002160195308265233,4.59
0.07202015996246319,-0.042133361855919337,9.96665146152432,-0.006317091224375146,0.015496085392278565,-0.013165647357978094,4.6000000000000005
0.08013795307757586,0.09747805955408088,10.047967597297326,0.012875843631015882,0.012371610318951834,-0.004005544623681726,4.61
-0.018662165100082583,0.0667753957353861,9.64964278998219,-0.02044502187774075,-0.005131810412164717,0.008358274534713515,4.62
0.039719221331173116,0.16467532404476104,9.846720764028039,0.023191641926846533,0.009529342663670773,-0.0020904679615492343,4.63
-0.08993016229857453,-0.06168602081575038,9.793497063137846,0.004238050311282889,0.0027167601439019398,0.008168227608098612,4.64
0.07214538978753167,0.11621431314903308,9.712176241007683,0.01020364963491682,0.016372882617076815,0.004499225376074989,4.65
0.07436373873682232,-0.025200832115234512,9.942200936991455,0.012157842038807203,-0.004112120632858912,-0.007689465719016931,4.66
-0.016144070803899496,0.09146098126020454,9.643521362546771,0.004729901329529973,0.01368728822544817,0.001973734950302121,4.67
0.04424071212012731,0.08380362209342374,9.670830921309749,0.011054491108634764,0.01173613866885824,0.011212884548072366,4.68
0.1026951353380466,-0.19142808541497605,9.699419852897481,-0.005992169194489728,-0.016144771959531314,0.008691522706490661,4.69
-0.007714846595678919,-0.28715794724855853,9.758036496590083,-0.003029481889300241,0.006525723097731562,-0.02234796843180011,4.7
0.0270012040086649,0.028547506920760125,9.92137834667079,-0.010794349895173664,-0.0048259178306238664,0.009776386928253097,4.71
0.23749658940853574,-0.028257357612431477,9.768884607694185,-0.009471278825134656,-0.019726170914542897,0.00653516550279696,4.72
-0.047647381603540144,-0.027326193427840734,9.928511024949232,-0.006278245889057351,0.0028862472444613598,0.016343428840900148,4.73
0.16858777030065653,-0.02812859761038422,9.822542593984531,-0.005975566299452353,-0.004236155381967039,-0.002215760296075786,4.74
0.06385928617009448,0.24442718174807712,9.845185586506886,-0.004947822828653372,-0.004854384751330181,-0.00018407095948587253,4.75
0.0983435119454401,-0.08407634165428096,9.993696710747662,-0.006699226714021678,-0.01253186205915018,-0.01136242136348294,4.76
-0.07956224097365487,0.05627259413418223,9.751016725768856,0.0040363178506271635,0.005785206466505085,-0.0012370455619697856,4.7700000000000005
-0.025815004603869696,0.04872657039125647,9.76446649906516,-0.00098917898837768,0.015417243088917525,-0.02102006742735731,4.78
0.04075658459296225,-0.21725364326058708,9.87748084379018,0.004351685161206305,-0.005118556856337153,-0.01855322395058762,4.79
-0.13650969402706636,-0.028740307252355463,9.823974769828034,0.009879920590061075,0.002426276037397412,-0.007666331823597291,4.8
0.00871418894181293,-0.013939054802581312,9.693347034085322,0.012424900694574026,-0.015299390518072574,-0.001836705222273073,4.8100000000000005
-0.05172645230419398,0.13438142203518263,9.819807113322751,0.006132687962591394,0.012341196084541982,-0.027715659910492435,4.82
-0.10348553369632169,0.2833900128437596,9.872002048395379,-0.006278270114583403,0.0007978656607310647,0.001569793103522495,4.83
0.039980085694642405,0.05906608505619396,9.667895725296152,-0.011598021248296772,-0.010790272538953868,0.0017116288550867217,4.84
-0.06339956478267646,-0.12237050010008683,9.793380249453115,0.007087172253906302,-0.006518803075994981,0.002741046565424165,4.8500000000000005
-0.026150563029346936,0.02226729136144722,9.820234660030923,-0.0017539853992604964,0.005330009107290971,0.009543043307581408,4.86
-0.10749740770495093,0.07052493970442324,9.885056512232062,-0.004358875214822512,-0.007708922025603137,0.01165511260751998,4.87
0.11800270705327641,0.06177566192227921,9.765419947392179,-0.0175032932169874,-0.0046202330025813245,-0.00889335798365112,4.88
-0.22413241588479052,0.19495254947813218,9.852912408346162,0.01864140451045428,0.010729441297697973,-0.010921937755539993,4.89
0.17720223646694977,-0.020647176019009082,9.923862580351276,0.002997006769178778,-0.007523413320271554,-0.006691727630339517,4.9
0.13782707706077466,0.17014177306234124,9.806639859462958,-0.0036366954953950996,-0.0063520124189548255,-0.0022338071218215593,4.91
-0.03290676557534122,0.08323859544092949,9.831031228107708,-0.0043460665410935085,0.0035987200030076255,0.01201681464261303,4.92
0.08229860924901196,-0.06695887457954817,9.833656628027404,-0.0037066567529777795,0.018604100838454336,-0.013744507315069448,4.93
0.09679382790734956,0.020575665868672665,9.865870561243078,0.01030452625472538,0.009709366080843272,-0.003675318337521127,4.94
0.037810729651865986,0.09411853824710815,9.733942492132853,0.0015765106149781942,0.007853761041528795,0.015017058021786812,4.95
0.06750286042527463,0.06935469778101236,9.857312192366027,-0.002997434940887675,-0.011504112726053211,-0.009652224503817093,4.96
-0.052121546946281454,-0.10006230262200924,9.732711749003734,-0.015204529804766232,0.014018943285512635,-0.002176067953758554,4.97
0.15263641490003682,-0.10492637904855061,9.974009408425376,0.006698806410901967,0.004637744500767599,-0.0009215053313483994,4.98
0.08560250396312483,0.0430549334893629,10.061094964088038,0.0005506551008405166,0.002929197621323301,0.0002604764299223853,4.99
-0.03259569660837349,-0.013712891846123017,9.901435337602612,0.014243996383795655,0.006037673539220486,0.00021668274564178,5.0
-0.10967184690263354,0.2184824314474704,9.71891281313228,0.013429575102938551,-0.0012892331154507203,0.009007305547219483,5.01
-0.055876579878619506,-0.04426855369514589,9.956887558217186,-0.008035717867293598,0.01609826052604341,0.023349889685189536,5.0200000000000005
0.14821430714744108,-0.017992447033402515,9.853755934581697,0.007307627208180996,-0.009630692721271056,-0.0009468617904012358,5.03
-0.011586104148403916,-0.1100222421205695,9.776841723599894,-0.004036055439228798,0.02303411218503463,-0.004461994545038837,5.04
-0.1789870568811485,-0.09209268548019178,9.802682501646636,0.003745954498934462,-0.019739387877603827,-0.001182593517382674,5.05
0.04099457154099253,0.032170624215079935,9.86301241856721,0.01201711739383501,0.0014432181031251651,0.01288744827234578,5.0600000000000005
0.005140239315959047,0.06382190781651115,9.795014194823853,-0.01600733053647795,0.016860337399255937,0.010675793516434804,5.07
-0.08752696938408035,-0.11288503370467809,9.975419619682981,-0.0031310828750924454,0.0020531903785206114,0.008806010970995586,5.08
0.12375216581459508,-0.014423094105805459,9.749348475230212,-0.009843552119385505,0.006709927592830129,-0.007595528367052699,5.09
-0.036943999845797985,0.0160925976145903,9.895998158229268,-0.00464402328031252,0.001524085188982015,0.0018247733287382207,5.1000000000000005
-0.037330068542267905,0.14250326944998717,9.928724601116327,0.002347958067551448,-0.00466238552880037,-0.011689096212348338,5.11
-0.005885059797633772,-0.1259025555632754,9.926834967171514,-0.002554429676627185,0.003296498750540154,0.003256568900326131,5.12
-0.02434815663554205,-0.020997194052506545,9.871400641846739,0.010071684650410457,-0.008787654299858406,-0.004823034231391722,5.13
0.03387502854390156,0.05237372665278498,9.821029635007852,-0.012909640118896691,-0.005509444807649183,0.000875440169062019,5.14
0.07218388484523498,-0.03412899693361612,9.797084883609163,-0.0032491011013015426,0.0013947194713997068,0.003626934935928925,5.15
0.19767043401389292,0.0018565042363568266,9.685830488279624,-0.01250420962106263,0.0011938869894604653,0.0018427402879914881,5.16
0.049429235040995244,-0.060347412283854096,9.893531800228267,-0.011662820800572156,-0.0017068245297940266,0.003595277066225088,5.17
-0.15195010086928448,0.09282111845623633,9.84043907860164,0.007219188618293173,0.0008322138748547436,-0.0130526884579213,5.18
0.017063603227653528,-0.17233349702327075,9.748803079660366,-0.007066462810450383,-0.009611308775128015,-0.0020598967388221197,5.19
0.03548184973570251,-0.08348655120640741,9.962076480931298,0.0013007072799771458,0.009497472346655956,-0.02293305388546261,5.2
-0.04322673901332767,-0.12146918828954881,9.683218087696632,0.003444322889519231,0.009161746168155365,-0.0038336335715398514,5.21
-0.0470110620428336,0.024258685678413258,9.876555770234788,0.012377270917376445,-0.0020247342060235917,0.00041935314041055294,5.22
-0.10779971535455482,0.05437596177500135,9.72498367541196,-0.004450866361794805,-0.006878311755797651,-0.014954043440148921,5.23
0.05483177609470901,-0.005400046529891329,9.802959606919552,-0.018885297311666795,0.009768838307311081,0.02064631650788711,5.24
0.10904978892586013,-0.07624203207148218,9.86780530570443,0.001097776759011192,-0.009199606714619854,0.00513823079294531,5.25
0.03495395494905484,-0.04639486528474034,9.75373916107496,2.4405107936824966e-05,-0.005152253271515437,0.01093558641246545,5.26
0.15315265504852527,0.03769514276101886,9.867957558367614,0.005517347588746577,0.005007723616620574,-0.010423495447738951,5.2700000000000005
-0.03406990639488585,0.08022379850388289,9.784302057804819,0.010436567492943838,-0.015642521019845167,0.004790363893472265,5.28
0.0063143656507974825,0.06618494773495713,9.769629398405067,-0.005633033853152922,-0.01396478489982623,-0.004940063143426255,5.29
-0.023537857113109406,-0.0605708902005864,9.932626523100247,-0.00540519552812777,-0.014887097277037511,-0.017093645619547168,5.3
-0.02886311741404063,0.04971148572347322,9.823400350933614,-0.007175931117577193,0.010479253604579299,0.016719504418036883,5.3100000000000005
0.03630145554517566,0.036771516973938934,9.901098893430088,-0.006798956095727273,-0.0036074378244489837,0.004574809393010453,5.32
-0.08727151319067133,0.051455732738505594,9.91981978004476,-0.02145433976472946,-0.013831022925931023,-0.01759385358584965,5.33
0.04825518851804983,0.0296097795706792,9.994623414945762,0.012087205911768234,0.01131800982735864,-0.017846549369059307,5.34
0.12668480723648176,-0.05469588429258753,9.952073396104833,0.004039726918799944,0.0017107253273046842,-0.015615552243695182,5.3500000000000005
0.015476442043792272,-0.030652154729040967,9.917441952015798,-0.0007896752349914526,0.012992886102264834,0.00880031829163904,5.36
0.05943451435149764,-0.1365829711251698,9.946065715877477,0.006126927335887947,0.011790294330485673,-0.010150585117277962,5.37
-0.011782456787088575,-0.21774560384589778,9.803516946415456,-0.002763234042548335,-0.004629901524767545,0.016656657195693977,5.38
-0.03344573962357542,0.18619580071683417,9.907108562962891,0.0009108468790169208,0.016971415819580487,-0.006005988875388148,5.39
0.012311230141132988,-0.0935801992367822,9.90884860399339,0.00011987106983334968,-0.0035450372499288754,-0.008097141905664547,5.4
-0.05310177333186808,-0.15960081611096946,9.69530702920621,0.01102708204923529,-0.0002443268855391517,0.0029505797377483195,5.41
-0.16692716391468376,0.010425912770164344,9.939732752297122,0.0031365312629179276,0.00978754213354727,0.0006658860832511475,5.42
0.10290677036325938,-0.1189756375896603,9.845691492954131,-0.0020060705182512037,0.0039620441330358944,-0.0016683260081818737,5.43
0.03939406226772399,-0.03880322382057174,9.742846981715438,-0.011275485038626213,0.005596889156978852,-0.0091521195641786,5.44
-0.02599811174096929,0.0017336519015146098,9.921359932079795,-0.002457683128270814,-0.00549653102287317,-0.007270893245496977,5.45
0.12826759414957112,0.13030026059070796,9.799820778702445,0.007572536741792244,0.004552437046518949,0.002594111526246094,5.46
0.09813076530581764,-0.036522981084679794,9.757725932940259,0.022951727667848296,-0.006565402569476237,0.017899801706202464,5.47
0.04371694915910395,-0.026880544975163734,9.845241392041927,-0.0020535318546435555,-0.0018994180975134428,-0.004411772859122232,5.48
-0.11801426465112484,-0.06467496650276487,9.767794329976695,-0.0011370806206078407,-0.002069219589136151,-0.009829868885868096,5.49
0.032883416433187616,-0.08439897692900261,9.543156241013747,-0.0011621121009331196,0.019490228050517474,-0.004622715999365284,5.5
-0.12627074887828302,0.018593036475780693,9.920441921407356,-0.0076409089534970566,-0.012777144350939944,-0.0028609655332485786,5.51
0.08430643706932149,0.028591371334709282,9.781487380943686,0.003994131917406605,-0.017410992282571456,-0.00010085145848172797,5.5200000000000005
-0.12675117974113922,-0.03757478115391089,9.763482490906217,0.0041946053495453975,0.005736046438851417,0.0023110640143428176,5.53
-0.09896941316004153,0.16428394674539243,9.829695254766175,0.004063637084817654,-0.014916994081879121,0.017062532608591665,5.54
-0.09983200085662336,-0.023411376206872375,9.713674388644561,0.003027587020392612,-0.00439654408107643,-0.00040784396065029447,5.55
0.06708487821116564,-0.04797921905737951,9.722911013605263,-0.005348752954322803,-0.012925617111623535,0.00917818154590786,5.5600000000000005
-0.051962191114069724,-0.12746783433618744,9.730248261898032,-0.00942482320596515,0.013787408234093803,0.00393387065751907,5.57
0.013735011939335105,0.014732709386034708,9.967633278676416,-0.005251670291324826,0.022705113841652576,-0.004294823829061752,5.58
0.13178497151787386,0.005061030555877876,9.906943990697867,-0.015072482561507703,0.005209064045435469,-0.004280471975920831,5.59
-0.11349245175224734,0.02028498407590508,9.835049639830542,0.010304604206151143,-0.01065081415654888,-0.0002510789326844996,5.6000000000000005
-0.060360989421503745,-0.12443080376284882,9.78446521048398,0.008862684309034558,0.01923614501100869,-0.001454099423364099,5.61
-0.1566079958184035,0.03573272900862449,9.876793584262986,0.003568883157262295,0.0013012036864279918,-0.00752245419469068,5.62
0.055716475143074186,-0.05748075661377719,9.854870888257853,0.01006690004091389,-0.0019258277843971878,-0.011489275576041718,5.63
-0.21442791089668087,-0.05904233563649728,9.970009189514512,-0.007427784614135314,0.0004453413776003448,0.01312495005478026,5.64
-0.0022002608880415243,-0.05113958905228985,9.637382013429937,0.005330677899586951,0.003296171482504801,-0.011941610414731272,5.65
-0.06958230426993636,-0.09025421616890025,9.73012902477572,0.0023691885166436605,0.008387340056895065,-0.0036100323568022752,5.66
0.018863691588316904,0.028584795835940063,9.885885574944382,0.009165294815896537,0.009164995450228692,0.0052000800765975306,5.67
0.17825990821665702,0.012097865959081825,9.87946182755365,-0.004197906407138831,-0.008093004062961484,0.0006206973330977758,5.68
0.08254271294724586,0.08383215082378243,9.706396103534736,-0.012755421022714904,0.0025586405291857235,0.005199156705389142,5.69
0.16080402447573733,-0.030725365582289166,9.81314586324692,0.0010772664039228575,0.014227674876427229,0.0060338519655718315,5.7
0.055137137474498055,-0.01194151627569072,9.75537590904789,0.0057176156597705955,-0.004016400173034672,-0.007500403656243138,5.71
0.11995966168518378,-0.07560614661146786,9.776764285403075,0.021070416738056968,0.00653093080613702,0.0010247091316597803,5.72
0.07535156323438891,0.026883668955996205,9.685897279787126,-0.003049851974819093,0.006645530257865572,0.0014877811809635528,5.73
0.07894403323859031,-0.07527345976777348,9.86416764928272,-0.0026464855176935027,0.0023515169930012716,-0.008999452415245676,5.74
-0.1157511553208676,-0.0471717837837158,9.745568118096761,-0.011556334415169605,-0.0017558754847856626,-0.022713122455897756,5.75
-0.018797025024055503,0.13594274494148037,9.86438313118235,0.009927780315107248,0.0008098106338705545,0.0031960695523921834,5.76
-0.2732039085512585,0.14685354896250633,9.785774544925818,0.007879797693646879,-0.006967334660333702,-0.012628075310178968,5.7700000000000005
0.05843035172457514,-0.09413988000628794,9.876396677675645,0.012890675651968043,-0.0079710570073484,-0.025529248755285762,5.78
-0.021035801184975896,0.0988821698805012,9.726784244026492,0.00856992827807523,-0.005236009443270101,0.007071594319987684,5.79
0.008307133652005428,-0.04180921856032865,9.931163973104713,0.007263105770345746,-0.005849434890042604,-0.00539720832204057,5.8
-0.021358369183528292,-0.14363403270818825,9.768294097957344,-0.0022761457519633343,-0.003972349215606561,-0.010492465954527035,5.8100000000000005
0.0018942527349345502,0.009852046168613252,9.897398291477073,-0.015516117300418667,0.015866532550222565,0.0026275129296156018,5.82
0.08133161873629698,-0.24656269484438656,9.65020271560673,0.0024882289028304297,-0.0011952670214015226,0.004473090076377479,5.83
-0.2928126910843698,-0.1333732136123049,9.797082483922518,0.0034543559462990813,-0.018480815812055674,-0.0055794420428585964,5.84
0.1830511616951147,0.08178138344192631,9.82763590712271,0.005575475437214739,0.011297526110129642,0.0004172498718814514,5.8500000000000005
0.027909115318478558,-0.008666652756668645,9.88268989718401,-0.002067412077961177,-0.012002185060909908,0.007185624283873446,5.86
0.1599272172074065,0.049814946777757024,9.76624683490102,0.005182277015959253,-0.0024627208081036685,0.0016305134581189418,5.87
0.03698813978648701,0.015163382141636376,9.768635622870196,0.010070223765908113,-0.015903113557438883,-0.0027773496741108983,5.88
0.08503065964556834,-0.09220159254377172,9.657754024574512,0.008957192730123324,-0.0011384287280810914,-0.0066783311203934,5.89
0.007860891797042571,-0.066791726115743,9.857987880502039,0.012337456880799923,-0.002567043045708961,0.008734133286739915,5.9
-0.13104962279415816,0.1428909567032963,9.8733560823251,0.01638979883036994,0.004549921789085968,0.007469686470953224,5.91
-0.0044691719342362865,0.12473239750958168,9.698371564630413,-0.0017989326383113886,-0.0029501862819795123,0.01773966556379744,5.92
-0.007977278936508986,-0.0828731726260874,9.884701397745012,0.0010447966078782605,0.0005858894277887777,-0.006184679209157094,5.93
-0.0799939537087616,-0.03275382065562637,9.756419377544866,-0.01883067727712954,-0.0024644624189939387,-0.003994097339416492,5.94
0.03768675864598624,-0.0012633405080841103,9.912915459855778,0.01176381561729166,-0.007125074083199502,0.006131152317595946,5.95
-0.12016859979349936,-0.1172201633024631,10.018036946505188,-0.014554640263960847,-0.004044535780482718,-0.007103952051150422,5.96
-0.05551158067221066,0.1697590527191788,9.653551303098741,-0.004089975280405523,0.013661036876959591,-0.002266170060959237,5.97
-0.18509957868569776,0.2302601948114621,9.809106400677058,0.020982572092354462,-0.013323831988828362,0.010089036755770338,5.98
0.05787845899104421,-0.04234576585749805,9.6395978330621,-0.007857899443752165,0.0004969249780715986,-0.007166496216910225,5.99
-0.171208225600695,0.07122412368906395,9.81962275344377,0.010466772940996709,0.012878864218306394,0.0033221700473355367,6.0
0.044787960707252134,0.009651250656268451,9.716331924716759,1.2479448469831797e-05,0.020114188694406142,0.0014367377200984774,6.01
0.11384867856606778,-0.11069239065513348,9.677777142498094,-0.0038816869892704703,0.0025972790253565455,-0.010973374614989841,6.0200000000000005
-0.022844112571475787,-0.013343331835441409,9.86969810879266,-0.002205185893361238,0.0038039305201893565,-0.007142380696242859,6.03
0.10169755124392754,0.02061156250221688,9.896434719868726,0.007804682224390438,0.0007336609769919574,-0.0005808877257405512,6.04
0.058324797206472635,0.14489150794041047,9.781883508105674,-0.02181400582305675,-0.014647639865553005,-0.014063439193776086,6.05
0.12214280976501504,0.053334556721696826,9.703553382475048,0.011147261600200487,-0.0034942380957555426,-0.0020615483128248605,6.0600000000000005
-0.15027839731301196,0.024868987683166865,9.898295737797152,-0.006776352427843786,0.006457866524620529,-0.0023181015916971925,6.07
-0.07443842921449127,0.11517692503833887,9.765743508592037,-0.006407633992314475,0.004015659299337965,-0.0019427202622343273,6.08
0.06342055704054049,0.021401854058962826,9.943778644691573,0.00624282065131701,0.007620974692622859,0.006036553573059432,6.09
0.09656445753056864,-0.13676912018137707,9.801921727884428,0.0029302605046533374,0.0077029083913976205,0.00588898530275363,6.1000000000000005
0.25570091742180007,-0.08949592782342342,9.586458194801153,-0.009962893838290807,0.021789372599347444,-0.006773061625108189,6.11
-0.04852004577417073,0.07211217554138803,9.724701832655958,0.017941690137625265,0.003675056334154167,0.014061158288980831,6.12
-0.040724497343529655,0.02309197298695946,9.913353077667352,-0.0015466677433120836,0.01959874537602869,0.0057758473571018045,6.13
-0.11919795357553374,0.041028841763845546,9.749752771212949,0.00043776766180444814,-0.03194066938771757,-0.017989939096161374,6.140000000000001
-0.05620732038122658,-0.20069572051572904,9.771197183974566,0.0011503470355886346,-0.018574530301754204,0.01129916756879894,6.15
-0.010553850939348547,0.02852469507333006,9.776370445913573,0.012394808840581561,-0.010936027502202402,-0.014761456120221655,6.16
0.11686069891272506,-0.0790851365835032,9.76375235281926,0.006340117054743896,0.0008386522825838434,-0.013432822667057679,6.17
-0.017676735497547398,-0.11908477196312804,9.721803702755995,0.0011627565032903684,0.002178902732394783,-0.004897548458974943,6.18
-0.017266609999571688,-0.059572940868611736,9.835225663735805,0.005114894628323486,-0.0018388720137150203,-0.006952031147972827,6.19
0.033591661695516445,-0.06078327694285457,9.800463544671747,0.0011114742486456745,-0.028973293237671727,0.01072963222851286,6.2
0.10350151152743084,0.05986728313506463,9.872850174477204,-0.0126719115272446,-0.011926373433981105,-0.006495356384075916,6.21
-0.045631475446381416,-0.04558401124205517,9.76205290176813,-0.01607814519637098,-0.004399393744275484,-0.014651677248007406,6.22
-0.1510600305774425,-0.25553004529986006,9.813862524733143,0.01121912841865248,-0.006231232200188955,-0.004854524268368873,6.23
-0.025282593245045167,-0.08395206975400454,9.929556671025617,0.007152878737294319,-0.004938706503512993,-0.03159804001364576,6.24
0.13595629177782204,-0.07845643209104941,9.65319421157401,-0.005547649232569978,-0.00298265063736354,-0.0003543193507963559,6.25
0.015270984279406239,0.09682179701640137,9.807780375446349,0.007771266771505137,-0.019519063112802305,0.010404722959428202,6.26
-0.025426362372701967,0.013772359400387952,9.845247068226207,-0.0001195778160431515,0.005036330364965619,0.004943902172750217,6.2700000000000005
0.10159638072794544,-0.004230729361735305,9.881375806116104,-0.013800789697493798,0.001488368343641785,0.010111807460811527,6.28
-0.11619226801647159,0.13594062619872457,9.941359199662474,-0.0008317561540524725,0.007079048989438847,-0.008868940651307068,6.29
0.08380314625332258,-0.06748542500889353,9.75853011823234,-0.00840741483984036,-0.003520471667255844,0.011751195348455984,6.3
0.0585864825881928,0.010874989765726054,9.699894684924645,0.004811438983049133,0.006109366136288933,-0.010339354667227995,6.3100000000000005
-0.13970865417947742,-0.06584200863746838,9.77914070426045,-0.01277748153205387,-0.0002550912700329008,0.003946503332017335,6.32
-0.08199647009222898,0.040005950711826804,9.816140011237867,0.008369417899496365,-0.001284290592338494,-0.0016807760087159476,6.33
-0.03259187366861458,0.1208929126964161,9.603636271759417,0.009537495786415969,-0.003048713129065825,0.00786176794632557,6.34
0.07412485758845197,0.07486823493118695,9.80636861488407,0.0031429379609052787,0.01880875430164445,0.0011574183828728455,6.3500000000000005
0.10187445504800928,-0.05176531392779787,9.646075452024657,-0.009750013730099606,-0.004692609614400142,-0.013393365877833274,6.36
0.07393256541446534,-0.1265805620677344,9.91604066062357,0.002391241778039682,0.004594733561160363,-0.004695052289930718,6.37
0.11235151187480799,0.035232961320110785,9.81820066859507,0.003329171757925387,0.015530935110334952,-0.007524381676933489,6.38
0.10312570602685789,0.10885844942021815,9.840120362774632,0.01762272816930393,-0.0030438744861199384,0.007627916763655259,6.390000000000001
-0.03174077992280998,-0.004055032464655241,9.76600020396714,0.0018430957938659384,-0.0022102558801911287,0.005125752697109369,6.4
-0.04365450558627275,0.020176387167382813,9.751237966504336,0.019458867911948428,-0.0050938324416362505,0.0115022139320698,6.41
0.009378726848563279,-0.001256615291081297,9.75661423109487,-0.005701731427513231,-0.0036874381907059063,-0.0074086847667920895,6.42
-0.1270933645467224,0.127370086079827,9.682652213851298,-0.023680643115996183,-0.0028700161112444346,0.011862955218432777,6.43
0.05009214140136986,0.02498462524625801,9.764123931879377,-0.0010192608548410561,-0.007706405535810526,-0.003972379418694651,6.44
-0.0662137747289408,0.01594264790413266,9.862330801752302,0.0017356500775095574,-0.010246771770746288,0.0010123004360206192,6.45
-0.055833960966770305,0.002182484781225883,9.527242681354387,-0.011189324189346072,-0.007827919563161628,5.50503311207156e-05,6.46
-0.030081922358678966,-0.04737266225943139,9.908442566087942,0.008128088115424162,-0.006636090141893258,0.014536651071328392,6.47
-0.09293013906726554,0.1511327647737137,9.83969037682507,-0.005180557341206791,0.014446096765839673,-0.015313723206761195,6.48
-0.13114119440664934,0.06285576961406256,9.811071300429447,0.008137168038034985,0.00791238376441064,-0.003604692198512412,6.49
-0.10794225869909108,-0.019020894309843113,10.003091242626304,-0.00903515244492547,0.008819567972074161,-0.032391059745140914,6.5
0.06293671872427763,-0.04015001070822452,9.91413417083103,-0.004206606105942915,0.010237003821467933,0.007366858191203556,6.51
-0.12020735431813681,-0.026712567013815816,9.739479420865766,0.01553080494066343,-0.009670763602803818,-0.009067582258695916,6.5200000000000005
0.13245345596999003,-0.08589559950238707,9.752777867961484,0.004045574317849318,0.014094141908985367,-0.00011314084923154909,6.53
0.00629461417180762,-0.05664440229618835,9.76310217516414,-0.004781738153727523,0.007472177238555084,0.006900610277021612,6.54
0.12579749176437624,0.046539542465652374,9.762103845786951,0.003698822251370314,-0.009412374518460791,0.004235893547874441,6.55
-0.031489827824152446,-0.012536958342271882,9.774960374892842,0.009539231414670248,-0.00637661253862343,0.005290312083695646,6.5600000000000005
0.026024038579794476,-0.05490771089344865,9.946535345230183,0.006295853426182514,0.005164820621673246,-0.019256508580723298,6.57
-0.12514539351146978,-0.1210609182340611,9.787241287028282,-0.011236113034547288,0.009989393259501973,0.0038230976620056392,6.58
-0.21040252208123725,-0.010860969879267782,9.776848457879007,-0.001850849185894963,0.004128917893094404,-0.0065155969482790154,6.59
0.052997339679875126,0.0756608659696873,9.628361866491828,-0.006239271405278491,-0.010621764854733626,0.016503916560735542,6.6000000000000005
-0.03852180921716643,-0.0394504435847361,9.904417356898435,-0.012307768222453806,-0.0075366718400778415,0.0067419857147010855,6.61
-0.0775992718926644,0.17960292992536572,9.921419134535803,0.006129459835040977,0.0025419060715664503,0.0023348448525041515,6.62
-0.053454811663016,0.03943885541039212,9.755438587987662,0.00012192705065795719,-0.013327878844714371,0.010206694236980457,6.63
-0.0035536010784775955,-0.06350931967975175,9.802046603200122,0.00444946280669906,0.0024374512639848446,-0.017654129461798493,6.640000000000001
0.017226820132611946,-0.12812292705541137,9.672406703103617,-0.00830443292576957,-0.008873611065119772,0.010030316879508245,6.65
-0.28561594542951646,-0.03910724668483072,9.766701679965232,-0.009330522773601694,-0.004342038866450153,0.012291003863681853,6.66
-0.30736495255901375,-0.054875263190872825,9.691350487109496,0.013893181889043895,0.0051199921907948654,0.004139581784702708,6.67
0.006070076748960914,0.07377687884923334,9.839945536526358,0.013748286821902565,0.008515052599546089,0.0140001757040303,6.68
-0.10952574225926762,-0.028108697780974436,9.776797137299505,-0.0003722729443971551,2.0547898919878307e-05,0.016508422443629996,6.69
0.00826517332406198,0.02925139073106956,9.794092602320545,-0.0008708600437065629,0.006102039977580998,-0.005651634396603798,6.7
0.09424221812752065,0.217104587460092,9.70944819454075,-0.011023573547545398,0.007539856412502853,-0.0019508427832844175,6.71
-0.04659196052854219,0.03642548424267229,9.724643372859411,0.00567221639871847,-0.011187586562852616,0.012536754737366427,6.72
-0.13955448354204122,-0.04131328342179788,9.838610741297089,0.0030881379519395666,-0.011581850884243293,-0.0011740229365990078,6.73
-0.08330125189941479,0.013711611606516075,9.57647688096405,-0.01740966826937313,-0.00558247003589521,-0.0047285988837164564,6.74
0.0812227488676275,-0.20304746661176518,9.811237874977873,-0.005081710907196746,-0.005734242999456256,0.006959474953733542,6.75
-0.062166511401020724,-0.05840039250974012,9.860855296824301,0.010404618786941208,-0.011419513070481233,0.0069183218460269315,6.76
-0.002760758594803807,-0.09945897091963701,9.856942016789224,0.007954968072036233,-0.01654438583167047,0.010381266230098274,6.7700000000000005
-0.12563932471609687,0.05227052834847021,9.995378309860598,0.007515505680082164,-0.009832354625288262,0.014035577112708471,6.78
-0.07386499616314741,0.08624940227668977,9.9631122889956,0.00019511257473163343,0.0061427282098700554,0.006810593024222866,6.79
-0.1961474931059511,0.10524652312317113,9.873691715975289,0.013331825109790012,-0.004683815231005568,-0.016991983060554713,6.8
-0.01826981022891486,0.13051074159879467,9.877359443804657,-0.007668131695702645,0.006094818204061936,-0.0003740956959915489,6.8100000000000005
0.006870231795881441,0.07201983086190486,9.972422165710812,-0.004814435168616184,0.014232311690958795,0.02834677182060112,6.82
-0.12203762503306195,-0.13559465007373958,9.919148100082557,0.005621862413031044,-0.015755848931264155,0.0008964856027102552,6.83
0.1573509138066692,0.2543100531540694,9.87411253605847,-0.005298988826271932,-0.01725199040395819,-0.005517588044186157,6.84
-0.05467877172584789,0.047674107822421416,9.727264157917627,-0.015608590567473591,-0.003865508983442943,0.007501936176110433,6.8500000000000005
-0.08209534201301853,0.014662914084254198,9.899987535303449,-0.008992063898334878,0.00915115232651083,0.0008227061935535124,6.86
0.021178275702047084,-0.013490631111547781,9.741002485855597,0.0012410394704867344,-0.017530062166880342,-0.0046781040679744965,6.87
0.051649319598132175,0.1373887688138871,9.889783919912109,-0.002055867801072627,-0.008029979268707892,-0.0014211041746765884,6.88
0.005022841748782503,-0.09136332058426942,9.878766984076474,-0.0027994912018950353,-0.0015815346377708107,0.01035387993885339,6.890000000000001
-0.14471203985719272,0.11303156648627417,9.855290789137577,0.0020788026148804103,-0.0030190061560118483,0.018408651172514057,6.9
0.05508200767140288,-0.1076222066685373,9.704572141836957,0.0037827156410648955,-0.00822164678979027,0.0009014691545993222,6.91
-0.036424948393802455,-0.02828451414481062,9.628518372686052,-0.00488686961243411,0.00951207627438532,-0.010998566060885584,6.92
0.02744813595283671,0.03149607938879224,9.903308893948301,0.0022303067523868152,-0.0014273631257931776,0.01695376069798358,6.93
0.1117545557144464,-0.16545670808084037,9.850704763179653,-0.006056790910818688,-0.009601201711462422,0.009106085915139337,6.94
0.0681447079666566,0.1466824499789455,10.000880696822193,0.005342565139038294,0.018781866833961783,-0.012319705964933548,6.95
0.08205123422087679,0.0332338189241456,9.771397219913661,-0.012869784490086278,0.005111141621829416,0.007773243256128759,6.96
0.08053426010824057,0.0995713793580724,9.791253361762726,0.020425959085387795,-0.011518639544655951,0.0009541852335951423,6.97
-0.030260242486912906,0.016819967464237646,9.772252910338983,0.0002477946716859378,0.024469002623468725,0.0038475716562789393,6.98
0.07612319412505471,-0.06655513760668093,9.808805663378205,0.004353884609990322,0.011996192661939874,0.010731576343616744,6.99
-0.0436667556943486,0.004652661412073346,9.893716033367278,0.0018122311067189595,0.013058267634316483,0.0002147400726393445,7.0
-0.03108355232390002,-0.012503799395267037,9.922998126848158,0.0010521611954753202,0.03674654695258971,-0.0063292684122825595,7.01
7.809335575517608e-05,-0.0838099105691354,9.762559101768582,-0.004480746288722693,0.008589244914264847,0.0018357940298766087,7.0200000000000005
0.10929021491857299,0.07593909247682468,9.8738101788684,0.006701010571884755,-0.002155498562031944,-0.009463245610771645,7.03
-0.06858289871745692,-0.13698602538492263,9.909238566453169,-0.004705856862118653,0.014928072204098317,0.005225340960049988,7.04
-0.07344585179248593,-0.012721680308630813,9.730208612612897,-0.00983461598872544,-0.0035463190952022524,-0.010695791659411723,7.05
0.1168049780239544,-0.06842306192753748,9.810826724088889,-0.011497022315355512,-0.012372930619925518,0.011647407319030013,7.0600000000000005
0.039169549725220285,0.15040767938924082,9.848310244162498,0.006912719747682956,-0.006284878626230482,-0.0009412415380041793,7.07
0.048896281140586376,0.03689899979212546,9.592311606947156,-0.01947106890415682,-0.0058180217599697204,-0.003985389640890787,7.08
0.02119165807371338,0.14134695634357783,9.811369589787502,0.002976276618685887,-0.010230998226607344,0.005104729996631167,7.09
0.048291742001570284,0.04451676494418044,9.87576282506215,0.008005736674460856,-0.02516884431113458,0.013866711652581252,7.1000000000000005
-0.14467941045011787,-0.20014263401850824,9.946363078874501,-0.004531354677503472,0.007295784492349713,0.0012551699015031443,7.11
-0.00438676821897279,-0.048143482581321256,9.992373392951441,-0.022495821487930657,0.01729863699309262,0.0035378889522127187,7.12
0.009468501513336357,-0.11229709211449945,9.772368641366507,-0.006058571522033059,-0.0008661321894332394,0.008084500152174615,7.13
-0.058323649640847464,0.003759319695962437,9.744634783979958,-0.01400533180738987,-0.005970623318362431,-0.0008627306993531582,7.140000000000001
-0.03538489911720865,-0.07856702740312452,9.967381858575896,0.009572441732417532,-0.013858259124023808,0.0012763634112949948,7.15
-0.06633886031558439,0.06906060880535778,9.932871276421189,0.0034629689791866544,-0.0035484519932075503,0.00018525053876268144,7.16
-0.038838816618504746,-0.02911290047013513,9.913624884544879,-0.006552185570248705,-0.013077704487845329,0.006779823325503725,7.17
-0.10803052994153826,0.049090985853720015,9.704603777706554,-0.001815871156227444,-0.008397128693097644,0.0015030246630402945,7.18
0.1427669267237882,-0.07000905086857696,9.913533380820303,-0.011949305204999339,0.002291269064239455,0.0050709901577994845,7.19
-0.06375458583544404,-0.1406309197395647,9.55618862739136,-0.014453334766124327,0.015161463200431758,0.008733397021245792,7.2
-0.20439985698201266,0.04434275927104019,9.79805344427555,0.010319860269119,-0.009890451508760391,-0.0007593477130912457,7.21
0.19121600733222943,-0.0671096410593494,9.80047215067654,-0.011630422447248325,-0.007907774597582322,0.008650779482431576,7.22
0.0759820893089504,-0.05958037404501914,9.847370048230085,-0.010281859015711645,-0.0020097992609938373,0.0022389441218031393,7.23
0.00882936771181681,0.05929878600125176,9.80734578549054,0.0024896178811626684,-0.008552752319432798,0.018824779452229618,7.24
-0.028372327210092,-0.0664275749844915,10.123167319843915,-0.005003987969990985,-0.00781159947163203,0.014094132505296668,7.25
-0.12728711162717354,0.030173237324289993,9.653857230242597,0.00863712625158308,-0.012736091337709799,-0.0031515462021189356,7.26
-0.011102804690141922,-0.029305003237390867,9.649848342217886,-0.009150103727023535,-0.013052515056702975,0.008365138584720462,7.2700000000000005
-0.10268555372320275,0.10995199655721857,9.86827822019244,-0.021111419192321765,0.009094928613385277,0.003045809234298148,7.28
0.10842703492737576,0.046566560982658135,9.754118323453243,0.007061663957377077,-0.013179874083576532,-0.016796510555405406,7.29
0.009667033403171025,0.12874514337001727,9.802078211836795,0.014594924901765652,-0.004581349558773726,0.0027573407399775003,7.3
0.015189239462907273,-0.1451051175223213,9.909804799251187,-0.018309887130766634,-0.0013620818931276174,0.0015226981224688134,7.3100000000000005
0.1493923785460733,-0.01847332441609159,9.695549304770585,0.002828081515287521,0.01149346625896557,0.012780299594710198,7.32
-0.03891324441621698,-0.07060954595357599,9.690160657865977,-0.0006641599625015136,-0.0008465335095828993,-0.0022438254522772413,7.33
-0.04214515594901136,-0.013203969889941028,9.645621022003088,-0.007089765954429569,-0.0034113245894587117,-0.003472396553042666,7.34
-0.06500979445139805,0.038928072111374966,9.914793793179697,-0.01397596825380613,-0.011880962761001588,0.0072275202933502125,7.3500000000000005
0.07156167554977257,0.13429930458303188,9.911893642563241,0.009018500636933513,-0.008885304590888694,-0.006427163001122518,7.36
0.06841343361990725,0.01443924412931117,9.662854998849802,0.010901996167228178,0.00646532635160621,-0.0012496771064370669,7.37
0.005045555022042335,0.07095759917270002,9.637462031907418,-0.012329526198925831,0.00317169660374093,0.013403687883357714,7.38
0.009823856485980158,0.06776609811880291,9.730019266229844,0.0007364738673692234,-0.009331410098166749,0.00104845971722049,7.390000000000001
0.035784253846971655,0.12556177898466178,9.803280962222185,0.0022090706620583093,-0.004808095550089652,-0.005750536572107449,7.4
-0.04273528820339499,0.003596979528012217,9.739906838436893,0.013418892448845667,0.004546651713465152,-0.029276248784211718,7.41
0.0752778302499118,0.06854672655513276,9.821359383514928,0.013459976812976192,-0.015885076535250946,-0.011681598251418736,7.42
0.044367047622584144,0.07419545819941041,9.62272871191395,0.008891932139438855,0.0035002835688115884,0.0018214692198035526,7.43
-0.08522979854823937,-0.04538715509052543,9.873732043645406,0.01815312831729039,-0.0002889213550649616,0.00267693893590044,7.44
0.016962158383888825,-0.11735156132142109,10.017570344493077,-0.0021465655705580505,0.003275144308641213,-0.01576847682648736,7.45
-0.1498280284590607,0.07987619111768224,9.738436853245613,0.023981673129324907,0.005188356023338521,0.023968955699476897,7.46
0.11183118818347733,-0.07464537568260309,9.72996546816465,-0.004338065909042531,0.003190218592049551,0.00018895699825838164,7.47
-0.24801877846232687,-0.08461906462834783,9.880408290243857,-0.010098555056812914,-0.0008646188627399153,-0.031635371124711334,7.48
0.12736407466548136,-0.006201692266943937,9.899354556469833,0.004702803674018265,-0.0025778075328495857,0.00039778733558966075,7.49
0.05246542736974398,0.014042393782342774,9.811122703484635,-0.0018434168448937013,-0.010180171043349968,0.0017198070408734037,7.5
-0.035204339363675376,-0.22079695449998984,9.669582256571564,-0.01395479433217271,-0.009874056383700622,-0.013559129881036752,7.51
0.1543956682552771,-0.13624296777650222,9.780779853689308,-0.009381285951456158,-0.011294585055291689,0.009732644588459365,7.5200000000000005
0.022950629453455693,-0.015361753869309486,9.778989189737098,0.0035036127854342703,-0.00017181553450203033,-0.002189384076743705,7.53
0.09121376570080232,-0.00842104479388234,9.917261385429708,-0.01723802731747366,0.005960759799872654,0.0032526770797875492,7.54
0.03099240177347225,0.07612478340885566,9.882495891150302,-0.0023697011757488214,-0.0010304084140444782,0.009626857911089715,7.55
-0.050055668926625774,0.03856924725045154,9.941712499936939,-0.01373585504586471,0.008976603506328848,-0.004592962144436515,7.5600000000000005
0.06147051089932074,-0.00639503878589445,9.798307229053005,0.003812715078202647,-0.0004966817233196742,-0.006569308500802755,7.57
-0.0008787174901403714,0.18746558349613784,9.62521433514427,-0.0069354301808933275,-0.008751284973564002,0.004731412805474774,7.58
0.08907122867985934,-0.05605050291012194,9.789698077602877,0.004833366257518154,0.004280539374431837,-0.009457839706216825,7.59
-0.02473456873893219,-0.011358740615871858,9.957832061590135,-0.008429107877170034,0.011299366977836909,-0.016787019043377076,7.6000000000000005
0.007556255676617916,-0.11090523308248663,9.938786496663003,0.005244918198908122,0.008613244663763845,-0.01028603178192902,7.61
0.12659429356713717,-0.07458979604553778,9.7396856016696,-0.0003021585223233949,-0.016883680356839077,0.010525928153751914,7.62
0.050919022462444834,-0.024117038463068792,9.820688166685573,0.002220388890475644,0.002090720593138497,0.025075213606928604,7.63
-0.0023930325910771913,0.008356644966847513,9.806452748717772,0.001759107730093166,0.008190756196491275,0.0039504368320984525,7.640000000000001
-0.3116037711290115,0.03218493075767145,9.800757329596404,0.003910810245420562,-0.005171125949915308,0.0025315211331351666,7.65
0.018569228654630118,0.038889414927139425,9.871569339420008,0.014090855501618916,0.005114642973380794,-0.010305872701712262,7.66
-0.01405345573880763,-0.2206364114725303,9.823896774143284,0.004260943679041752,-0.00582152396343671,0.016395099995850104,7.67
0.08435624220618188,-0.20935023955131868,9.814456722046124,0.020132306419112407,-0.011651708406788431,-0.005303068201180569,7.68
-0.1707348383623163,-0.08568416092860695,9.871429712828537,0.0077178584422777675,0.007373570798012941,-0.006219795196374384,7.69
0.05013658865597179,-0.19072584001287896,9.90949557816177,-0.006028646948850406,-0.003923048726903318,0.0075207668012942635,7.7
-0.09410824759352572,0.048784047763352524,9.8513710003452,-0.007645191038323981,-0.002502139275858326,0.019295201581116462,7.71
-0.15461280900202698,0.06019541679082627,9.753064242591647,-0.011397152750845432,0.0075584389992890905,-0.00579619957376476,7.72
0.08221280060980558,-0.04350117410305483,9.68668056665936,-0.0029875704344038533,0.02374555684108186,0.011863265402636472,7.73
-0.11343427723384525,0.029295322148253984,9.80891791344925,0.010126009398037981,-0.0022471455399008743,-0.01139042864634501,7.74
-0.04211520241204731,0.00013480049546493993,9.823960969007961,0.0005736901115872501,-0.008310273854386232,0.009083090810819263,7.75
0.011236357626122725,-0.11170442746945651,9.733920692583897,-0.011490883912759178,0.001240794756544569,-0.004714872014679202,7.76
-0.04600540638939503,-0.0973991614266832,9.75730615888878,-0.0017662177259975746,0.015538186490860653,-0.021354139546379106,7.7700000000000005
0.05374949641684382,0.18072579389706026,9.76364506382034,0.011698672408271459,0.010069815812135445,-0.0035530561992986967,7.78
0.1957095624547768,0.0670138696664438,9.854438982464613,-0.012019624759884462,0.007805118691059453,0.006177562526165129,7.79
-0.06719095332522383,-0.08591296912238723,9.74126795988516,0.012085760983677904,0.013501929950074385,0.01911146283117164,7.8
0.06298889774786565,0.1787180064494008,9.835498922822666,-0.00569006713776443,0.01623419995465136,0.009941134482521739,7.8100000000000005
-0.23149298009978148,-0.05587898437822413,9.727946062043523,0.01391348373051375,0.003019217522047596,-0.004749879366487412,7.82
0.048539556804801647,-0.09687129689917771,9.929084461222597,0.004264073474071863,-0.012998859121552325,0.007314168495579449,7.83
-0.004604462708933428,0.18551595026984366,9.86919718066112,-0.014685108717020811,-0.0200478801590831,-0.00656187996857884,7.84
0.039083233177167304,0.28466217378560216,9.90703377849525,0.012925061616629124,0.002466551805376914,0.013660053742429573,7.8500000000000005
-0.03567916866139296,0.03832850833043738,9.86356424804772,0.01005929197336074,-0.011324980943984098,0.011913826423081418,7.86
-0.04323984925266517,-0.13068509818760773,9.845327029015195,-0.0010413863410673868,-0.008391659779275487,0.014989613781203722,7.87
0.279785655973338,-0.07489011212947165,9.796767829307203,-0.0034535024505668787,0.01731342275865009,-0.014790969119401452,7.88
-0.11834689852330343,-0.16568165558839054,9.917138091930108,-0.001431163616567341,-0.0015195433503195851,0.005448974158783296,7.890000000000001
0.014177048680876325,-0.14626970345788193,9.780779405986998,0.0057243840447385366,-0.005421298386248311,2.333913509283191e-05,7.9
0.053267089449560004,-0.011752687872128282,9.778624137989421,-0.003428396754114635,0.00568993743342592,-0.011439891848432639,7.91
-0.024748315710272483,0.02222144889708894,9.888577724246673,0.005891031046705121,-0.015032230931932084,-0.005822293420488468,7.92
-0.06410118384008386,0.10562448630486182,9.909202771104297,0.0018148624627154577,0.00603376152922191,-0.0010290606436070486,7.930000000000001
-0.001959668076885341,0.1496210714934275,9.8458491743669,0.008560029547697186,-0.002571146761321062,0.004637592189388986,7.94
-0.04242567610519926,0.04174791055797028,9.72884824158015,-0.013394514264085585,-0.007720530311302304,0.003258359939355367,7.95
0.08179828564032786,0.09719091784619543,9.762610448779006,-0.00756184245384296,0.00985226201025483,-0.003712856570773389,7.96
0.20028840340704734,0.25206173599939474,9.816091457065658,0.0025445765563877087,0.016113603011480643,0.013481602202808304,7.97
-0.13746329775815747,-0.07626511144153335,9.89302361246623,0.004133543818985469,0.002724814429054794,-0.003229207697843044,7.98
-0.1179725310642798,-0.02110029605408411,9.69971701453931,-0.008851272446777539,0.007107769904278426,0.0044868556375548116,7.99
0.1155948881600611,0.1905515997622554,9.730567931032535,0.009771797580878294,-0.0010130847956604542,0.008372403884906702,8.0
-0.014051877266272326,0.11019424540373574,9.698852187451996,-0.008386627797905614,-0.006595311761492906,-0.012178903024211334,8.01
0.054483665734520764,0.03876868663142275,9.79955586083699,0.007364147915276333,0.004614598822844672,0.0004455102832958428,8.02
-0.07102962141795423,0.15035370600167594,9.88864150728074,-0.009367741586081143,0.0024306039436857714,-0.004436956286771206,8.03
-0.10330753111630053,0.03382303129113512,9.731073153242582,-0.0012461511436253666,-0.0077075166990849524,0.0030357240119047637,8.040000000000001
0.09757524262196658,-0.0331003524961022,9.686780330857657,-0.005454026909869295,-0.0035686543313943123,-0.0014191880130815138,8.05
-0.11184231969291847,-0.06867044644574515,9.833585993967832,-0.008275163238812088,0.0008068904276604561,0.0024239901705657794,8.06
0.03112057696652398,0.029662260490089062,10.07049930636975,-0.019331955502303842,-0.005138134156430656,0.0014226901942515568,8.07
-0.03715465674099691,0.019591631692891676,9.642741695846992,-0.002591512646350307,-0.007085511449428618,-0.00637168989159742,8.08
-0.04179784481000717,-0.033756510897982255,9.813824177969233,-0.004747539596322257,-0.004132567826987975,0.0015583806223889026,8.09
0.1037776978464911,-0.26177915497154064,9.87273702607456,-0.0037227928885329763,0.020554821899493918,-0.008575521386809877,8.1
0.0008181978306897237,0.10567333109977153,9.851705881890425,0.002709222972239471,0.027977377597007753,-0.004042143646124524,8.11
0.20181237911070632,0.24212200068276474,9.782287758496459,0.0076596561813287965,-0.00562100048475049,0.0017302286968981313,8.120000000000001
-0.04581877188421121,-0.021987225456550862,9.896847688740936,-0.001498256654423121,-0.00726915122989818,0.007529121714741433,8.13
-0.09438795346516482,0.0691820254745885,9.765167012189073,-0.0014612602527469306,-0.004147269039736559,-0.009567691204915811,8.14
-0.08405269089713699,0.037813921536954634,9.947656868939202,-0.027534464572321952,0.014877852756050018,0.006288230361148941,8.15
-0.09610854742414583,-0.05725704528952286,9.767557744670087,-0.008090041335345424,0.007017764369483821,-0.013694582773543065,8.16
-0.023246152388450108,0.01010230616555023,9.78490711024024,0.012731127316639498,0.016402110654974413,0.004320564769149289,8.17
0.24950414293781387,-0.08006480389129561,9.781376598682835,-0.0013108617965371227,0.0027089952177542427,0.011026437934544296,8.18
0.041948696666717876,0.1809947126088105,9.673799968384612,-0.01627672319669495,-0.02484505845840525,-0.017629208250082008,8.19
0.02453672681648293,-0.01968793591728129,9.957273630798955,0.008220709142278307,0.006638692910930815,0.016860324394273127,8.2
-0.22019028200846882,0.16028257090929657,9.901999331183765,0.009913829699688568,-0.006427323374342239,0.004652232091335925,8.21
-0.032499333498663255,-0.11105137688327515,9.80215182621313,-0.014768675872655512,0.010432020174714438,0.006918997156022324,8.22
-0.026856411784734264,0.1425303938823132,9.853015034753174,-0.007430154556620295,0.010315026675558378,-0.011789337069906985,8.23
-0.08663191576772283,0.1620422974548407,9.882907149279442,-0.0018187127201972709,0.0016471611438892426,-0.0018892329316730094,8.24
0.1351247685132466,-0.0672288308540945,9.769288868198535,-0.0003398200037903989,-0.012104868649556967,-0.0017450854747375257,8.25
-0.020620704156209077,-0.20871853446841604,9.725396345742256,-0.0021745282031030966,-0.004436697116009779,-0.009196883010918437,8.26
0.1450337605169779,0.05421458533535221,9.712554110688561,-0.02493380835455345,-0.02226349834994684,0.014296146626442128,8.27
-0.06313633919434639,0.09702922919556489,9.90397963305986,-0.005616035033342372,-0.001006834667268753,-0.022250793758129134,8.28
0.14270421471876224,-0.04383709759341346,9.814051598047852,-0.003569759214304511,-0.008836103770857303,0.003218652787850736,8.290000000000001
-0.2295268883815542,0.026842806728884772,9.654795960825702,0.019007906684138307,-0.005409835233443414,0.0008422755058761777,8.3
0.09378031301792149,0.10302932503371774,9.778647799284647,0.017573250039179828,-0.013955583717538142,0.024933881255661372,8.31
0.04653473668887735,0.041255455711751585,9.762275726921933,-0.001067578269694621,-0.010287137663463874,0.004944634128312382,8.32
-0.044750522040998934,0.02624437893175399,9.814663019882525,-0.008672376555031258,-0.0026431219877332207,0.0007473827465052255,8.33
0.026612170239337832,-0.07121469002411361,9.700323498783137,-0.003443671586249513,0.008988270632071473,0.003999081383471272,8.34
0.026136428743859682,-0.13295301340531412,9.784762922754506,-0.01882336512031782,0.015019419839211767,-0.020635044223728766,8.35
-0.09007337569629957,0.10311881913407717,9.556055185363697,0.020067549071635337,-0.01882550902671455,-0.0027111980062449405,8.36
-0.23263832438193544,0.0010369624631534457,9.631921184098921,0.003577147964142386,0.020016048947325584,0.0038151719167503527,8.370000000000001
0.04245206090602475,0.07859448010429786,9.884899188197101,-0.010719541889708105,0.022011140918035643,-0.005939516245441111,8.38
-0.06480270126973654,-0.10673350111123042,9.796559059608546,-0.008039582655918434,-0.0121768788743003,0.008651487992886954,8.39
0.001405280056264337,0.030954143194900575,9.799651327285224,-0.0060501363171008475,-0.005779078665601419,-0.0024387094980628556,8.4
0.0011739059109471277,0.04902068608312385,9.826181205382822,-0.004775675806597823,0.025015984016135397,-0.008878962681264651,8.41
-0.049408193197414574,-0.13225261441346256,9.922606400189393,0.007460048249948888,0.010165991336712525,-0.007454600691787038,8.42
0.10529130166184593,0.023071723591707047,9.874064043300473,0.016701509636952445,-0.0065779064314951344,-0.012435788864691072,8.43
-0.03988948249536196,0.027739989222494918,9.89985994443471,-0.0019079647581328732,-0.014789570971313384,0.015023452668348265,8.44
-0.16368859390567692,-0.030703384797137134,9.873167618786946,-0.007029459565209792,0.018193647369758256,0.006183461415952657,8.45
0.050867957250363076,0.07132159158862139,9.784354161168068,-0.01846017229711967,-0.01077156925141493,0.008431565792471422,8.46
-0.14789163823488258,-0.03735707817161797,9.772560482343161,0.019747082569869453,0.016455191011939124,0.0035348867099221303,8.47
0.09943037124085775,0.06104448864436053,9.732737383578813,-0.019370953513405797,0.009934908896502736,-0.005939475727571445,8.48
0.20755987249971608,-0.09296407092346477,10.001055061903072,-0.008170514773081642,0.028333594934985516,-0.011025104119120511,8.49
0.05815392367713266,-0.006655501450408588,9.804292233792825,-0.00757901097672995,-0.0009192565778878683,0.016947804583290458,8.5
-0.12174345915076173,0.07572891665390193,9.799769094616497,0.009040032966269743,0.02250053915335412,-0.006731758932464423,8.51
-0.17016505682811547,0.013319154799779968,9.957377548262745,-0.000690982612370702,0.012319738458107165,-0.0010074194880033713,8.52
-0.03296826233631403,0.07108986192056418,9.861126323608369,0.0031469185404735824,-0.004993921089631033,0.008885129069028516,8.53
0.03026867634021776,-0.11687047266244824,9.780297296861518,-0.009918041272208173,-0.004995950358463639,0.005235329780461912,8.540000000000001
-0.1263258850283061,0.06847120414682993,9.895627401853256,0.0066985280057096554,0.01704509852339511,-0.011101681514819259,8.55
-0.0381988914385372,0.05496949526844136,9.813935751640502,-0.0030942180967218785,-0.006917086957535206,0.003743345137005569,8.56
-0.017607841193746403,0.0070886144150543815,9.920868282004983,-0.007018323038727729,0.01550442800287309,0.007057094303114372,8.57
0.040320984408215375,0.12208453981244323,9.805915768228003,0.009484365881264693,-0.005337283029210922,0.008090287029873008,8.58
0.10265520604949277,-0.03690214709704938,9.85197547753979,-0.008478090033183937,0.010781434164904858,-0.011353974129903866,8.59
0.17557154886832094,0.02180458501657021,9.800531031143338,-0.01434511677639565,0.004227831959002023,0.006974222039650756,8.6
-0.019353155438523496,0.03595176379857667,9.777942098563686,0.00428103003756966,-0.012041403579349528,0.006511327149893217,8.61
0.19059196525184754,0.05325873684467998,9.663245183891291,0.005239640021668047,-0.012814564682307983,0.003399606991644324,8.620000000000001
0.12652259303883487,-0.18207586991921793,9.784687710069182,0.01639592911062632,-0.005407191198207518,0.0007732480166774602,8.63
0.020632652335508414,0.05543975977421017,9.868875016699816,0.004685376661136712,-0.0033321782454747233,-0.016610834986452497,8.64
-0.021154793783634912,0.06748571503233412,9.69256653673814,-0.012252978184468114,-0.010659876279425853,0.026126045371144484,8.65
0.04848463704198304,0.006037537208199871,9.688219412238045,-0.015145299392784306,-0.011437955771641355,-0.005921580687969508,8.66
0.06799425079334236,0.004511370773889787,9.772215934941501,0.0017048628065393498,-0.005690398388630616,0.013698136531565794,8.67
-0.03161867546088446,-0.00976877217965507,9.818268660180138,0.0015920769073141858,-0.013847196722454222,-0.0013671499136003265,8.68
0.007896155831350287,-0.11758484650309367,10.013146120099151,-0.014355848851788316,0.012356641880431658,-0.0038986017676097945,8.69
0.007015143785024262,0.06964313015659959,9.85283208252282,-0.0009795500388268918,0.006911042465165586,-0.01423671405642086,8.700000000000001
0.06749991603330495,0.11895904567851733,9.860769985012517,0.005305510229357423,-0.0028250075254873924,-0.012906838481502004,8.71
-0.044979920711652514,0.11404182383109465,9.837493037153559,6.0479111555500455e-05,0.009118177078866035,-0.0065798547977396135,8.72
-0.009544344697661387,0.1315459011630211,9.897614780406535,0.004961759599291123,-0.011086501858738239,0.028179775672799764,8.73
0.21328501632917224,0.040895161745754575,9.846864096689465,-0.008107908028450784,-0.00833087878521293,0.011611578794186932,8.74
-0.09064748945158238,0.11030526334001772,9.828303273181618,0.007275080629982277,0.0013825182910862496,0.005270438537106299,8.75
-0.14856740808624075,-0.0549789563669706,10.01678933997452,0.021219477865378925,0.018762884786514847,-0.011398779341535586,8.76
-0.18496572365591332,0.0637492863671512,9.832356541884876,0.012083092700950909,0.0019303377801624425,0.0032678092929965064,8.77
-0.20370081619766778,0.1587487315889472,9.814234371168515,-0.005623574013465189,0.006531851710600102,-0.000414523001991544,8.78
0.047640318103186495,-0.2522167473530074,9.90121487705429,-0.007825320959384277,0.001504964092838262,-0.01993289025211202,8.790000000000001
0.03039013415186235,0.035130619087400505,9.678724769755307,-0.009806212780936043,-0.0005247069921021302,-0.014967569898047666,8.8
-0.014137121826362928,0.12110056956998912,9.818358608808028,0.012653381563437302,0.006443830716115903,-0.004457331676977938,8.81
0.10924303462848957,-0.14128513580492405,9.725665227151694,-0.004260491925383918,-0.00013507211905301267,-0.006493631127549733,8.82
0.01226980287317352,-0.07324557453352279,9.671725135802205,-0.006010854278628261,0.012911260636640972,-0.02045323470470379,8.83
0.06785228545231896,0.13920870244728098,9.830943123831396,0.016406636790444993,0.012267882041485536,0.0008401153280404262,8.84
0.10462393809027365,-0.006924957255076542,9.871560070484858,0.005003264936217268,0.0029798732373886613,0.002378229934720836,8.85
0.02897102186686594,-0.07627756686421601,9.801332908928353,-0.0045984818098764495,0.019343095131319515,0.011133836986948194,8.86
-0.03412070625206729,-0.1624934885668108,9.822254132827974,-0.010770617718762546,0.013512370224202843,-0.006890046091932325,8.870000000000001
-0.1259066022144823,-0.0887710352567541,9.753485905267592,-0.006778805437679681,0.004049927713334776,-0.007316028329538593,8.88
0.05724355177238275,-0.07229397016414231,9.690628010594123,0.003212443673291347,0.0015048391818485015,-0.001514936095136304,8.89
0.015531041475057714,-0.042796033031582144,9.758156899231262,-0.006744459691956824,-0.0059125673193790055,0.018670604919910745,8.9
-0.07097184260050442,-0.14444383330358296,10.045213306859548,-0.0018921308705209423,0.014768521843230416,0.0035019499352199747,8.91
-0.14486243144763986,-0.0013862009356689564,10.015407253098173,0.00395156271543959,-0.00624288799321845,0.024432616725219604,8.92
-0.04600474100779526,-0.04439883195648054,9.746851483177283,0.009919982640184477,-0.009817231545078343,-0.0025678364784241835,8.93
0.18656870425772534,-0.04287981021398367,9.88593126087743,-0.016270437198672074,-0.009760297594901777,0.012507364292479872,8.94
-0.08099106866225786,-0.09924761978244925,9.86956993616356,-0.01581489783441301,0.010555376316009788,0.011725668591731471,8.950000000000001
0.036089889115236015,-0.024023374154976698,9.78508331004625,0.0030568042792982033,0.026238238307459236,-0.0024995132628066845,8.96
0.08232569308374092,-0.08530850912471541,9.692733162909764,0.018175059770677772,-0.0022590671841806855,-0.011844846331049961,8.97
0.06152454394080248,0.04069669745165249,9.712792252285585,-0.017723250791197503,-0.002546601610801046,-0.0020079387892097227,8.98
0.039435892960425545,-0.08970117013802896,9.69734418837305,0.011574140394877844,-0.018878012048830824,-0.00012847204501982405,8.99
-0.18548798221128948,0.0634455878462043,9.789928152417557,-0.0035266291710386493,-0.005766359182342643,-0.005257931750798279,9.0
0.061870699870026906,0.06579597562870969,9.723625764189492,0.012016531361974635,-0.0010907116265381751,-0.011780852420340831,9.01
0.14071121775097936,-0.07508123268942793,9.866635847801941,0.007645830596771548,0.005984597176584766,0.005396860691876936,9.02
0.009741279366222232,0.10747350062699557,9.890813671367017,0.00863578233575687,0.008934790904511745,-0.020396981288359473,9.03
0.004670370717835641,-0.1738821765585651,9.697504124871493,-0.006521840820315645,0.007300524853642382,-0.012392826646902668,9.040000000000001
0.0973916591987193,-0.09745375231334912,9.729689080923281,0.0019724006645414115,-1.4476463908238653e-05,0.017706925418396906,9.05
-0.14066170004775405,0.0633979504759231,9.793740015156876,-0.010768665124376553,-0.015196869877550137,-0.0045003993081691816,9.06
0.02884065535901341,-0.0460751948258135,9.786639715727423,-0.004117658003296197,0.006202388150259306,-0.009846186505564373,9.07
0.020017087029087142,-0.10874629702102552,9.733743181687487,-0.0056376940576916895,-0.008656198709158663,0.0009426824488057025,9.08
0.10561523113901648,-0.18644879748018847,9.908409079113696,0.002729808059667514,0.007810617931831257,-0.014977557498392895,9.09
-0.10808629820234089,0.015348349363046307,9.769006012568372,2.065511835027547e-06,-0.00861463080585717,0.009857331677717065,9.1
0.012851728676532101,0.08991142184133351,9.738222277475717,-0.0030263611287529384,-0.00494397939142033,0.004884882030322871,9.11
-0.10288452775557325,0.09356067927368039,9.791819206438745,0.016028447533202782,0.004799144781471412,0.005349039035103589,9.120000000000001
-0.15222389029515948,0.09526616091086652,9.772006574757016,0.009907763875853418,0.009126277604890676,-0.0020565444753868384,9.13
0.17387261420997366,0.14316256278970088,9.807624522635448,-0.01482796733492403,0.018683602273477914,0.0016053850882768953,9.14
-0.02355352733372176,-0.03693394191196713,9.54045893074007,-0.009416300170989973,0.01184706727175294,0.004377727532102398,9.15
-0.07973577490921553,-0.11865879157064936,9.837119196504364,-0.0074468277452542945,0.01107328977809104,0.0029733279991800156,9.16
