ax,ay,az,gx,gy,gz,timestamp
-0.078973895232084,0.01675029378645605,9.72288076739613,-0.0030798570153840856,0.023726993084880972,0.0026635993280812436,0.0
0.008501732528289393,-0.03071095453517152,9.72474219380304,-0.015597833843103613,-0.005163526135886613,-0.0036595094803506924,0.01
-0.11528340138525671,-0.15024749547469396,9.792572410390926,0.015029048785692473,0.00043057659842879535,-0.0011767590775659438,0.02
-0.12848844838524476,-0.02705515711045613,9.517065528162439,0.013538961995490668,-0.0023999968221753002,-0.009248439733807462,0.03
-0.03990593396129176,-0.12943419405231651,9.906486623289737,-0.00048522964738689827,0.00998906294656634,0.012521407401476423,0.04
0.0675945358588733,-0.14477639996044644,9.792597527081506,0.0013380078571737291,-0.0011453522885795867,-0.01838160352226903,0.05
-0.12378632394550526,0.015159951439582754,9.728380436628617,-0.008603322621713082,0.007850802022409543,0.004969833671980863,0.06
-0.006944173835929164,0.26005565079193754,9.906021852725102,0.014040775035473515,-0.008023555183852407,-0.012330642816002926,0.07
-0.03651375301954968,-0.0920891591229972,9.805851113481946,0.0009969993847629287,0.007272315379883476,0.005155787519229084,0.08
-0.10541913724918726,0.05222266432469367,9.765167804873602,-0.006315832417640995,-0.020360383631366715,0.003272015709156219,0.09
-0.1108455452734029,0.006541869346275868,9.666245450980071,0.010202746072875473,-0.001200388024279128,-0.0023343331435388684,0.1
-0.13474302221262352,0.08204601233551935,9.895934110984847,-0.00677403256409677,-0.021954239802466274,0.028597376803717822,0.11
0.033788962434536905,0.180994879739523,9.728989079202238,-0.011353100374787121,-0.005421653060895091,0.007407583139408239,0.12
-0.030916249114804013,-0.11453500893319363,9.719904317665831,-0.0005786051403603215,-0.02797121427132827,-0.005288469816896813,0.13
0.13468621408147222,-0.005478502002982466,9.853650149634461,0.0016386501722741107,0.0033378812681235416,0.006894818840868069,0.14
-0.0015955510253191055,-0.013586795194751046,9.918381872919177,0.02165711792772312,0.002471735160601198,0.01269610035622392,0.15
-0.06671259187285221,-0.189333059580183,9.892316581259909,-0.0031750900685469387,-0.006299131205004301,0.009069767314577013,0.16
0.0993500618478208,-0.08204578574375573,9.955355199259188,0.00018913515502770557,0.0033300961441396176,0.00155925174918441,0.17
-0.0005051688928143281,0.015972148387588956,9.795778001811138,-0.012554013333779247,0.0017682732010723709,0.018867903154389316,0.18
-0.006199543881053177,-0.09887218836823657,9.917066399680161,-0.001360323399533419,0.002359340733743568,-0.016768890681549093,0.19
-0.2738996768511252,-0.08949415860245913,9.924641568685036,0.012400344087049655,-0.014076584766132572,-0.0070640928807894935,0.2
-0.06654258534352686,0.25513089044222687,9.835524300267775,0.004034239086338635,0.006977540977637728,-0.003501746118911642,0.21
0.11716500138067867,0.02101528284264134,10.032599098905381,-0.007454307780727322,-0.008751348030342755,0.013245993278327586,0.22
-0.016915883762076585,-0.2301830772677858,9.898759870500914,-0.0008967761337285292,-0.014044581070434945,0.018158066183851778,0.23
0.18325761188487152,-0.06022092208978082,9.86087709224091,0.0053604551984198605,0.006781718098393667,0.00321948137590764,0.24
-0.01691399792627282,-0.1174692632702517,9.814756280044142,-0.010451825613711914,-0.011351774176582405,-0.022037866950911107,0.25
0.12672372387177594,-0.020378410566270013,9.841037401513738,-0.014254454117937828,-0.00388186034341586,0.011015094570623064,0.26
-0.0586642098418836,-0.014096898927334412,9.862968158376297,-0.001905596296995936,0.002701675470798535,-0.005386043790598031,0.27
0.16129775478158812,-0.020564448819687206,9.931181651574539,-0.0003621246224522003,0.00997829870978145,-0.003204755704943551,0.28
0.0715272368242047,-0.2087561299026376,9.800130130132377,0.007406236700795907,-0.0076608188754255045,0.0130722409736716,0.29
0.06106992390991563,-0.07358699184593126,9.784519727372924,-0.0013997044140299723,-0.009444296398565661,-0.007692697263148861,0.3
-0.07516184504349985,-0.059149356470063266,9.917995095048267,-0.009189748691835559,-0.006533732763901084,0.0020909631360600425,0.31
-0.007284516007986213,0.0411340217922439,9.805716536658842,0.006583475718949464,0.014185404450571598,-0.007187555576165881,0.32
0.20226706314159382,-0.011643990485353332,9.638897098786257,-0.02569415985322703,-0.007987070072368384,-0.0008956573645751756,0.33
-0.10085472680208803,-0.05879006846189038,9.844834824752736,0.006761125816376334,0.000542030566469803,-0.0026376942515266323,0.34
0.06091345805060783,-0.016813074705671338,9.68864711497959,0.0022198349578111836,0.0013184323336072523,-0.005348828295527859,0.35000000000000003
0.07130625778748392,-0.10959794953298829,9.670053898632299,-0.006986259599141826,0.01641351410359513,-0.00301648689742274,0.36
0.09813712425296667,0.11300541727095573,9.713712639061399,0.007147795535760823,0.003978907486823594,0.011962329422457117,0.37
0.06206997520507454,-0.12596034138391357,9.826631312792067,0.002707673243406949,0.005909371387313535,0.0013412061115488448,0.38
-0.051685678604344025,0.01399387276850287,9.813166959253811,-0.0006351814853263035,0.0031272709594013883,-0.007440632842591423,0.39
0.13362849499780288,0.055888543492292636,9.65478684428194,-0.00011762530295552826,-0.00117601279157953,-0.0017394356200245383,0.4
-0.07911812169412087,-0.041060860280195156,9.756513724058241,-0.01189348373328463,0.00021806239287420736,0.0074772586265546715,0.41000000000000003
-0.07867876954641542,0.11244875077473038,9.947736767549976,0.004992263226915056,-0.010685270783774377,0.00010592874877278521,0.42
-0.2348757610702893,0.1058106308746293,9.779941999360377,0.002855640773975368,0.009408223372097138,0.005326560937740039,0.43
0.11736791132759689,-0.10092066810161227,9.865887076201178,0.018932837838212823,-0.0047629684740281095,0.005426840958016726,0.44
0.04932994149623071,-0.03205993804579392,9.499562622401386,0.01948815272867273,0.00587354538773477,0.008206324452558152,0.45
-0.10027936860126113,-0.08907349051804549,9.858632758608522,0.01128469731084523,0.004461446259074399,-0.005325925255668087,0.46
0.06255109702724795,-0.05355473725495511,9.721219090258042,-0.01167532511433683,0.006926196240010323,0.015222042150815823,0.47000000000000003
-0.015188370693359356,0.11129872321182946,9.781054292876275,-0.0017246700711128777,-0.0137749906449279,-0.006127013666591689,0.48
-0.05792983023883316,0.00010529562938442568,9.686986138655952,-0.0015968994409872874,-0.01100083714630573,-0.0023990865404903174,0.49
-0.152107030044273,-0.023067466325394515,9.880420346422122,0.015057540016075604,0.020991985725265602,-0.008692326837123728,0.5
0.07699863573983791,-0.14843377744136027,9.81565369391339,0.0009881352872251085,-0.005973648682986057,-0.002206302633632165,0.51
-0.0018162763045223547,-0.19671940693027737,9.855923373298287,0.0035146612476339386,0.009552219182586726,-0.01095851535113575,0.52
-0.13392961640822734,-0.1931433242538639,9.878171261360873,0.0035277132107400734,0.004598153728206707,0.0017980510508593902,0.53
0.016092396081216317,0.06505646778253357,9.930773951749513,0.017014703778165243,-0.02529259459241112,-0.0005262199656244363,0.54
0.05750882328745402,0.14960944243953989,9.701185916829349,0.0023091765694424372,0.006354462516580035,0.014171965562490932,0.55
-0.08018834482695869,0.10114663694748788,9.712655359187274,0.009617567386912905,-0.0010270908736104386,-0.00867482205224992,0.56
0.06395490680969765,0.16661774312561703,9.876639698555463,0.005592066427866462,-0.0011132960004080292,-0.0006285293161823303,0.5700000000000001
-0.07589368494264521,-0.027087160083520176,9.726897491689082,-0.009572146234984622,-0.005889847747081316,0.006498627533661414,0.58
0.07736512617193936,-0.07522280688893089,9.937183251080253,-0.0011558573649353163,0.008034042085284443,0.01631945233545843,0.59
0.019016084071466103,0.19926198849160118,9.91337381320554,-0.015751767081034245,-0.020993548732024414,-0.005571829014080274,0.6
0.1310557782289941,-0.1154250813045189,9.801586367208353,-0.006420277260704099,0.0037338868303428046,0.005206936843412195,0.61
0.01440180490992289,-0.010261580783551237,9.698788663323686,0.01151823906292167,-0.009455570751313654,-0.0027183933908849,0.62
-0.14979483951310976,-0.06448815564098728,9.639710348452244,0.005644227020439545,0.004596993172146022,-0.0006582012127229851,0.63
0.037446995260572144,0.057794992853251494,9.921104323945036,0.007550393388063417,-0.005428426815125609,-1.551621558422559e-05,0.64
-0.0685561291167,0.08681398872751765,9.834100579864401,0.02831602174244313,-0.008516880434402432,-0.0026194996735258674,0.65
0.07290432579091398,-0.04539951352851805,9.674672195653669,-0.002414825023324391,0.011274265005263693,0.006863048683834409,0.66
0.09819270254000007,0.07557230465419577,9.706770706377734,0.012060770648627085,0.005413150910164588,0.008794975516503503,0.67
-0.03620703010342002,-0.10651213947701313,9.953594565357621,-0.006780428231036977,0.022396109735777724,0.007861392926954478,0.68
-0.17597790721573736,0.12082301384991193,9.751327921597404,-0.010107946609753584,0.007528852418517588,-0.011594518144457965,0.6900000000000001
0.1250526064150878,-0.035909961548964295,9.778732496045258,0.008272322702364865,0.002987642597314165,0.012413601009923532,0.7000000000000001
0.038050027119043484,-0.0030479546684207427,9.876777220066453,0.013029425547220965,-0.019870290670215555,-0.0016465216675231739,0.71
0.05141605552000052,0.14281365467384824,9.857715318473533,0.008389081923810554,-0.004547798079811314,0.005589081071688503,0.72
0.1429248012836516,-0.011938844641085126,9.919624308825401,-0.009967705703282734,-0.023997552153658865,0.0021439719548738243,0.73
0.06829713636312927,0.07253556994132479,9.81106480295317,0.0027187701124426035,-0.006695730974885112,0.004663334849900693,0.74
-0.002507092795773434,-0.20748912470011996,9.817136436158679,-0.023451743058356213,0.002420544867880361,-0.0006210684051981074,0.75
0.12452849370017227,0.031458127755104454,9.786254171332919,-0.012010137918758323,0.007816707763429787,0.0018687472927039948,0.76
-0.060931864509682625,-0.04767099484166561,9.672966965915164,0.021659750263921997,0.004173895694909291,-0.0076458694152730265,0.77
0.010637714825513983,-0.012501465349357642,9.686756652781964,0.007050429150341015,-0.00778743593982631,0.00036983849358302335,0.78
0.10591723397850233,0.25878207620369026,9.81277686714867,-0.011616491819524179,-0.0005155588291625515,-0.008506157097459105,0.79
-0.12802909215998495,0.10180235572711716,9.663169908291477,-0.0005853440707084694,-0.009287203267215534,-0.007107031125658299,0.8
0.06420428201766108,-0.10593577950518851,9.893232061133492,-0.003252806596809038,-0.004692195537835836,0.005470371330665148,0.81
0.025299325764876868,-0.04740292259913616,9.788551982416498,-0.014974935635792646,0.004875632674904784,-0.000644864531573266,0.8200000000000001
0.02837797274452394,0.1148162048011343,9.873921022908629,-0.008323942184401724,0.0076867362339411,-0.00375183651127675,0.8300000000000001
-0.132424351161804,-0.23279654931850882,9.628890040081949,0.0039845950443893755,0.0030986474267322662,-0.0001272719445297513,0.84
-0.03742105811700268,0.015214837872014865,9.73507628035464,-0.003441821847657828,-0.005945185509679751,-0.006598874781948673,0.85
-0.004477493323192887,-0.139951794039304,9.711256458204515,-0.003504083583558177,-0.014893354981525192,-0.017934347143500264,0.86
-0.129972890894242,0.010704144422130921,9.733976138213688,-0.0023386710861614726,0.01081744694229392,-0.021322583555741494,0.87
0.08694297036635767,0.0664527906376082,9.769889247099904,-0.004690349124030739,-0.0001565613775935353,-0.00010472872562039155,0.88
0.03158850887399519,0.047416813623530785,9.888759590562788,0.015800792294450354,-0.008752905051175016,0.0038490497038529267,0.89
-0.12011309981362672,-0.0868976104227855,9.712714777097206,-0.011410770947270134,-0.00515324905588319,0.0014353091908981019,0.9
-0.20674276005287898,-0.012775093338358717,9.665816997408236,0.002136199362778604,-0.010496020890565578,-0.003453325426933291,0.91
-0.03791415975547612,-0.1251272241404002,9.992425105555299,0.015477918584507895,-0.014897037575508896,0.003852022520401167,0.92
0.013729888237057423,-0.17512276506315444,9.711507621381344,0.00817637810491371,0.0076466733501831495,0.006427790921171393,0.93
-0.12328736202368991,-0.206825327143949,9.788983664339497,0.010917160414998215,0.004185835238723758,0.0024933175870430423,0.9400000000000001
-0.1055076719890316,0.07093987192624705,9.966916975926564,0.0058300731486814784,-0.0010825996487039123,-0.01184596307310759,0.9500000000000001
0.04817390237217529,0.0021328608022578703,9.69323311004352,-0.004508195528748181,0.01131731278587626,-0.002089685435198822,0.96
-0.00394172364571161,0.11349827434624882,9.909855493244322,-0.008385158446291112,-0.0006977158002761885,0.004314410297830557,0.97
-0.005587603790472173,-0.12584611251115058,9.825069660522946,0.0020753816477282624,-0.00268353133369516,0.0018197854445495302,0.98
0.04438173098710744,0.06054116234663908,9.630798271941588,0.0016178891008959714,-0.008657561828497473,-0.0018258937788893114,0.99
-0.01971486169601,0.07444744574005994,9.865838313150443,-0.015662341593945965,0.010222582685316558,0.01452891509022339,1.0
-0.024390782346255916,-0.015692629058206276,9.879457025476182,-0.0014607669843014334,-0.0004270257946218959,0.004253751483932274,1.01
-0.1167437868226266,0.02680995878938726,9.780335316030735,0.013622799024457883,-0.01695319133193355,0.011251391501939753,1.02
-0.1586416150526193,-0.027592153117911272,9.641793153351635,0.026784467130404492,0.018658068982432944,0.0035745756220676157,1.03
0.014617390767025862,0.08014118479696647,9.670866754962475,0.008453219149743823,0.0020135668868715706,0.0021133435753516706,1.04
-0.24876935263322766,-0.15423730382256293,9.86862578762034,0.015526692908360722,0.010146174361175361,0.006155567169139787,1.05
0.15056965707246747,0.003129650359329779,9.834017518510363,-0.008434265128912839,-0.004762281254734438,0.0005103281945291695,1.06
-0.189737103541107,-0.06726642355114525,9.73515277448458,0.0028753738068729028,0.002044730888587277,0.010549238915756369,1.07
0.01719886370439083,-0.07952225787141054,9.943387540192509,0.0029137854726775537,0.012230102842950202,0.004638862211948408,1.08
-0.040081063887909225,-0.021636481878268502,9.656865273681529,0.0007363723432293913,0.00011700757163013846,-0.004990381771967769,1.09
-0.10492737130703972,-0.09603917796085737,9.842537624256039,0.01052426930119809,-0.006561517374754051,-0.013966385928706119,1.1
-0.037037956319879516,0.05499841841783303,10.049868642193264,0.010993194449290295,0.007524051849611675,-0.008805862441409382,1.11
-0.1820921627085461,0.05808679707556354,9.855648802449705,-0.013578891712053344,0.020382055765794896,-0.015172400712723712,1.12
0.006695957338500237,0.012199621411614243,9.726164368722602,-0.016129301089048476,0.0007999015528104588,-0.012964848747468656,1.1300000000000001
0.022578556447218026,0.06175587263491272,9.820488632190214,0.0014735860031827542,-0.019896375358728267,-0.0003770419548293939,1.1400000000000001
-0.009314445092490598,0.00043226210670459225,9.705444074169629,-0.005493961243087791,0.001752785230513847,-0.016779657408238464,1.1500000000000001
0.015379547323709556,-0.017487083225815,9.650204745946533,0.01624192568757492,0.00909555566417061,-0.00746924423136059,1.16
-0.04618135730582315,0.17370433895085707,9.730226578384945,-0.002586255744287148,-0.005926487376756499,-0.004912121750111171,1.17
0.17427834626596328,-0.14135092362063217,9.863039822492741,0.0050759563406399455,0.005812424816393297,-0.0038186658074253216,1.18
0.05528519264192188,-0.14825362873187814,9.890226756697631,-0.004078633123220544,0.011740567068883758,0.001103715932121764,1.19
-0.0449386005237093,0.03224267573052412,9.86922803471561,-0.0013600024356439158,0.002354826154251217,0.004774168989692424,1.2
-0.034852479245989054,0.041564287317517934,9.936945468945025,0.009437508154803289,0.0001545014277400816,0.00833527069125726,1.21
-0.006424112732496075,-0.06206030876795842,9.907738061791594,0.0047070522928322105,-0.019314324343115336,-0.0243399668421204,1.22
-0.01673573418018888,-0.07598563265698641,9.863356836709887,-0.0006781287636314116,-0.01041647998512882,-0.007554224799829108,1.23
0.13827993973027328,-0.10512923564867256,9.786130072682566,-0.008576489931070378,0.013355308086135127,-0.0049507651643359,1.24
0.17097728609148935,0.2009939309996058,9.739427696998836,0.00774675879563363,-0.010682877465257127,-0.018147554734886506,1.25
-0.03532210854397856,0.09162710154626394,9.745163002058536,-0.0022612751883713525,0.0066548756130207064,0.0133307253258334,1.26
0.01589791825556183,-0.12281370346519227,9.814945763460043,0.0006798647572127436,-0.0076674971962939365,-0.009697972038503835,1.27
0.06957577984199184,0.023001575662286892,9.89324091189843,0.005500435911693765,0.009992616910142667,0.005384095020623224,1.28
0.06744350297427168,-0.12245702406428086,9.795750513133598,-0.008779133351537342,-0.008384818381658379,0.010729194067391548,1.29
0.03554963354853481,0.07382692401264791,9.725640908700225,-0.010841757613570731,-0.013647187532617198,-0.016642683620081148,1.3
0.11127561055196399,0.1667233167949617,9.74404042727964,-0.007458842559538156,-0.003953044671462463,0.0048825934112476065,1.31
0.11727072994576831,0.08031854077588445,9.733372617048415,0.000563814892648597,-0.003318103137154155,0.00040504864326116214,1.32
-0.1383505263421017,0.12417525438780419,9.673959587592941,0.0011038609153884978,0.012784174932375731,-0.015882644533404065,1.33
0.07595806184112869,-0.02253911920154253,9.951924799313167,0.018944040368898032,0.017283354707863855,-0.005882480454135788,1.34
0.20958018720157046,-0.11920877847573262,9.808105648992537,0.008744273070080225,0.018852558833580082,-0.009834948229186987,1.35
0.008571615207411442,0.0018000629719281663,9.857914115853351,-0.0024194024640593285,0.012441738232475576,0.0043189584877893076,1.36
0.059912220158860274,0.06556008636347385,9.518963517141437,-0.01285869407826693,-0.00855529099961946,0.0075772416239271514,1.37
-0.1415353305416022,-0.12255246781823298,9.860266462886017,0.002439863934029122,-0.00297288524607989,0.00815068712832507,1.3800000000000001
0.1526450378296807,-0.003694595456299587,9.627689114143841,-0.005423037298064922,0.0006151771817313297,-0.012212079568222685,1.3900000000000001
-0.022748905234577253,0.025249574609848183,9.784299389602035,0.0020557701387677253,-0.011484965772984846,0.016384660851012374,1.4000000000000001
0.004441943282963752,0.2230531157015693,10.012039498357105,-0.007052044382605761,-0.0004246124179088883,-0.0001945332814150351,1.41
-0.31492322852425825,-0.06649395619994887,9.903860457321107,-0.012008943721550779,-0.0004520064386298388,0.002259296948619115,1.42
-0.051577036270354905,0.012875603221917704,9.810053988377039,-0.02285987358187921,0.013215941999721927,0.009473256073641438,1.43
-0.12296282426148822,-0.16405755215734721,9.80212750649073,-0.0054650934757527305,-0.01551221799866807,0.004359648341428954,1.44
0.07060151166545246,0.057343271384152274,9.81871764083372,0.017065211577084384,0.007819060684450404,-0.012858162037588827,1.45
-0.15760766453712807,-0.1251350461519609,9.64226328122003,-0.014295842654699168,0.002892763060746563,-0.011057681798798203,1.46
0.1008102990060976,-0.04464765381390592,9.748287522051179,-0.01930894927616187,0.007065700923417856,-0.007270361219107076,1.47
0.033955445333137116,-0.10296723519423137,10.073379355900279,-0.021107944071329085,-0.018340625073600122,-0.007487829891235797,1.48
0.15658698731781548,0.0029375492219281944,9.841509113238327,0.014660120962195742,-0.008442647393836917,-0.004793361941510843,1.49
0.022912965460290036,-0.08612829684598257,9.79660174206349,0.011001460762348083,-0.007637071382003182,-0.0030796766357036065,1.5
0.09035338782001247,-0.06308594829592029,9.722768386962056,-0.014505686767513608,0.007510194995703386,0.009481629245897438,1.51
0.00845814205917436,-0.09247845310127971,9.738322721846696,-0.001986085039795899,-0.019228703405029732,0.00547631197005517,1.52
-0.1329175603466219,-0.06623035534129273,9.694609290176711,0.017638027809236394,0.009510670124917195,-0.004601148946047556,1.53
-0.07988845426227048,0.06708627793718983,9.803476069074135,0.007564987429391482,-0.00011734045330936567,0.012016255781066073,1.54
-0.12356388726631157,0.04213581076842169,9.66577978793644,0.0037062740298830356,-0.018127422187694493,0.004915961924193032,1.55
-0.010726067216578076,0.01532425830086994,9.839059330703952,0.007802759463110342,0.0028361885301976543,0.014047595527626758,1.56
-0.06936051729839608,0.13237465990055527,9.789347314217803,-0.0026558599022530618,0.011447857798086917,0.0018330142794230572,1.57
-0.04077299218383523,0.10178900644427849,9.83180888224313,-0.018368444432712048,0.002732057810441898,-0.010089395389796106,1.58
-0.0687618723965351,-0.09024608804602667,9.811230439621534,0.0032266474192112764,0.004429767784308852,-6.583318213064462e-05,1.59
0.04860530160620039,-0.09721965245648762,9.846199348066792,-0.004897562061483306,0.010361244848510101,-0.020025680660929072,1.6
0.12317700435559827,-0.07650362859981497,9.88723992387418,-0.0053386779480585934,0.012695123142502117,-0.011081857783853849,1.61
-0.05424662898621516,0.050547133240325,9.835067112376947,-0.015576140197115203,0.0033762883461240668,0.016009872677349248,1.62
-0.13541008918791778,-0.11035184263291611,9.771644124687667,-0.003668626476093072,-0.005285696547687791,0.016525365638410477,1.6300000000000001
-0.12859956295563854,0.10150574970281086,9.767361577634862,-0.004221652452781289,0.005029216231413326,-0.013426448296404325,1.6400000000000001
-0.06479364369101549,-0.05332128177489464,9.73848646810945,0.006017097366766457,0.0028130122012856905,0.004482550786615164,1.6500000000000001
-0.10371307008807427,-0.2253906947382287,9.862548317347553,0.004237108248949085,-0.011950959264014734,0.010928270910815273,1.6600000000000001
0.056532627904554544,-0.1203861285958584,9.675238076782685,-0.003955599250983274,0.006920419843237956,-0.001885146408431605,1.67
-0.1306587399265899,0.004889098543903587,9.759091573488915,-0.00186786267422763,-0.01188390795184114,0.011086976393799802,1.68
0.044782299390512925,-0.036096839115536204,9.88221835913453,-0.007191669432506711,0.013876581417027247,0.011177156143509913,1.69
-0.011054385950769047,-0.07304017970407482,9.726050085382113,0.002942901870439781,0.002262758844648916,0.0007242504997161848,1.7
0.0342033603107267,0.1417344202643749,9.697805096570997,0.004621338598630876,0.013717169905091071,-0.0061268218251122756,1.71
-0.08956378189977741,0.14636398500656628,9.79582996240056,0.007112966945916713,0.003729841812362309,-0.018986898881486924,1.72
-0.03373368753518371,0.012663080002736214,9.891094691378214,-0.010992841541895637,0.007865785419241787,0.0035307729582821526,1.73
-0.13107724622057518,-0.03171578379801399,9.803889527462632,-0.009026266995436223,0.011693708578875797,0.007179646236213519,1.74
-0.13837840469805543,0.10869451829881858,9.802003208957638,-0.010393588937075362,0.017410307673082152,-0.006939530415524098,1.75
-0.0497075575198883,-0.2108597795492916,9.698732469170004,-0.005653426087799323,-0.011394453305264306,-4.8399111999895376e-05,1.76
0.17693688523209716,-0.14568632152329256,9.881692969232695,-0.023023971812184005,-9.467790130092121e-05,0.003007291355179514,1.77
-0.05445185302938676,-0.15568863971955305,9.773045620541861,0.008730210403786002,-0.006396875008250082,0.0015331167605550692,1.78
-0.06047813056789295,-0.07248706732167348,9.734987359841112,0.006516647264824941,0.016297718117333847,0.008543674158722371,1.79
-0.11049393250967253,0.1371143323378031,9.801363009066385,0.004336954895310626,0.022824335035333588,0.0035064802142014085,1.8
-0.03183804623622707,-0.0034215125108234047,9.776144121486464,-0.004251237264482898,-0.0137397523827454,0.009908959005598045,1.81
0.005750859019108602,-0.030368407362405536,9.844087568985685,-0.009625425603405817,0.0028713191746278705,0.005871184385902145,1.82
-0.0025722957312476753,-0.12013990160018405,9.809796429222038,-0.011475297810575642,0.002638883956542787,-0.004320905686720564,1.83
-0.18603656010308953,0.08225137761403717,9.85874401520129,0.0004080280377923116,-0.0026566604718324346,-0.004703574822461107,1.84
-0.04241471874639993,0.08280671226962051,9.936234270660833,-0.0017741872106734457,-0.0012535012344996963,-0.007402368649245067,1.85
0.044221706947579424,0.06690982409622562,9.82992962350365,-0.01754309918674485,-0.0021804523406642414,-0.009506534681552638,1.86
0.15060697054873579,0.02511280160367553,9.85480043437813,-0.010586361420892554,0.004489622618903476,0.00616764494192547,1.87
0.08220033842926477,0.16513626037098864,9.919659966921792,0.020589218028301187,0.004741221179452278,0.005579565592375592,1.8800000000000001
-0.01383899266806029,-0.06959778405139802,9.931301823249331,-0.013509841670378145,0.006723630345673316,0.012718859864995276,1.8900000000000001
0.15419877891761563,-0.019209006148476794,9.955147117909123,0.01822046372501141,-0.00042604419874640935,-0.007050697967938904,1.9000000000000001
0.22342019682523737,-0.09789240431982263,9.803568783688277,0.013773367136317521,0.003656062647456927,-0.0054497785571448135,1.9100000000000001
-0.1486368407894849,-0.03609136808783394,9.875626401454351,0.014538735909621956,0.008682631622005018,-0.01269110224917383,1.92
-0.2187425419673184,-0.08871614217307447,9.738466758770446,0.02416432104232551,0.00047602870961577427,0.0039790787003389965,1.93
0.09058095717227163,-0.023396013366051543,9.839562718212926,-0.0002610534664857488,0.013569618112904431,-0.00496929594792515,1.94
0.010401412784889423,-0.08620437946742968,9.92080743046616,-0.009557663401238828,-0.009333621552179601,0.008920169116213201,1.95
0.07837254055454651,-0.047444980524655074,9.927054060452381,-0.00018569617356280132,0.002258297282028323,-0.005989662464396293,1.96
0.02164018193240512,-0.22044839301597774,9.876956799893193,0.010238233306140732,0.015104255827246947,-0.00014954852593594402,1.97
-0.06789213860147666,0.05011298908220229,9.807186019048425,0.0160746626058871,0.009374766847316569,0.001393308254314324,1.98
-0.05991649489445905,0.059880862471890256,9.747915479450254,-0.014480475783247633,0.009092737236715151,-0.009173638052091362,1.99
-0.034148642616520314,0.05549803289284686,9.78891590336357,0.013619435985404495,0.005315367066089815,0.00145868072956189,2.0
-0.153200654351433,0.07157017404039874,9.743440632675512,-0.00264679349682239,0.0020517492384391238,0.009827379667465788,2.0100000000000002
0.06931861074263357,0.0374659291076203,9.950042906673495,-0.005619186890415767,-0.02085422452470644,-0.0038594894561902048,2.02
0.16921399304100038,-0.01881862063587096,9.788950331600816,-0.012160267852090489,-0.000593058538229024,-0.005541394251175872,2.0300000000000002
-0.012173830047097205,0.07758680868380916,9.748221563568752,0.005661080334492088,0.005979576971432732,-0.0030079893019963,2.04
0.1306290176374674,-0.10432632667386431,9.82079050650658,0.005064110533944035,0.0037574133640681435,-0.01365693192129791,2.05
0.08078707759243597,-0.04069222503858681,9.859133661120755,0.00750357039523554,0.013513024946084109,0.013183476107891333,2.06
0.02829707336024408,0.18869285940745137,9.921855405926022,-0.0006490945689297968,0.004171752515983025,-0.021429585778307805,2.07
0.08265785262909187,0.1643544796905797,9.850754439524184,0.02543437215117975,0.004404275113900092,0.013335502426452905,2.08
0.17167051600959593,-0.09645869425420675,9.90235717032134,0.005050661613093964,-0.0011832273833898236,0.00081642665736928,2.09
0.22671116836368302,0.008171760795034675,9.835437807419995,0.00454545308923028,-0.016775744294225303,0.011741794626428388,2.1
0.050062239127825384,0.0888843143406596,9.734911597330063,-0.016057698998663317,0.016044663648213314,-0.002560577104780071,2.11
-0.02473921369243833,0.05604710535748025,9.92217579468091,-0.01311670301994063,0.014216809160683717,-0.0038504908233702303,2.12
-0.07122097964315181,0.045303136493989656,9.813108067850859,-0.005004699170362293,-0.017493837286294084,0.010266484021352829,2.13
0.05373326757297106,0.17665436491099198,9.82916079022057,-0.011740896744667844,0.011433374744578027,0.014751761763363756,2.14
-0.020748504985457824,-0.052816107725714635,9.879869997344173,0.004536586438314664,0.011751011879963592,-0.006720622193050687,2.15
0.010047054707125186,-0.012173165185863298,9.599421885154458,-0.0032714819434412805,-0.00549189961359133,0.00021774564007957873,2.16
-0.11945609177066462,0.01951388269459229,9.71185865111644,0.0018006477510178714,0.008820532383283522,-0.014223547272331542,2.17
0.16063922892412635,0.09459222008738738,9.946652116565385,0.0012166101372720597,-0.015592111160996824,-0.006986444018411981,2.18
-0.01791018954639401,-0.057523880883703596,9.772257973731213,-0.008872390319041818,-0.0017919114946167115,0.0008428735079997853,2.19
0.042428491277961625,-0.11708059803829747,9.634947717807691,-0.00546517257023084,0.01334507196334064,-0.00036727035303397174,2.2
0.15912010376249944,-0.0303582786932197,9.661061074340836,0.0032115494615478296,0.01800235366724238,0.015294287807078828,2.21
-0.026768408399765683,0.008273961679421118,9.885811607320978,0.00735363258869827,0.001698602626256864,-0.007927315271720563,2.22
0.03742621228491502,0.1463708032902505,9.91894432881657,0.00036391732578128347,0.008171175733903233,-0.008677217988940493,2.23
-0.03589974722990975,0.054948454560958274,9.571568314832748,-0.012740455118569001,-0.021221866071207067,0.007540885799024263,2.24
0.09556135488691891,-0.10116808354101586,9.972790355508256,-0.010963457146517279,0.02451380040791206,-0.012810821037899028,2.25
-0.10362664705165728,-0.10366005846854479,9.884207017347714,-0.00987702506760583,0.007308294888493425,-0.0044642969564673675,2.2600000000000002
0.13421277357756595,-0.10133452781735897,9.736642563949518,-0.004911637096916695,-0.008903939988987348,-0.005668897931228513,2.27
-0.13107472202818615,0.06609609450240532,9.806925931579595,0.0016835959201492335,0.020425387380252062,-0.013857413457110444,2.2800000000000002
-0.17097444412487217,-0.16420371063874015,9.682410213950167,-0.0024245439746438343,0.004501239988302771,0.00047538933126081153,2.29
0.04612911606789286,0.10598836167851942,9.804537234154923,-0.01564050150711493,0.004153955820927166,0.013088811763832647,2.3000000000000003
-0.034308722343048485,-0.11033844506933776,9.891218219695762,0.009403619037055489,0.00828162889732471,-0.0010439533891384418,2.31
-0.011217016577909241,-0.02158475324774554,9.769964040416303,-0.013861390980247282,-0.006289856711469826,0.004093324987350476,2.32
0.04133409548703151,-0.06102392154944081,10.09943338868338,0.013833938851828945,-0.01286402416806958,0.010848471481907087,2.33
-0.011422458770394175,0.0788932417488132,9.923116494988026,0.0012888179401849692,-0.010691117538258228,-0.0068873301074136705,2.34
-0.1194967409059732,-0.07253786503960406,9.742565207846775,-0.003769297789734254,-0.0010322565487965985,-0.009572593256891821,2.35
0.10560290105016973,0.01544226213519098,9.801827012506825,0.00660373128935565,-0.003988372828223506,-0.005684734004848502,2.36
-0.00720727134000862,-0.08656680714711139,9.613562655161186,-0.0017546863621301146,-0.013572284217009694,0.004439984276224689,2.37
-0.08087997198681526,0.19033157598130276,9.779277975179433,0.004761359637604187,0.006117329884651686,0.008643987402622,2.38
0.0005078343565652858,0.11888230202331262,9.600735045601201,0.0063251498740447745,0.0008106645464120278,0.004567000408287491,2.39
0.03439751430783449,0.019099221042838236,9.766441675832308,-0.010953620814564191,-0.006199393520212718,-0.013704694696332585,2.4
0.12368906012226868,-0.0510236222875626,9.865246799979317,-0.0052682601205555745,0.005751404983373489,-0.015068701152728401,2.41
0.051998605021127575,0.02124992589214655,9.768518319023226,0.0116938841756286,-0.014232446335783439,0.005049790121898995,2.42
-0.0056887973819154895,0.020073562855134987,9.739887249789493,-0.007224211022499732,0.011567406066382816,8.193981637464962e-05,2.43
-0.09368312226922675,-0.29567404443330203,9.77167141825632,-0.014291269621474515,-0.0071871271285648035,0.011649632933751222,2.44
-0.038084186415566434,-0.10257406666759948,9.868260113128214,-0.004372045383864837,-0.008405003745325332,0.0017284633382095107,2.45
-0.0030952288841397738,-0.025435013923556623,9.777337767985006,-0.008260267507916988,-0.011329745758886609,0.01854054866409965,2.46
0.032806531636884566,0.07868496214936994,9.604975914762885,-0.0053748354526718415,-0.0025985882552036796,-0.009748276260492851,2.47
0.11012596893231497,-0.11383623253637598,9.777059218428949,0.007743382281342609,-0.0033774423404103584,0.006844706682975669,2.48
0.13032869433754676,0.08652705616989932,9.949514741197554,-0.023730141025773463,-0.01142157405054531,0.021907038860246954,2.49
-0.1691178228181844,0.10635716114162155,9.827248589910425,0.0014395414576019669,0.004440537838098605,0.016431728336255412,2.5
0.06463021310093313,0.0968248959225657,9.943404540073367,0.0176192992207592,-0.00598061286405939,-0.010290888153432317,2.5100000000000002
0.02822678485985554,0.04332744661147738,9.853623703724368,0.00826278894721013,0.004573812785275705,0.004698936736241357,2.52
0.1871916132598939,0.06127859122984333,9.960195336642478,-0.02458207455819575,0.006562712950475359,0.0027950927889899254,2.5300000000000002
0.14549655991741858,0.1301513113855996,9.796286695852794,0.003571470514872541,0.00560382578180311,-0.005708710449107474,2.54
-0.011009618876350557,-0.014113136767367227,9.802301778636384,0.004981551145384697,-0.010655358993588715,-0.0009662497920643116,2.5500000000000003
0.00037202017371173416,-0.09355935834106845,9.771077117581747,0.0028639595444161247,0.002868540722593257,-0.0028123300055922684,2.56
-0.02152157588004196,0.09625678983402619,9.707768568520255,0.00862717054832861,-0.0027100733403762635,-0.008879991059373381,2.57
0.14635203706048477,-0.07169345294410273,9.854717081204292,0.0012153624718739162,-0.00794238744810096,-0.0018911557391113718,2.58
0.12968552863449792,-0.0834661534914218,9.870479965798454,-0.002916013301309165,-0.0045706581063313136,0.010363234212069873,2.59
-0.12216725058039796,0.00884036609127976,10.01298272786953,0.00839340135943915,-0.009493090849988214,0.001746221267247813,2.6
0.1518307169202522,0.049230161949674146,9.64872647358656,-0.008423889276496182,0.00922401838844853,0.011540371272993573,2.61
0.08021897674063938,0.12700464759979543,9.766231774113653,0.003243822541122979,-0.008917975655048703,-0.011324036670535312,2.62
-0.027783351308940885,0.05239341015427134,9.750883907923162,0.010820553093979312,0.02000606339747535,-0.004056086000091803,2.63
0.08139475805294466,0.07066366037540106,9.892226691534415,-0.00024648278664384334,0.009234858022709649,0.008079580094957056,2.64
0.05973293275291878,0.08497159880999126,9.874435389613394,-0.000817171693087594,-0.0018402580365261534,-0.012966049960051565,2.65
0.12570738498670575,-0.0407594854329562,9.786398639678332,0.007130488603014109,0.012867889214281747,0.013564877540245083,2.66
0.13917831946611978,-0.10454450026722631,9.84966985262204,0.005817021336813528,0.007654754492378216,-0.017206211672271512,2.67
0.1405787392508304,0.029831343874871876,9.762453303366708,0.004538867876439615,-0.006855978440850582,-0.007873744328945642,2.68
-0.021977564487753364,-0.12475794834148109,9.974569433811535,0.003205022684958352,0.0006968759901581151,0.02548820669694432,2.69
-0.12217565548272341,-0.040352631458945035,9.868265813550968,-0.008597594613517053,0.013860925241384481,0.002736141262006384,2.7
0.13325057344254507,-0.1592787352803996,9.754713524699046,-0.0006289940974430587,0.0038254971896369214,-0.00344262486431724,2.71
-0.009968116641063871,-0.03463124712996015,9.779856026735251,-0.01262820613836657,0.00761854221793992,-0.0050304854999225,2.72
0.1655898705537997,0.01145201735461982,9.672996435863798,-0.010112844247562895,0.005201119501991909,0.011182457012042,2.73
0.23907211399545894,-0.13217182410211908,9.639999661828469,0.015138407577654901,-0.0020890110313575403,0.00520070760160505,2.74
0.16097150158402193,-0.1567587555689604,9.828080568595748,0.012232388488809866,-0.001416072993643506,0.006139715782240508,2.75
0.05936142235682386,0.1406558298353327,9.76089243798119,0.002186661224126997,0.0038933302661770535,-0.006483756817151645,2.7600000000000002
-0.019434976610681637,-0.029006958794664296,9.560574135794688,0.002854084671372163,0.00015785162268475776,-0.008398064399106668,2.77
0.12989166628161367,-0.08288141894598941,9.606414137319078,0.012246983843049866,-0.012942878924254648,0.008681331909928989,2.7800000000000002
0.21660161888615548,-0.052067141106483895,9.85268755515896,-0.006990012230639463,-0.01695986862907365,0.0015527151645361504,2.79
0.10781923597810478,-0.05980389642881552,9.85052851633787,0.006639128738181945,-0.0007575754254234216,-0.008606417110907896,2.8000000000000003
0.16820546326045513,-0.019251817251312916,9.858584367418999,0.010661655082250953,0.008383648227678174,-0.00852625175996217,2.81
0.11160509759919182,0.133179827655402,9.860365605458712,-0.0009128443941665493,-0.006435040197360195,-0.004555649012716575,2.82
-0.1413934915944156,0.1455952371371957,9.979482391142083,0.009983100830990325,-0.011699316070468533,0.018455298172315386,2.83
0.0011670649234499506,0.08901325751502973,9.89826428475279,-0.0005235346033995339,-0.0028414481705319895,-0.01023547226179606,2.84
0.03455828919946204,-0.07838722707574675,9.817893297425483,-0.0002780184512914126,0.0015457389469639296,-0.01851738806355963,2.85
0.0008011926471750817,-0.039993120912233115,9.946122011879758,0.007762189649186479,0.010399116664867406,0.0011123330143345419,2.86
0.10829082967411657,0.024856462323571957,9.74921765582128,0.008675937743423996,0.014838029484405706,-0.010524224677924764,2.87
0.08752168024928784,0.052689826117608786,9.906852027903833,-0.005193318377333713,0.00815945632726071,-0.01614426172934274,2.88
0.0796013642386345,-0.08217832426654391,9.695662591736763,-0.0018239440516817304,0.009065236678189245,0.01483073609784126,2.89
0.22453084400422252,0.12554048206348334,9.829490264224448,-0.007680874332096892,-0.013956246282173122,-0.0008881757546149369,2.9
0.010359071309159723,-0.03469298536872205,9.781038151361827,-0.0023299590798294143,-0.00031959874906706514,0.019658239648769955,2.91
-0.0422725096323027,-0.061488644791573066,9.77437761714381,0.008644304836651198,-0.0016223386658695208,-0.005758725138728175,2.92
0.14025844034003263,-0.05164279375131964,9.755780197367395,0.01866515272202465,0.005622027876254387,0.0001337888273317102,2.93
-0.018999195778786185,-0.1567457066031504,9.891644352367976,-0.0026319014407208577,-0.01069178521742201,0.0002986250461661442,2.94
-0.1854440601726489,-0.09211653947037703,9.91624697768285,-0.0088327881457011,0.01175541483641736,-0.0007377463264198286,2.95
0.0863556337049275,0.15819374477427228,9.845967651095552,-0.009031408345342485,0.020002372927258483,0.016667417716243475,2.96
0.023179339838981877,-0.24111481923692538,9.805052980944428,0.0003981573979603478,-0.010447169967440944,0.0016769962664313482,2.97
-0.13553349964450334,0.10085169706415438,9.867270395190557,0.019905492493295665,0.005580973943269851,-0.00022266129999073598,2.98
0.01473279330748536,-0.006574809020480011,9.551713081311618,0.003218736815630537,0.0049159160823214944,-0.005378244172247565,2.99
-0.09615057063745279,0.17206970490600723,9.860435682828177,0.006114134239978331,-0.0015099825184531688,-0.024451703917267437,3.0
-0.10444497436165677,0.17239350539045195,9.901644442392142,-0.007131635307918078,0.004523835355495707,-0.018357029209967506,3.0100000000000002
0.017922179815554853,0.07958830804512478,9.797669154913123,-0.008462910973893149,-0.006015243661891307,0.025891780234726436,3.02
-0.051550990649886046,0.08878266636999804,9.863961111350005,-0.00675147418133073,0.00425506859116378,0.01279379677199561,3.0300000000000002
0.04120321592466011,0.0006930862616113559,9.870800578267598,0.009514748705709527,-0.00709949323038221,-0.013430020804136175,3.04
0.12383067642254086,-0.03909941290365585,9.858534854782485,-0.0043376381809212775,-0.001489444525356468,-0.008960872934715258,3.0500000000000003
-0.1376264465838355,0.07152858669210378,9.826677363776104,-0.005381158247335042,-0.000988287877902615,0.01037345970709269,3.06
-0.07806579528349601,0.01734577074874871,9.835386119606694,-0.009665985629692815,-0.013223944364261267,0.008639713099614041,3.0700000000000003
0.0033315383711278812,0.03273233415074359,9.622465048671323,0.025183558508004477,-0.009401176593909464,-0.00012030909135105927,3.08
-0.14647086469984968,0.0005542520136408758,9.94140390332817,0.0034587862683008435,0.013679458216034852,0.02154339555860279,3.09
-0.006706688449817567,0.14758115927542398,9.759781457456908,0.011777743147849119,-0.0015169214085159072,0.0025454379937297172,3.1
-0.013548088648854371,-0.06616360642057505,9.774405143179091,-0.004567643757009427,-0.0018529109886501454,-0.0030330466972959907,3.11
0.03895482073179943,-0.03234656096514839,9.86825952986521,-0.022371886407949557,0.006307152288383782,-0.008640349382360597,3.12
-0.06378710673344172,0.008444188680358405,9.796913304415767,0.009634108348583267,0.006961269918549974,-0.01681790590104496,3.13
0.11800644303273662,0.05214166338438486,9.760549348952104,0.010740796996710015,-0.0011802919333505778,-0.003352524838610805,3.14
0.20439407071315985,0.032298284617416656,9.83648210626287,-0.015189122825858834,0.0037551811376619827,-0.004202570735851829,3.15
0.05466553370940779,0.002791472469000403,9.902519235817252,-0.01619398103180501,-0.002479357546236647,0.005465761783000074,3.16
0.011929779560586993,-0.10511379168985571,10.007310534242624,-0.008836551249210593,0.00169009391932697,0.0011297656055110517,3.17
-0.08208903473568145,-0.06539023154222338,9.675866948003277,-0.0005095435950068936,-0.006226002181938103,0.0024987139373589436,3.18
-0.13976826957398256,0.14614047019144663,9.95793008633373,0.010922909902478118,0.009703636995555197,0.01740958662538581,3.19
0.025047088391341194,0.17037751024825915,9.840074387603217,-0.007322753923906441,0.0016581567442849536,-0.006258809092803621,3.2
0.026027516380215873,0.16604235429033834,9.739035341337592,-0.002713187175597209,0.0060133857513859044,-0.0017870622040331273,3.21
-0.05265520983414527,0.04236059296430097,9.833266597989478,0.02163647891520688,0.0020782288509488506,0.025997831776790818,3.22
0.03613497212793358,0.003126291552692751,9.90915794232843,-0.011110007307429894,-0.006763746004437865,-0.0029702293427013304,3.23
-0.11717660660992046,0.10399769216069402,9.906704561628723,-0.011975764200022578,0.010654602055899909,0.011069326770431714,3.24
-0.08685269543475996,-0.061306676919969064,10.13911562551749,-0.01073930890868593,-0.015528943995469145,0.015570927581935623,3.25
-0.034619390433416664,0.048705660220704564,9.70953948623015,-0.020070243229534258,-0.02028158922362116,0.019819366347613658,3.2600000000000002
0.0702864147788583,-0.07656939673123099,9.744480961409435,-0.007529945987183074,-0.00043782436045412696,0.009114161628847959,3.27
0.017304447053115436,0.25567307203538675,9.758321311324968,-0.0024138073321673162,0.0027354459836699675,0.002697368718373202,3.2800000000000002
-0.06605022299176667,-0.09212582334539104,9.825504494420752,0.004383337308606662,0.011385657375956563,0.0064754550298135385,3.29
-0.2091941584083398,0.09272516917235585,9.86214192147469,-0.017984235109789855,-0.0006632721940325622,0.005979224381236165,3.3000000000000003
-0.08151766489937286,0.1875249775553507,9.908451466070197,-0.0015650234325985267,-0.01713491597529194,-0.013606910000425004,3.31
0.02052594187071799,0.035249337474305545,9.880311143426022,-0.007118485256180962,-0.0036806789801338935,0.0022065916253506193,3.3200000000000003
-0.005675147968301143,0.13213842737573353,9.801268318641295,0.0035377001494736886,-0.005642426401180155,-0.015685689237961126,3.33
-0.015231757651826437,-0.048468680884793086,9.727828202980616,-0.016219739153891116,-0.002014934746641326,-0.00993866342225169,3.34
0.0020279099382454605,0.07014506280092785,9.74838353105297,-0.013353118318872018,0.0007208862157515028,0.013207350397507462,3.35
-0.1192306482776575,-0.20844818332340587,9.880715761859829,0.01045339347720119,-0.016842967755018784,0.007099998046086235,3.36
0.050386193791793,0.01571300587257507,9.963689212437863,-0.006752529738206468,-0.005328448999401793,-0.01628131817169271,3.37
0.20793672203877345,0.05211367695846967,9.876710372644169,-0.009213302070603856,0.00526350805980506,0.002646278632961847,3.38
-0.023749994975279298,0.0014207928756643986,9.70901021260985,0.0028837701147448004,0.010280554211878524,0.0016782322712504717,3.39
-0.1376943016497114,0.09874877404055461,9.794659837348261,-0.0066308032446163205,-0.005214751912745456,-0.004853044568070407,3.4
-0.05792831641070892,0.013625684736597896,9.740589905032843,-0.0069799473135980115,0.009521566568183789,-0.005793094054059445,3.41
-0.02489455319477186,0.06057369093864319,9.967247703426965,0.012279243602102086,-0.01758647466727475,-0.013187915000047123,3.42
-0.0267437067142431,0.1012109822442225,9.754440765798332,-0.006507394905665277,-0.004696024518537229,-0.0007326780354275286,3.43
0.019404992042942944,0.05154567008098401,9.76885133975793,0.0016884829510144784,-0.001244576805851751,0.00401993462115248,3.44
0.13631861528414083,-0.301899911385172,9.886707204329463,0.012874927030686172,-0.0013771103366826967,-0.008263256156317247,3.45
0.019269286743376066,-0.2120173959399102,9.798784127480197,-0.0021498757607014305,0.006139179737307575,-0.00661445768251572,3.46
-0.071042230418878,0.12326870458593708,9.853684010856032,0.0065808131799457185,0.001969450812796895,-0.0015444741146259581,3.47
-0.05904727472378632,-0.2623650010175297,9.756543500627927,-0.021060726494461716,-0.0027425933787811182,0.004278070091311259,3.48
-0.05961699093381471,-0.0830359479860077,9.777100785962771,-0.006843033573640947,-0.003755721282194253,0.0016096098752587796,3.49
0.009666269866537493,-0.05868622983996102,9.753939909525172,0.01920014289583858,0.012219517447094803,-0.0013285444143425384,3.5
-0.11842194703827924,0.11359541298351675,9.715508164582985,-0.03268928675289412,-0.0013104324866029477,-0.002597139235415537,3.5100000000000002
0.08173963547051609,-0.16411588800108942,9.882263379927522,-0.002151613909010923,0.008207157012576119,-0.004643555419714849,3.52
0.031027795180531073,0.18476536500531043,9.945988129706778,0.0023460792483073114,-0.008638523297776588,0.01868209311307868,3.5300000000000002
-0.09350388564686746,0.12708041852538396,9.696450569765599,0.00841808404140113,-0.013395295652134907,-0.023777365403852703,3.54
-0.01952467335144719,0.09479689877343614,9.930655519575001,0.0031736590094257034,-2.2324888014505764e-06,-0.0050431507876599795,3.5500000000000003
0.12033599765294496,-0.147405254152565,9.879209753610771,-0.014693264498246372,-0.005144165970239093,-0.00513422364045695,3.56
0.10066282416080415,-0.16595585656379927,9.678625142124664,0.024798635107008884,-0.018016277702908673,0.00222555317701173,3.5700000000000003
-0.10386853898952075,-0.09582691968789642,9.875731574799667,0.004968348808670738,-0.0029443515848293395,0.0008317249561614119,3.58
-0.08325515720733467,0.11381117891560533,9.754353129975021,0.0001961640604745742,0.004030888247395811,0.005398362302937158,3.59
-0.08519419855592708,-0.14789992287846343,9.837784329339657,-0.00045592905063295886,0.00482078613386116,0.007589705994046621,3.6
0.10108483395559967,0.017099067271762306,9.72455866484472,-0.016959916989237777,-0.0009427839208298094,-0.006543399523323869,3.61
0.029204056021870924,-0.0071978599299775655,9.79684857035268,0.010585413356704291,-0.00333762892685598,-0.00044141869050090803,3.62
0.13490732679943482,0.04293572596979195,9.780754165516838,-0.018562546777052262,-0.010132225599951554,0.0011448542259720577,3.63
-0.042216755430487626,0.09603025256852754,9.724090106123855,0.0206071252393884,-0.00834180090824135,0.006127220133549004,3.64
-0.09778451288782673,-0.09688485480296619,9.705562133320528,0.0077940004155808386,0.01211726314346856,0.015675596427127278,3.65
-0.04980561750370516,-0.2256868669172426,9.879076170569043,-0.010294956921177377,0.01379952987665953,0.028943848437797706,3.66
0.0711742455200987,0.11599800533617242,9.663762967803887,-0.0029660006492862982,9.168651445888142e-05,-0.00018793439194170848,3.67
0.0031098889160625642,0.062260557928576356,9.758102788651671,0.014148117666962034,0.0059845029000032855,-0.0024639440347593916,3.68
-0.04142830612794716,-0.04037397414050929,9.812385788059885,0.010608366682231836,-0.014721626791296885,0.015328624584945808,3.69
0.0500947697451113,-0.06081513913368171,9.78458160187317,0.013688324283354538,0.008122446211818929,0.006716275142167418,3.7
-0.07894458220710263,-0.23002606150299654,9.640279119016189,-0.0016546319916663059,-0.0026948032957407227,0.0059813985546180925,3.71
0.07236959506641022,-0.1273810687549994,9.870398799354968,-0.006686515909728512,0.010753811063084026,0.007552075530334539,3.72
0.026690276821154674,-0.06966722261625444,9.579430334370201,0.016212836698832583,0.0015430861037624612,-0.002408587620722435,3.73
-0.1183206336530462,-0.032780309264978914,9.866813244042662,0.01168260188392144,-0.01129716176304794,0.02169056966018753,3.74
-0.09891063380764548,-0.03830860701346521,9.750681686506104,0.013455892373586258,-0.0006696151789570629,-0.005643946946141621,3.75
-0.11434940642345096,0.054299420244444944,9.83369032494604,0.00981969528601129,-0.0014608506274973688,0.005897085273611141,3.7600000000000002
0.050122572712380964,0.1680280325948612,9.961854733494524,-0.004592367724556856,0.01936741951207714,-0.009095330252219345,3.77
-0.036544298710754285,0.07829753906876812,9.925077621537397,-0.006448416395416267,0.001248177672674992,0.008445227852253073,3.7800000000000002
-0.16413124020319467,-0.0338486232996672,9.67069481778027,-0.006216483007428059,0.023791724858832776,-0.0073230669070992495,3.79
-0.15155662217378757,-0.03015106595677773,9.813774015752516,-0.0046543871962532605,0.014257012553886774,0.011074348190205812,3.8000000000000003
-0.11055539243481818,0.023476142534943775,9.831086777875374,-0.004568378089112572,-0.0014200000431897697,-0.007558302863424127,3.81
-0.1574244277303215,-0.09635245749491822,9.790733590832241,0.02605097095319523,-0.003941744211454899,0.007110970700270231,3.8200000000000003
-0.04676696038567826,-0.13431229571916575,10.036440607714962,0.018483035830294415,0.003290416087572148,-0.013797571874264293,3.83
-0.011107372643669136,-0.14047956182319704,9.70508707321329,-0.0054275146171969615,-0.013276153197458888,0.007318088431686844,3.84
0.08994149749617536,0.1155832781793116,9.653105394490714,0.010482365787857433,0.009521344625112112,0.002957374634040251,3.85
-0.01660137570866093,0.1415189612227167,9.738474626577021,0.011234141880236654,0.0028815437093438847,0.006598894189101818,3.86
0.06716344473126289,-0.28778289955688136,9.863293890245442,0.0007502546169843088,-0.00046435569566933546,0.008240526352280113,3.87
-0.13571078434778858,0.11207646668041214,9.715894288828327,0.015664089624101735,-0.01172556189104788,-0.017660016214267566,3.88
-0.040053042729079294,-0.01665922438063553,9.645511486186118,-0.01817878876033771,-0.011638527414345533,0.004691132953326438,3.89
-0.07844518690452362,-0.2130701995839818,9.694410901972033,0.010497158877913717,0.0032359133014566396,0.015752075167873344,3.9
0.06746251942754539,0.01715649993539017,9.964690085206465,-0.005443933272687587,-0.009024177955166517,0.001889450117472456,3.91
0.002691890014827161,-0.03391204953913523,9.905298145308485,0.001342026707214839,-0.008062070599743804,0.012254035200410782,3.92
-0.014429536271070832,-0.029162972498948326,9.699198094834324,0.006370221446124417,0.006468974572752586,0.0024297068837886705,3.93
0.07678866185720824,-0.11680682093183788,9.812385497157848,0.013780106653110998,0.01533368882723548,-0.020701250630720543,3.94
-0.024366469369987296,0.04943497809929025,9.805414451316215,-0.0024772373315272607,-0.00028853937018629257,0.0034026554149308615,3.95
0.07716236490933465,-0.03284615774359973,9.830115065579827,0.004455296656269959,-0.004269029811328089,0.003674059023590624,3.96
-0.02503962282466099,-0.01989070750153306,9.780737426234127,-0.003290328037196859,-0.00210340120528482,-0.00587513454299509,3.97
-0.12341896853550555,-0.049884741721195704,9.747112244650898,0.0030322214552203296,0.0027537476374518157,-0.003013846871501357,3.98
-0.0738739359899223,-0.030825722805693886,9.876284811394095,0.016525475275113465,-0.017317046490691688,-0.004918195658552948,3.99
-0.0961520492859903,0.03788779090176864,9.794191568549696,0.01463535407873311,0.007714577686727713,-0.0019530900013957646,4.0
-0.047626931964290284,0.014600806434893475,9.847849981761772,0.007261742620352142,-0.0065767505020397745,0.001884909259605588,4.01
-0.14136851293924044,-0.10938121707472209,9.557005299767157,0.011390612018574197,0.00815946737013105,-0.008479981154578717,4.0200000000000005
-0.05437453658727549,-0.025863253424196,9.965272846893049,-0.010886845264775725,-0.0014478799552702876,-0.003237000282168865,4.03
-0.059491981734257515,-0.038943811688561675,9.818976538998982,0.00585570192452813,0.017530847184415395,0.008308934058858835,4.04
0.12070178673668992,0.04557981461535448,9.730517979945141,0.0001746817944008091,-0.011425925406936311,-0.00044829786427885135,4.05
0.0793258525506042,0.07064866316762655,9.846706251670694,0.0037832260769153666,0.001273015014162132,-0.009858899994537573,4.0600000000000005
-0.1485704762074314,0.17555392602064146,9.786140699751572,0.0008276262241712146,-0.0017019814205252346,-0.00012744143391694318,4.07
0.049959498219217344,-0.23815674551551386,9.829066056335693,-0.0007156269708017186,0.005315490740514606,-0.00013909817777062915,4.08
0.16928713886368285,-0.02590158358269494,9.862244091678397,0.004301915364595666,-0.010011263318931565,0.01320232431240205,4.09
-0.14848075313014625,-0.07622133051538157,9.911096267546403,0.0036110854658486053,0.0030851291398226273,-0.019322000550638443,4.1
-0.16628512245322946,-0.007335519879156673,9.761571493220504,-0.009832063564131558,0.007280292428746172,-0.0014922498297670846,4.11
0.024646188605225116,-0.25455911481323157,9.796821823738433,-0.0023728194679376873,-0.015486763271920959,-0.011720710939476402,4.12
-0.008160594165797444,0.07903872088783609,9.788838362420918,0.0011672189194884752,0.001050734083801944,0.0052697865614183955,4.13
0.06203411109482742,-0.09691449839164906,9.925981900222062,-0.017331230624908635,0.005827494580232414,-0.0025942364953794716,4.14
0.12537469063169546,-0.1784585045229374,9.880868268424198,0.007091090742595622,-0.003082673999840073,0.01371532124745767,4.15
0.115231722220227,-0.15571036418984563,9.935994088945781,-0.021082050728203818,0.012268038163254882,-0.014489017454724315,4.16
-0.040656065374733555,0.07522629892597663,9.842562594024832,-0.00805761037009471,-0.0015125760600696223,0.0005675216645593843,4.17
0.13727863559616005,-0.004275362808557971,9.786480176010233,-0.0055012650753766545,0.007475450209096195,-0.007148542515627791,4.18
0.10723915376626068,0.1517450465432035,9.953276675354784,-0.016934565135815524,-0.009351984352579445,-0.007719354067671752,4.19
-0.17417445851130836,-0.05794524624730027,9.898659835003016,-0.000846030922995103,0.008863529479250487,-0.00018887191345358162,4.2
0.011006784305837736,0.15661878356386458,9.711866827509143,-0.005499883505718053,-0.0015789693611128223,-0.009864902142357631,4.21
0.0962326347212792,0.07209744017426944,10.016126820313234,0.0018738319859967804,0.010038391482644711,0.0075305750964931185,4.22
-0.012608860780542115,-0.07657244946740092,9.885616712605392,0.00512595904145387,0.0034574128760905937,-0.004171593403203234,4.23
0.06515751106691922,-0.10010855303641089,9.774584847526869,-0.012423505118685911,-0.005063410764577744,0.013549433678301777,4.24
-0.07055348234111856,-0.028209915989657105,9.678543424669835,-0.012813096843737881,-0.008406766459016966,0.014823485088914788,4.25
-0.04368996375723007,-0.20021262868785114,9.728121350752303,-0.006919009979048303,-0.0010993126479957678,0.0037852117758987174,4.26
-0.15000512109392566,-0.062124738754789445,9.832153388692335,-0.002113312488434929,-0.007870799797268757,0.0017483031810721953,4.2700000000000005
-0.029911847974896967,-0.037836817532059905,9.760885607831893,0.013252894831532016,1.2685591633401344e-05,-0.01584873417920534,4.28
-0.11635048470539802,-0.01528891310450675,9.684273484675627,-0.010064284615983023,-0.006346380149312066,-0.0026855349643887805,4.29
-0.010824280419854497,-0.011765966377048196,9.828407289273834,0.011003740196672485,0.03273476106593048,-0.0003727237186362521,4.3
0.07678398656110248,-0.16404462868189248,9.671245917357485,-0.01372279365163027,0.009436778414651808,-0.01122881356019714,4.3100000000000005
-0.2709450845802918,-0.043331888609965535,9.835573113376693,-0.0008765354690961549,0.004869652633335981,0.010854726880064018,4.32
-0.22589911330472573,-0.032921167903332556,9.773939657427148,0.000484372379682775,-0.003090856161061661,0.008094078926774833,4.33
-0.11554330874150154,0.13623526355410778,9.665255469894648,0.010903599664308568,-0.011145625941720128,0.00675244086575751,4.34
-0.05663976916730892,-0.12665228179859167,9.710192648328979,-0.004527506468512328,-0.007545689354650552,-0.011454869222278544,4.3500000000000005
-0.05428516234376354,-0.1947040275677464,9.97552051443101,0.013571780980842994,-0.0033788341389722,-0.002567317815800776,4.36
0.0048989232092591425,-0.06130318676750023,9.689402584172278,-0.007106541591027079,0.014721091391028365,-0.015805950536714918,4.37
0.055199715395399855,0.17591942642676586,9.966839396385247,-0.006931618710533316,-0.015226250104039801,-0.009785539753508795,4.38
-0.04936182344633784,-0.06523812745986084,9.929701659864737,-0.013342867852534569,-0.024155686253043016,-0.00356879561976549,4.39
-0.05244864179921153,0.08077013596845775,9.880812477799964,-0.008161261330179106,-0.001111101723204295,0.0022104812379300574,4.4
-0.05857744370726941,0.06637439341670172,9.934446826759444,0.010054646307353267,0.003977324821679638,0.005193894604306958,4.41
0.07890977071269861,0.07062557089214698,9.847472280142682,-0.00042402790070728127,0.02503074330222946,-0.008539034385222645,4.42
-0.05242557186942574,-0.017002182874557733,9.703617184257666,-0.006109212816774963,0.003331430338073393,0.012650481431299434,4.43
0.13645239579013757,-0.02665310090756507,9.766264544289998,0.022827811082896426,0.0049347154601001066,0.01983194891923187,4.44
0.053561956485064136,-0.025723444896214687,9.891357377308658,0.006667645416598944,-0.005205326860278481,-0.002414436288805901,4.45
-0.00147071225332232,-0.07721949552784349,9.945503952622705,0.007051076666089192,-0.01624448190409543,0.013036144589167019,4.46
-0.06609309853597242,-0.05908071422631814,9.731128619272239,0.01199751571229425,0.006255016932216622,0.01750180810909068,4.47
-0.2104649096714174,-0.1546647599537052,9.907254646997416,-0.011904163163720559,-0.013867871377165525,0.0015955116299581876,4.48
-0.09863704934806075,-0.08921701666596411,9.807689662176093,-0.0014175994327289573,0.01062501984223196,0.01006139638330554,4.49
0.1094013098597032,0.04939122973420849,9.767911699282818,-0.004879025538367807,-0.01630266122175864,-0.00628015816195513,4.5
0.0033119661742450368,0.2670370031942734,9.706559285968789,0.01649447755602466,0.004424325425419086,-0.004998164117372101,4.51
0.13400675762687705,-0.012826351401246952,9.902915149652623,0.002891656818730637,-0.005374916699957004,-0.01298195456575978,4.5200000000000005
0.08427147749852452,-0.07563207391226379,9.6855583869205,-0.010693634166697845,0.007285517175738014,-0.007970394407686711,4.53
-0.02829470881410656,0.0904438951132709,9.921394070893648,0.009055010568681516,0.010171341099415625,0.0212423324865854,4.54
0.10610232644985532,0.16762649872877997,9.740694863455046,0.014355426538050902,0.0016583177404313873,-0.004310741936079513,4.55
0.024659462450460107,-0.005621183869366948,9.783695838333148,-0.0035627843302319753,0.00896592495585757,-0.0019256549493594955,4.5600000000000005
0.043854552452766565,0.06554222041474164,9.937108507103114,0.015175454649666962,-0.004448870788411442,0.007169950807427995,4.57
0.1890970533129806,-0.043165157095314474,9.814815727588593,-0.020554212102532707,0.0030952754901422213,-0.007040878613033226,4.58
0.04576766439306243,0.14607290045877297,9.635851662686905,0.00495414559804564,-0.002037926365948792,-0.017851470567573954,4.59
0.03568171835029967,0.13934391558976705,9.92590222534362,0.010113909477557413,0.01901717354285459,0.007702180797279999,4.6000000000000005
0.14959584701954992,-0.02159177222828629,9.78625113261473,0.004363648912966869,-0.003955761493782813,-0.010291319200575823,4.61
0.11878587446878877,-0.16196776279152672,9.602763051541594,0.01369643382409154,-0.001994901651008833,0.0006399722758782513,4.62
-0.016615300625090892,0.12147360664850491,9.934181833712397,0.0020034443465668677,-0.011080954476376107,-0.0069714839908744525,4.63
-0.13167892748354754,-0.0776484562357672,9.83553729153979,-0.00027169025435080056,-0.00021672847968217578,0.018445669042292154,4.64
-0.005974924894683221,-0.038081098852949455,9.843929981390193,0.011854139234820654,-0.003602990642352311,0.007392866673337929,4.65
0.02317600138785049,-0.06170905826733439,9.794137196911029,-0.006934798606403145,0.009535225282990467,-0.0017290545213537055,4.66
-0.1777683390392004,-0.04164739606287046,9.794139287241194,-0.00930618388303005,-0.0001354985206516382,-0.005710392453475764,4.67
0.03236003385297331,0.10549124114360849,9.784037745315697,0.01863048844427266,0.024299329937343704,-0.011085870702286196,4.68
-0.29900641907542336,-0.08584631484461085,9.896636409743063,0.009086593837079856,0.0021740861034987144,-0.007513116837746961,4.69
0.00476812532485706,0.01368736941227439,9.692758183105752,0.014098163734909384,0.007779687558489741,0.007194688065304537,4.7
-0.1129443251088884,-0.08703348310640126,9.859013053552705,-0.00796222742643719,0.003876360609889105,-0.008020374821709178,4.71
-0.02757719592382465,0.025876886580322184,9.864805471951307,-0.0033701854935796168,-0.006511464321154515,-0.01346307695654713,4.72
-0.04087060807162018,-0.04610590705701909,9.912890522053063,-0.01103426007791784,0.008874178383375668,0.0077974962027673065,4.73
0.019778790371024122,0.030324338210541774,9.673181295772196,-0.011071634736861062,-0.006708872292926683,0.014757618394436779,4.74
-0.21877182275651916,-0.01130397050598115,9.917196675448999,0.015626821285922975,-0.013552059546607024,-0.008292909649934099,4.75
-0.08419281167233707,-0.03295930572160343,9.690957606845116,0.003927341099766592,0.01430449219481395,0.013961992558760992,4.76
-0.00898120340994366,0.00040449318738549093,9.786617910018714,0.001482330071950116,-0.0119131699460332,0.007002378148487968,4.7700000000000005
0.1570110223369239,0.026778406692765634,9.757440765766908,0.010358941775283775,0.0054097330002957555,0.005773968517695697,4.78
0.04478695709080759,-0.10378162966086316,9.868739562781395,-0.016014997580331272,0.014663442178355742,-0.01654056913063626,4.79
0.10798715650731201,0.07314558223247325,9.926096225562327,0.010750633854640531,0.005842585867173317,-0.00018590297246773234,4.8
-0.09321785676720204,0.028352460487862635,9.886373782471065,0.006577392763966087,0.005036943245773855,0.012651035254253137,4.8100000000000005
-0.09458786590319987,0.0752975956389288,9.770064999252872,0.011156998015687362,0.007223341551794775,0.014450367236316231,4.82
-0.016378930433262932,0.09161469160585878,9.962391133966563,-0.012541537030478679,-0.013195442350562017,0.006357103229246171,4.83
0.0516398788004247,0.1536049743961947,9.663736410118814,-0.01661822323132973,0.0005079965065187966,0.006908931343026542,4.84
0.014778134367733864,0.09512399235118289,9.712442631297327,0.01756829855965434,-0.0063044635031555656,0.006460459194310298,4.8500000000000005
-0.004978281249033051,-0.16059324910300438,9.76805830352349,0.01039117627325346,-0.01014530588209994,-0.0030338738292010493,4.86
0.013432047795293995,-0.13322320114638042,9.985845513065112,0.004615449325464721,0.00021635278974771872,-0.02034215090382206,4.87
0.11616362664272105,0.13719284522433636,9.678281686256994,-0.007631317671468695,-0.008925451664638732,0.013407785236941678,4.88
-0.0032091169095016248,-0.06659560259478843,9.79641919152672,0.00013712586761500167,0.0028203635904277525,0.0033938933645827735,4.89
0.039323865969884596,0.022537834395128353,9.7929513171854,-0.008734989187627782,-0.006232481559666047,0.014713547902567865,4.9
-0.09360977244897889,0.03678910006004912,9.853540358593506,-0.005670940464813244,-0.007332980239077483,0.00639354581369694,4.91
0.0633249332315105,0.07329267891775812,9.806931375377841,-0.014171941153837048,0.00471869085679779,0.008776819772424118,4.92
0.059158224050892196,0.0993587682866715,9.834202244555451,-0.0029215774757442377,0.009776454380351756,-0.004417631379437489,4.93
0.18970110591929876,-0.02054237607719659,9.799228698236877,0.0025060019299631385,0.004896400341873617,-0.021125718789139224,4.94
0.22762303755864532,-0.10555559840596565,9.940208420277003,0.004699614150556934,-0.006086157626378189,0.003150922548700421,4.95
-0.010271926453651388,0.029109183085406765,9.845200329454343,0.00910919375395962,0.003964481481560304,-0.0044533356185213245,4.96
0.10116358688369981,0.04210600993187512,9.766816001319386,-0.008702400138645969,-0.007569581242281035,-0.010050360295665955,4.97
0.16482467203850243,0.03935612089493276,9.776221392965118,0.005691082581452944,-0.027800222165272063,-0.00727533895608699,4.98
0.03106529094238275,0.049479269294752035,9.886296484063378,0.016724804145886105,-0.017674976358346573,-0.010110471952649011,4.99
0.01757108860647435,0.0924414362658724,9.929002774024479,0.002440868161788504,-0.0002606147817158944,0.0043526405524055714,5.0
-0.07774640279295572,0.12044841257427695,9.746612022376636,0.011855636909325321,0.02132479043932123,0.0009935168053601699,5.01
0.07139967118563019,0.1664865569694322,9.666412443943432,-0.007491480150333786,-0.0017512421880482964,0.006887811894098922,5.0200000000000005
-0.01858618800123593,0.08779764205985996,9.82210116142437,0.0025741001524611858,0.0031910898699276185,0.005777348039546354,5.03
0.04540686781011229,0.22457004496836463,9.722058391309153,0.0011343268518778764,-0.00956661613331678,0.006602768319786245,5.04
0.030426251642024928,0.08223758035197709,9.812639471392908,-0.011386441110301002,-0.01024795563320244,-0.011149850346348671,5.05
-0.013660865923547177,-0.0592916590193559,9.951624539499129,0.009112171412754822,-0.009152744371111916,0.002174783276587224,5.0600000000000005
-0.0119131191494645,0.05774166831969804,9.905917713738262,0.017541504811962233,-0.017705810077369967,0.0050343695289414726,5.07
-0.118942804445133,0.01009455350187943,9.727034041312532,0.009899535691655139,-0.009331932286695807,-0.00753644420787018,5.08
-0.04923312407232876,0.0834666225397917,9.746360987175747,-0.011370469459942268,-0.007891500698582245,-0.01756970083578278,5.09
-0.02154107644289728,0.0362697527843874,9.878745326297707,-0.022544055322401994,-0.015748038287707888,0.02223130229356258,5.1000000000000005
-0.01992448501432181,0.047376666745755774,9.807706948117282,0.009191612788722107,0.03326080520082503,0.0019248117280234543,5.11
0.02150966072199583,0.04014349259733347,9.989696930571963,0.004401166336409462,-3.631744630796061e-05,0.006692997807712273,5.12
0.043678442310020354,0.0331083281181474,9.763236627501454,0.003897380419920616,0.020839135958557315,0.013035452350379178,5.13
-0.014258396813608746,0.16661817283497196,9.764826349348947,-0.0050822238609932536,0.01505382556799601,-0.000994460265641503,5.14
-0.07241280952886632,0.03285253244097657,9.899894071171245,-0.006599863106720866,0.006233617172584506,0.012735177047139652,5.15
0.0110250318580238,0.09778131317687071,9.719045309890575,-0.002437914752842551,0.012558568226329066,0.0016774666461452222,5.16
-0.0846260819144406,0.0058623792647769565,9.764022939232001,0.01600894079137993,-0.00537793051696719,-0.002957897633188897,5.17
-0.10198811435792916,0.09433896968456057,9.924644703730351,0.011959212157844613,0.008564028299849926,0.00115027796579174,5.18
-0.04584179576237342,0.06838198088517917,9.882455009445946,0.003834305002391343,0.002225866667333642,-0.00792624294242518,5.19
0.05773074824156987,-0.026317126443402606,9.597845160679125,0.010471753757557562,0.00932771920727423,-0.007773014390528721,5.2
-0.2701011459087205,0.0011702985660957622,9.801641290149556,-0.007754885953779785,-0.01286696994482138,-0.012609606865776469,5.21
-0.061985030713088876,0.019868628980605,9.838521841790131,-0.00908153877342451,0.0036732933327883054,-0.009042288265966827,5.22
-0.03246614738308714,0.027506042866742,9.72074351087279,-0.010086280601122011,0.019843754348488365,-0.01633280881615824,5.23
0.1952116567743629,0.18494890345939738,9.786139230363913,0.0002187943986732023,-0.010877925174022514,-0.003373032502783544,5.24
0.20259660199203788,0.13114494676648517,9.8150038618506,-0.009876640478589802,0.0004907322439514292,-0.006208506664649628,5.25
-0.005798193673475359,-0.04938205404044696,9.849090915204167,0.004184771896006946,0.006962748278035258,-0.011736243146402998,5.26
-0.16308033104714006,0.17300718071316531,9.851128607539978,-0.0013153863549674142,0.01153475941380916,0.007169246234335708,5.2700000000000005
0.00022040870885148983,0.16740492112109573,9.962617421386113,-3.384077976309785e-05,-0.0040692389066593945,0.009305021185103561,5.28
0.18924542528468932,-0.08186382510399433,9.779014086349628,0.004986990892713865,-0.009681319777045035,0.006982124706424618,5.29
-0.023499924185309325,-0.16402281098385427,9.756784465020528,-0.002951018688194296,0.011769434079748547,0.02111642345592827,5.3
0.10354466961562224,0.0052901220491264585,9.698843190449656,-0.0025800909717319737,0.003339970182876697,-0.008948617659203356,5.3100000000000005
0.17260887239056252,-0.024907689381438922,9.690332418041839,0.0037387784618725045,0.0022213888789869994,-0.019046590795029607,5.32
0.06880248480688707,0.03637439964723053,9.74711298158828,0.005062986071716295,-0.00015424115853657363,0.00752838607668475,5.33
-0.020449360739683006,0.08235251403180756,9.858987969640815,0.003585741102451561,-0.008905078928789596,-0.0021264726098473405,5.34
-0.07770080618585806,0.006073212025139587,9.704118024615015,-0.0039944465465045105,-0.011200196322070168,-0.011606390097876776,5.3500000000000005
-0.04014344013943458,0.06971160418780417,9.647645881629245,-0.004878448991046149,0.0024784440660365874,0.0020494154282062085,5.36
-0.02706258351245518,0.19502787050843343,9.856292020781098,-0.00814110031112534,0.011324173963695292,-0.006135209264524374,5.37
-0.04176015492501127,-0.09273735448837542,9.617952773256391,-0.005126374338100036,-0.004538907335441192,0.01025541628915579,5.38
-0.0036261102713312163,0.07172041740041409,9.784322663244025,0.016358680724137913,-0.02033761990909585,-0.013419740258209852,5.39
0.04757022108739248,0.09817222990406022,9.746309269508378,-0.0009539550836547946,-0.003906259550369034,0.0014991691071040624,5.4
0.1228670436771978,0.006729045232248739,9.838380672050583,0.00465764577777177,0.021006112914982947,-0.0056682466910525555,5.41
0.0942099391886343,-0.07527594913192187,9.701166905808835,-0.007785250230959384,-0.014127787328822878,0.005538576440335396,5.42
0.10045093136370431,-0.14223545816381764,9.751146213096836,-0.010878131510738454,-0.001023586443943924,-0.0024935368098086092,5.43
0.053654221920910086,0.005962262534237699,9.874725513563318,0.006182839131227455,-0.008490980823956603,0.009512558730911252,5.44
0.16676931114772975,0.0329551189979394,9.79797244515388,0.011581883243338944,0.006070011548548261,-0.005728443571213449,5.45
-0.02027680611982413,0.1862264785434497,9.732430028058777,-0.003737045124859738,-0.01282893827546885,-0.0011860459713640356,5.46
0.06637265185522012,0.11998906293101724,9.763332237437075,-0.009595907451207896,-0.0006971519319113451,0.007704802941198249,5.47
0.13410418611000388,-0.04032831790946447,9.76931124764651,-0.005107195561686757,-0.002885349467420304,0.002347244458504044,5.48
-0.034315922643834505,-0.01871851827962202,9.736874003736729,0.009651944328854507,-0.008923700180590712,0.01017578056411247,5.49
-0.042735328476882974,0.10209246446329422,9.811706343559294,0.015873602377122906,0.011744224310420324,-0.007058013931008368,5.5
-0.04570616466720958,-0.07861681600302682,9.72073836396006,0.012169851583232081,0.007195463688738828,-0.010379308678977,5.51
-0.103561464381491,-0.018229942489904418,9.707256646646425,0.00072708119503997,0.009744681361256658,-0.00016791971958755498,5.5200000000000005
-0.10419686572431307,-0.09316318035352665,9.827606032847315,0.0015027258329104623,-0.0069699236459979845,-0.0052756218176799,5.53
0.03715028832129533,-0.13955594757520995,9.776421086945316,0.013551281592580523,0.010234008523654345,0.0107753836643947,5.54
0.04267421461357698,0.08243541708452524,9.913437062520467,0.0071883613662281414,0.004818870681479002,0.004563992902567732,5.55
-0.11583214972999932,0.004201320802609826,9.853402294115595,0.015052311879344955,-0.009739468719098981,-0.012136967005782531,5.5600000000000005
-0.06915147284296794,0.04452058208816562,9.795442016116334,-0.009793070760125411,-0.0010487962950564394,0.005949797242041944,5.57
-0.19412446247482026,-0.09608117514836478,9.740836910018047,-0.00579078645492803,-0.0034109672995798167,-0.0016117356500146658,5.58
0.1233668555700416,-0.06779302018491346,9.75039077791909,0.00013595987568100975,-0.0048377322799401795,0.0005917331378167759,5.59
-0.03289635135915247,0.011652794468222209,9.814177781429045,0.009610321765968644,-0.0014935267460812998,-0.0006829987599615007,5.6000000000000005
0.006867367135737397,-0.020129409131818234,9.763968477361468,-0.004761842031110679,0.010308007202275284,-0.007562823867850335,5.61
-0.17512680922433582,-0.07578626160336793,9.842610745189655,-0.00216209750444626,0.009038717894031361,0.0014588722019853785,5.62
-0.10946363717952406,0.047196714242950744,9.652840329513474,-0.00957187480335297,0.015859226351657204,-0.01509305651987693,5.63
-0.04418556038938408,-0.0008921178570044524,9.792477558794715,-0.004167393217133138,0.009605749396213873,0.017331267566359946,5.64
0.13453457923409215,-0.09272752676472006,10.012678161858448,-0.030679947283852017,-0.0017674828901082615,0.030982670226665374,5.65
0.05584499808121344,-0.09799220454981529,9.90386576908798,-0.0151364299937509,-0.01645965812245414,-0.0005231318410853993,5.66
-0.08702217472345038,-0.05100290046453068,9.792858255746562,0.018329913389087637,-0.0006254013013424407,0.0043474073208483,5.67
0.028476716363977767,-0.10471420084541985,9.707012023910426,0.012183251855425712,0.02224536684146213,0.00759815466664372,5.68
0.0036069416937549686,-0.12786265208067982,9.73842421977737,0.004790411668590881,0.006444821112828834,0.025349247585151717,5.69
-0.0646114860051657,-0.09373971085431694,9.598655098007546,-0.005067456424801238,0.0006148088170025021,-0.013728405783681846,5.7
-0.08415272387881745,-0.08921191042078631,9.681213581280803,0.016056725554668964,0.012763191200050372,-0.0020264490340678033,5.71
0.019716471891684673,-0.05096465708660021,9.913730322373116,0.006953769828424168,0.00673086023282275,-0.003041265540230022,5.72
-0.046547347587158346,0.035128527398866766,10.057281706446622,-0.004663729322618619,0.002402655854807188,-0.0023864244388479027,5.73
-0.06516501488439164,-0.04800418374910645,9.900335168433989,0.012200873797183449,-0.007544076967978938,-0.023332279621401657,5.74
0.011927356534717153,-0.08450255583173305,9.830905248916563,0.006532418297432503,-4.951432147030424e-05,0.01194995958132794,5.75
0.07365476756494592,0.004122464259043986,9.647873744948308,0.0009672495969710478,-0.015369841123357325,0.00651920071181337,5.76
0.059613362596890956,-0.011932719981953593,9.739280751017157,0.01154487497327629,0.02306307389224939,0.004812538153084679,5.7700000000000005
0.005149204886520355,-0.22525028116248672,9.665175090620364,0.006204700491294085,-0.0024230027012076315,-0.00425831935098493,5.78
0.03084299456770915,-0.17844993205243498,10.032687237687767,-0.0020891959281771526,-0.0022893914897715844,0.015570172474901134,5.79
0.06829926868769935,0.06558764072154454,9.611758379165648,-0.003275251189657001,0.007141291102220221,0.0017759454769737055,5.8
0.06435589431974499,-0.0579412547619087,9.770000929839686,0.01302546407972067,-0.006302235212426259,0.01182905996898344,5.8100000000000005
0.033701094816575364,-0.09522034327783147,9.755320035394682,-0.009895154181463871,0.0030205280508192947,-0.01557880243764649,5.82
-0.08147729199363424,-0.054356768405126654,9.766915555150138,-0.01920016583379945,-0.01722837013617913,-0.0030618494849593107,5.83
0.08257143156239294,0.10105009986459075,9.921595498655167,0.007439046958245865,-0.006677639278561055,-0.0013284947293034902,5.84
0.17680294715880476,0.04422642961494265,9.778637403706568,0.014108322166080814,0.015965903313993984,-0.0011330529715980555,5.8500000000000005
0.07412465312727522,-0.0380445318879906,9.745569403035777,-0.001446094747351931,0.016631717477619865,-0.002698538994206255,5.86
0.084121733479214,-0.1067459822647096,9.80902736146461,-0.00834237942898701,-0.015253647226114999,0.0007716871737514114,5.87
0.06516663581058402,0.043128189827700746,9.884979060096374,0.0028448846144848053,0.0003560998197111235,-0.010520368185880417,5.88
-0.052943172816596634,-0.044423348004608475,9.802002995998375,-0.002777306047742069,0.010766271051691405,0.0021538894198665985,5.89
-0.13558488013311795,-0.29158113768376315,9.791802803721431,-0.010110018240329772,0.0018617270333044559,-0.010702189410752358,5.9
0.1375950056021121,-0.041937140017882485,9.954230756894667,-0.00016235750378953227,0.0032080480050166184,0.009829048814098088,5.91
0.1573097378477886,0.1329385245931173,9.715744127606872,0.003961511114573183,-0.0077272163093801026,-0.008070797586210208,5.92
-0.06027578919535273,-0.0754886198108448,9.681846322700785,0.016574100290789432,-0.015409589388701668,0.009748970257431641,5.93
0.12474237928723059,0.12156713919381593,9.908942349080979,0.015061716399581692,-0.020799581122318788,-0.007507261096401582,5.94
0.020792588910281823,-0.04432891754155481,10.017932046823024,0.014686574183204227,0.004095417765336012,0.003666188785256924,5.95
-0.08347522979699899,0.22084928100958418,9.825653507971058,-0.01020542445383581,0.005272636113761625,-0.00431063472167641,5.96
-0.04595214360544299,0.09525310233807559,9.807731380950951,0.011522725295115402,0.007967930003223909,-0.009118571395107654,5.97
-0.00041677417061163904,0.008237804968452393,9.794345446537559,0.00015249779427243501,-0.0023694210311741774,0.003445420762931757,5.98
0.010134275601352745,-0.020054158102476745,9.833800359225515,0.009342926040275428,0.00040772614105567524,0.003925985299716019,5.99
-0.12455470985926254,-0.001935532586904462,9.719727807892536,-0.002237490531117543,0.00958665608093181,0.00168138052803212,6.0
-0.04724392072200967,0.11296277799073769,9.656107148177032,-0.0022586401282577505,-0.020110996549306707,0.0015474580091340293,6.01
-0.13353837842103305,-0.10198740184119098,9.938753177066879,0.005902232996087751,0.0007688283524201495,0.0018517749995524161,6.0200000000000005
0.08367171691565342,-0.08431011413761681,9.760107658643799,-0.01229218072587233,0.006541588637588295,-0.005425192813242444,6.03
-0.09521411667578267,-0.31146168085354553,9.88268739537661,-0.005404565661445816,0.004706859572834727,-0.015708803950783747,6.04
-0.053753449427444915,-0.0660457614384736,9.715686966229901,-0.0058752667857727625,-0.007845128586951404,-0.0005802380162859822,6.05
0.1422950223921383,0.0779160316071389,9.818118389266179,-0.011023354174668798,-0.013503764355257143,0.0026399988488870637,6.0600000000000005
0.055342891856437954,0.1044784363119885,9.961970882759127,0.004430608948502121,-0.017179613681887456,-0.0070597808020932285,6.07
0.05483674400822999,-0.12263834657930694,9.67594540899844,0.007064503696260928,0.0002508242531799049,0.0012161233269394802,6.08
0.0493862537907363,-0.040576786806862664,9.897261970409488,-0.006514269970958756,-0.007804837549297869,-0.003442784405157448,6.09
0.061503723459942164,-0.009879915562617967,9.911320767035932,0.0036612672079925877,-0.004103632425273904,-0.004514973221751705,6.1000000000000005
0.08492448181942985,-0.026479163549522202,9.83988601346452,0.0044301027824863925,0.006232096610621672,0.004322463822062458,6.11
-0.02449065757802246,-0.007121165157270542,9.691028749289735,-0.009506219268260096,0.013192301266203117,0.008419982479518284,6.12
0.004953604194611657,-0.08257070382257264,9.688623028447536,0.00917550985676151,0.0048450950163430526,0.01967993929769382,6.13
0.08357868144626204,-0.02920390127643907,9.737012855859525,0.0011347903900396274,0.0008500629252175059,0.00651674861948031,6.140000000000001
0.042320238696790136,-0.06976560627719325,9.880904930199172,-0.020442959638592665,0.028802439600049228,0.0018769164728920144,6.15
0.03819442569024403,-0.03834736004965712,9.783137778545889,0.011336295001679876,-0.010092944810646043,-0.005244369374764091,6.16
-0.054464740949321404,-0.11250837950362749,9.888762222419048,-0.005903161776426508,0.0035849135460176164,-0.005500279125245619,6.17
-0.07037274684149436,0.006626862454439751,9.990251880196203,0.0048707244940386345,-0.003343082504957866,-0.00358209370052404,6.18
0.1502068659087873,-0.16452658957420999,9.822925369547017,0.0066011647561816655,0.00654625578902679,-0.00170451843544621,6.19
-0.021029687214526156,-0.04983026901148578,9.717825316967458,-0.0022857926205608124,-0.007903777660824587,0.0007361692552001251,6.2
0.08074756743354443,0.1697575436567329,9.859763992672653,-0.009892263229305188,0.011663575508522992,0.012074683451324484,6.21
0.04838749719104176,0.16309115880411418,9.814779781135888,-0.012002904193165244,-0.0031899410842988417,0.010936903830993435,6.22
-0.023330845393155886,-0.10587100079345738,9.844502492395863,-0.025583267642511204,-0.012322090972863972,-0.005970379679930908,6.23
-0.013956476934485108,0.017680027787175943,9.686920104226587,-0.004401139282001972,0.002467064920014633,-0.003148695965810675,6.24
0.009542386461162518,-0.002784442743186307,9.802686583937325,0.025771927206131,-0.008493293065669262,-0.007192346812262847,6.25
0.023347765560387493,-0.12416994873053133,9.918054190389693,-0.021133398904289967,-0.004029911493172356,-0.0003091463691846532,6.26
-0.05112537085725424,-0.05578543601200412,9.827753259453871,-0.0077402838520408595,-0.010252798937408967,-0.0029117542777432727,6.2700000000000005
-0.012468804592976121,0.005759997521845586,9.797554884489514,0.0016967331550665349,0.0025790165019924888,-0.008332460857474817,6.28
-0.08124986809126267,0.027217057927607535,9.982783312694837,0.008254167091730925,0.0008967661633732017,-0.0026381608567745064,6.29
-0.1537769446178926,0.10923923046274964,9.982484626287468,0.0190348466138402,-0.0023535544297473847,-0.0033332270256381485,6.3
-0.0668807677749664,-0.08788629305292855,9.659968876177375,-0.005517331661664991,0.0007555181739543758,0.014611441446561329,6.3100000000000005
0.059187620835796186,-0.0074377956863558225,9.746190427522173,-0.011932139629954422,0.024415435496560414,0.013437917352336615,6.32
0.06989294411578821,0.07848863662543981,9.77082682781832,0.0033880674089178846,0.005894448545071791,-0.005953540640296239,6.33
0.008177857137410023,-0.07910363671243194,9.839164253551601,-0.01584958005471651,-0.006278799807042573,0.002163414568361179,6.34
0.0563890092437199,-0.09155903036676166,9.842064677955085,-0.007643446336610068,0.00024936754446531475,0.006070470678897539,6.3500000000000005
0.12578548223911284,-0.054500612790549074,9.825077414998443,-0.01694553434464377,0.0031289844914661013,-0.001368790576544635,6.36
0.12439074029345604,0.02204916557073079,9.785897619595117,-0.01014364023744312,0.0007197801697293514,0.00884307094484134,6.37
-0.10708680948666671,0.21066436864563484,9.806692943804958,-0.03594520814270926,0.01786899925954093,0.012221631660107032,6.38
-0.1151853681884249,-0.05917473293281849,9.97383716067448,0.00231119559658391,0.0017342299168595873,0.01583139628464703,6.390000000000001
-0.005241425949889115,0.07607487891153095,9.965491427982057,0.007221206339864263,0.023308726384900457,-0.004841487279796139,6.4
-0.05793773176269526,0.05883212428702718,9.968335568316355,-0.011300468345622377,0.0025967486685961596,0.013207025181173108,6.41
-0.005360343821579245,-0.13530517429642888,9.929488498587252,-0.0016860680248638065,-0.00032075259207369047,0.00873436171687575,6.42
0.13180132621253748,-0.04041473933082476,9.852468708478186,0.017784814473122097,-0.0099353874896846,0.00955524770968044,6.43
0.06706009179641133,-0.16958254479649001,9.762113474740962,0.0018298921830795746,0.018110658044376764,-0.00101983260116088,6.44
-0.1325945746305677,-0.05993223284857768,9.946028146867238,-0.008358124661953304,-0.005749656394277026,-0.006669396676198153,6.45
0.036675503018661605,-0.010769785589741683,9.925167068803269,-0.004256757273498389,0.0020350645522590307,0.015922527861009218,6.46
-0.030693644949983986,-0.02149781699680581,9.736695301118909,-0.0006232598104573646,-0.008782072191162157,0.0048831688646514,6.47
0.045221698098254895,-0.1343545268622206,9.836950664456465,-0.0038846306346834183,-0.013150912407999746,-0.014961679140524953,6.48
0.12176151673117078,0.1404501613167702,9.752722331727513,0.0031062530780992105,-0.005549821262724266,0.009032793105970341,6.49
0.10786915095043509,0.008114255192158958,9.758310330288696,0.0018531726451620953,0.008233811969631001,-0.00021849753560756517,6.5
0.1600540571910093,-0.010390925426060765,9.791605756794958,0.00011244800674174634,-0.0038239306837837455,0.00937107800723074,6.51
0.08216383612141355,-0.07585744799687928,9.887379560040683,-0.013816866853003333,0.003338719996828027,-0.011199149156256794,6.5200000000000005
-0.2909099956531459,0.017192152686645708,9.890893765765831,-0.008258964223413722,0.00893338767277618,-0.0035869565820474507,6.53
-0.12632761454045002,0.11689975158025656,9.771487693175152,-0.010057862230995735,0.014323699043553862,0.004869095284928649,6.54
0.06099262646470186,-0.11953692262990222,9.788002956278584,-0.015392369698792381,-0.0024054405998917903,0.0038483685953073295,6.55
0.009023213750933503,0.20005649449201623,9.74911941342322,-0.006131386546855589,-0.0027486210270683915,0.0007507696649318336,6.5600000000000005
0.15161075316472028,0.007821672030116696,9.877861576235029,0.014591584454694655,-0.00023042927518099075,-0.016513332394098097,6.57
-0.00029104132302335266,0.14702052952739794,9.9128639219592,-0.01073422427202616,0.004109185790858501,0.016863856210366405,6.58
0.0023572192004183683,-0.08343186133677594,9.895961616629641,0.0069601850406875426,-0.002497662986640194,0.00604180777195462,6.59
0.06739966906409205,0.05477034022677307,10.031017755393156,0.016065762184639513,0.0007958268767609112,0.0023827868042088822,6.6000000000000005
0.05047192152694468,0.0829350436313556,9.971957964791564,-0.0019729325969708765,0.00335889446054136,-0.011470085339133585,6.61
0.03881771617472112,-0.08932469443355541,9.958907677516336,-0.011486346611718738,0.004319021670928639,-0.004917418913054881,6.62
-0.05923078269953992,0.06836399442907874,9.8126693564975,-0.012377029620391292,-0.002790224233553091,-0.004481069827756347,6.63
-0.027047564312734612,-0.10237521012874691,9.922270018264395,-0.0008616021420193813,0.006298968906144085,-0.0039348412783735045,6.640000000000001
-0.06078151473652474,0.023749291479965597,9.858402271973143,0.007108334075266447,-0.005011137060937334,-0.011889818922839433,6.65
-0.048002817482640514,-0.1216841307489005,9.785508947205729,-0.016597430186649328,-0.02085879362968449,0.0006158835616707364,6.66
-0.0741644589232968,-0.011076187247557413,9.87608252106883,-0.007552569884559618,0.007309495800171101,0.003359074422660364,6.67
0.13213466803921792,-0.03120452067202308,9.88187428092378,0.01066448915458708,0.013970695216784462,0.027547451365610456,6.68
-0.018010276270605887,-0.02357372744588678,9.75032833862124,0.012767605886251398,-0.01843810788296879,-0.0049987312693198,6.69
-0.07191998096123957,-0.07121435129717162,9.831095066496545,-0.0067754422831019625,-0.007385908186656097,0.011025083863064234,6.7
-0.1445967484477908,-0.057960315914642346,9.931539515074329,0.0036090876850800304,-0.000536028454019276,-0.00813229784499126,6.71
-0.04712221669592563,-0.057318879924199,9.850349969696987,0.012037755596032387,0.011313923450307597,-0.0006380969851294272,6.72
-0.07164262779565325,0.09765266838809973,9.803411934374072,0.007498081784793574,0.00043285765827900523,9.484545083803402e-05,6.73
0.05400643409726822,-0.025444114240171758,9.961005362408173,-0.008183795717101837,0.003506230496037634,-0.0018423791756639425,6.74
-0.10819708054352638,0.05177244909236656,9.918938116570168,0.008182908444377366,0.005620503115899782,-0.020475204374095314,6.75
-0.017080166424086312,0.026613102799920376,9.987703012954876,0.018571807018789403,-0.003938171377328027,-0.020958879965022943,6.76
0.0354190865662386,-0.06813953138098477,9.890099843539796,-0.005149437600378523,0.004845311757274546,0.017419597601550884,6.7700000000000005
0.041200483260729504,0.11573767675107408,9.994279195541408,-0.00460161662152168,0.0025696589345884768,-0.0022064151591790165,6.78
-0.15879694125185287,0.05778967413039482,9.859402316053279,-0.011089640186836424,0.009652179102935707,0.006311520535478972,6.79
0.1367499580784882,-0.03562935670939759,9.737539306932918,-0.008529330519762335,-3.613263096614269e-06,-0.011418468479471493,6.8
-0.1811371907518649,-0.22126336209390762,9.776663397521226,0.0021410980477604567,-0.0091459810488726,0.0034438271170920236,6.8100000000000005
0.05843254863519427,-0.17890191037484926,9.778460520720978,0.010694554181169628,-0.015624087284997134,-0.0040326697462350096,6.82
-0.02445062721415285,-0.11032950618265243,9.95289741092162,0.01461256901180364,0.023090785778379166,0.01759562163019266,6.83
-0.13141323075948216,-0.18386192685992542,9.791336486023509,-0.005045816465103945,0.006228594236829305,-0.007965847070638757,6.84
0.15379566891320662,0.06105731057308337,9.800061220381549,0.013127174133463981,0.00040616576095750875,0.004973756829553588,6.8500000000000005
-0.16288154110093891,-0.05210049982080504,9.694307900925056,-0.010700803198343161,0.012350893305965662,-0.002522579430800654,6.86
-0.013928225771181635,-0.16526679820140594,9.80861062501116,-0.008476873325092024,-0.0013798031825415643,0.005789278742980969,6.87
0.21276010074915974,-0.09718928708308743,9.69932712716633,0.017021896225877717,-0.0011800125801597304,-0.00585300755775144,6.88
-0.08619936578327135,0.09924741665937564,9.735675678112568,-0.006102178159386701,0.02324404260163721,-0.008431118231420967,6.890000000000001
0.055555115149762115,-0.11932996213824652,9.864886830132246,0.0013204579169817266,-0.005436061591300299,0.009934351406617801,6.9
0.1765376517151039,-0.07884515505527906,9.927878643014887,-0.007628028443574657,-0.009757815508440734,0.009876988488416795,6.91
0.0006041707588219891,0.15495365295605287,9.728955382542734,-0.0030552017093604293,0.02319960650350431,0.0037525342168945415,6.92
0.010184006897990249,-0.058275908979409374,9.922833214343484,-0.005011679332808453,0.005334269318980767,0.003747239880533585,6.93
-0.02616550768539083,-0.18146906065294147,9.924012880434931,0.009256417461876717,0.0036616816247227357,0.006744217962901169,6.94
0.030695809763352278,0.0002557193733990738,9.743871097502145,0.0023237656372497597,-0.008911523682218246,-0.002701523655094723,6.95
0.04380968607404312,-0.10963759857821842,9.69209216468278,0.010645802801681316,-0.00551249719842988,0.0021402612777402285,6.96
-0.02914860569724644,-0.11223258874033085,9.812646677109344,-0.0009573488325429771,0.0035208741477150873,0.0026150439280610534,6.97
0.04402555116784766,0.07185499643588993,9.699996913803089,-0.02174817856067487,0.003168088376448336,-0.002778530585778546,6.98
0.009744651882544936,0.12950232410286183,9.837531105453998,0.006864458241690344,-0.010296034114375439,0.0011581810331588952,6.99
0.1683363626433601,-0.01597344696011541,9.821614395522595,-0.026284261138597068,0.011948760459752497,0.00015206038670615514,7.0
0.11693133297039371,-0.0007533142569375369,10.000585527077059,0.0039998282156533905,-0.0013814076144642317,0.00860155884287142,7.01
0.05967777176598406,-0.01827812392769925,9.867132986160517,0.014860915791227298,-0.0212446992176696,0.013834480905038384,7.0200000000000005
-0.1352464980044804,0.08036074742775588,9.984625175525244,-0.00636796681038042,-0.003502673431438735,-0.00552799168058199,7.03
-0.17400171930379832,0.08413220349678752,9.87544535791373,0.013725472922490854,0.0011722040705964898,0.0105620547072255,7.04
-0.055426089528138225,-0.00298829686085206,9.915794403805975,0.005781544860597791,0.003643438383806641,0.01784976482221886,7.05
-0.017288745386400597,-0.017483702074147216,9.790984056582515,0.016132488160085376,0.012051635427808667,-0.003750137015571459,7.0600000000000005
-0.02993837906430334,0.2507133299979035,9.851996112481727,-0.003090746491092886,0.0059003795341374225,-0.019304594877099436,7.07
0.03349671393775663,0.21392231047520027,9.836006621673947,-0.0029993919896219912,-0.013631255920750382,0.010874348970828927,7.08
-0.24953118380032718,0.12838381593587134,9.755871184123555,-0.0020312966717766522,-0.009960398145517869,0.00229845866516336,7.09
0.0382320345314174,0.02365044376107501,9.967313701758101,-0.008914953158117774,0.011066895646015998,0.005383088135786674,7.1000000000000005
0.042658368262539714,-0.02672954756033549,9.863069104687844,0.006912693208157817,-0.004159503094343475,0.010675350228750755,7.11
0.06844249846349959,0.20492901229836857,9.598266308107213,0.004711757985029053,0.0007194271641968332,-0.00880401289765908,7.12
0.13027460326831,-0.06776551461128379,9.886857955600451,-0.008619472525720838,0.023864272855699142,-0.005805624719291279,7.13
0.058753264387001014,0.07612913459095967,9.90702608579088,-0.0061254476374040506,-0.004130082298717029,-0.003662474808651054,7.140000000000001
-0.08763369815058857,0.06519869593403936,9.705295424876697,-0.005779962182800382,-0.01085778904434894,0.007935925719752825,7.15
-0.014461347381321278,-0.07149616094003995,9.760936645241834,0.0014852394156926584,0.004002747744114052,0.003226627113318848,7.16
-0.06591134482331272,0.005879166565148086,9.824011095315463,-0.01837006698540261,-0.01218047246938508,-0.011778370272557955,7.17
0.2025058114925348,-0.038235094643898515,9.961376997451696,-0.011775558124349758,0.012640324106862433,-0.005269381933146255,7.18
-0.1875204661058892,-0.050128466414499806,9.671682112591254,0.003973666495446883,0.006524781811074064,-0.00904632574137113,7.19
-0.1503403900421012,-0.1250260956592026,9.878267494716479,0.006966414569787519,0.009844429354601841,0.0012381874120577633,7.2
0.05964901478494237,-0.019829452158760863,9.623900510060723,0.005887334250885555,0.0006718696420160851,-0.007020408525635797,7.21
0.19965135109671128,0.08157519330868492,9.883142940961466,0.00508685256389667,-0.008463936555239363,-0.01735129017230374,7.22
-0.0832120401034013,0.009364856453269626,9.846284444369267,-0.00480831409831118,0.007795979948913593,-0.0012662786323257757,7.23
-0.05484248631913255,-0.03913072140688534,9.805084759100676,0.006069974731393071,0.0028868352717273393,-0.0014653640058380699,7.24
-0.05440998800132443,-0.048098111669353155,9.802111526897132,0.013307843901243843,0.013450205409325185,-0.018340145204845563,7.25
0.11992138188045849,-0.14276600092752476,9.720240807715081,-0.00307526020474108,-0.015291533256636116,-0.025477680762426357,7.26
-0.11880439263139307,-0.04943299724074682,9.835372788567428,0.00191138304893887,0.02012523642496044,0.003745984819402805,7.2700000000000005
0.12877615250893584,-0.18503527022179642,9.677366585295951,-0.0038533567274456923,0.0018213514031363857,-0.004832869887853404,7.28
-0.08657611077668043,-0.10428410534997637,9.867057360598366,-0.01305603751125592,-0.007872313834901836,0.00532176471830058,7.29
-0.1076877709062507,0.10227438272090852,9.79762634928241,0.011276454305487715,0.003298534577321214,0.013389832208407932,7.3
0.032283748760460654,-0.04508240848816873,9.866849058224085,-0.0061517508993590335,0.002844163706029974,-0.009595669298757607,7.3100000000000005
0.04269726864537824,-0.013932782549269577,9.85521036584215,-0.0075301823789861305,0.010020379754652774,-0.004700068905609259,7.32
-0.15067898619409995,0.02782650542880772,9.794529396765492,-0.004999159663573912,-0.002154039148473757,-0.01323844824829654,7.33
-0.13343199638069045,0.14368325297711035,9.840154215379005,-0.015116014263233517,0.006725925726175359,0.012138486462282194,7.34
0.053592945681888306,0.14987208305623306,9.817807815335566,-0.003494346106345674,-0.008762358798205703,-0.0069772923449515425,7.3500000000000005
0.041304598685905365,0.05960185649770843,9.717217463355789,-0.000547539258357525,0.012409017961429568,0.012791149622839395,7.36
-0.0927760984617585,-0.08671397193618718,9.859710239140218,0.006522921819011142,-0.016283223637061008,-0.009910583394976311,7.37
0.028863006991582542,0.27630733875994407,9.725141988702735,-0.0027515339883296967,-0.001430776269375266,-0.0032208472672651096,7.38
0.0035343253373616777,-0.047536936977046716,9.835279091693362,0.018300474077808847,-0.014347894346801315,-0.009385244664007602,7.390000000000001
-0.0032874260756846,-0.03902210060735353,9.766086349583114,-0.013469024931460627,0.009295733439517584,0.027116283965633987,7.4
-0.019476053193590716,0.14620134750688601,9.681671506830389,-0.00959005903632652,-0.010511360476569854,0.004370081498184898,7.41
0.03129551598956245,0.07955201768589854,9.864593464275377,0.0035561597692053155,-0.008501536528197066,0.005110322546432297,7.42
-0.008017916373898926,-0.009129817020383532,9.86133660520957,-0.01426467686235499,0.002425175854175599,-0.00044506346996679193,7.43
-0.04805689711194418,-0.028715816679233633,9.814539374260482,0.010053369957758606,-0.020541183159667385,0.011767847899221258,7.44
0.027407292776415126,-0.12401802655152355,9.787480810587661,0.006835191053405421,-0.005187808600902184,-0.014426195417455217,7.45
0.019876046672677394,0.05588643408285331,9.762987085450698,0.010598847902473245,0.008857663098800492,0.004210877623293564,7.46
0.055865672156726214,-0.09824512780761907,9.770746835202404,-0.0035809883661904775,0.015060844532023108,0.0002918878068084491,7.47
-0.0019297132132203342,-0.07782815461335049,9.741776603118254,0.007188124204100955,0.0025922413048410993,-0.021316652043716605,7.48
0.12956931173914094,0.058370194540271286,9.824233052766886,0.014979646638626118,-0.011612258658101901,-0.004039282424554762,7.49
-0.040350005105102914,-0.009107278854103826,9.749778647740554,-0.013208728878546199,-0.008193709908542058,0.012623332505501322,7.5
-0.12815242448167627,0.12372449432517657,9.911181948013505,-0.013276786064061121,-0.012479870276696647,0.002989880204046079,7.51
-0.13287977609806242,-0.17215924896406665,9.917554187280697,-0.003099302021015533,-0.0008139463340767147,0.00119297574656383,7.5200000000000005
-0.15224348933168605,0.032929800095289175,9.851372547316366,0.0024864929138965442,0.005609930000957173,-0.003188198104334064,7.53
0.1050160412427057,0.08837319837218834,9.742282655139357,0.004727259113209672,0.0005880364697260658,-0.005979995008038569,7.54
-0.08756767645200386,0.09132088689492203,9.805194692848822,0.01000788544763532,0.022957947196893445,-0.008398778832977658,7.55
0.19723726759045582,-0.22889111401795292,9.65067908656939,-0.004126554267824439,0.01053957783470816,-0.003952937692337328,7.5600000000000005
0.16466297034127772,0.07705559156396186,9.572223250211763,0.0035703290531302616,0.010677998005187482,0.003063180923627526,7.57
-0.015833233770885663,-0.018400339785090182,9.71571007146081,-0.008461251585499752,0.007511041936041108,-0.006074412894692406,7.58
0.05797645808740466,0.040745240675647526,9.71335031940286,0.004993642816697528,-0.005516895219605109,0.004305886714629696,7.59
-0.008837387704108513,-0.06665207916337933,9.837174845477985,-0.015239136455185834,-0.0011361313614302298,0.0052974192395227205,7.6000000000000005
0.041853007305337454,-0.05094990635856678,9.684648183486958,0.00977348465377888,-0.017217684566210915,0.006965913411128164,7.61
-0.17158128289980346,0.04951781471905267,9.958817745152336,-0.011775907862565336,0.00021913707240037617,-0.005972341447817915,7.62
0.008550216846770955,0.0640474027259824,9.694996984255877,-0.008181642051923321,0.005736766449684767,-0.006434505204478501,7.63
-0.07301445398366593,-0.019482975919319814,9.93252700209575,0.003598830352140748,-0.004843317570608496,-0.0016992824315071814,7.640000000000001
0.018793104605733524,-0.008656587601708393,9.929877925502865,-0.014356160496034292,0.005305825985949305,0.011628828797586414,7.65
0.04710975441006209,0.02083821089768149,9.722729530384036,0.008440652436427222,-0.005922197841066239,-0.000754306865105208,7.66
0.006295550249249573,-0.04331865349159318,9.912011164846854,-0.01294288561022103,0.013764791632772553,0.0068080306078113165,7.67
-0.024797780049628963,0.17835663744345834,9.825978807865512,-0.013526420046682986,-0.008967141970100581,0.020577871318177135,7.68
-0.044019328903039286,0.023282378600180786,9.958590161095499,-0.010759566092432558,0.0006729908623293599,0.002915787352075989,7.69
-0.1059007174060676,-0.1437099711271902,9.832199330153287,-0.005164601370223012,0.012002413963877434,0.017104034682847304,7.7
-0.04963702334478247,0.04787804136736411,9.802446186792414,-0.014036268681742936,0.000997001763484543,-0.002552317990181954,7.71
-0.07351142516613228,-0.0987640357359746,9.832260918634125,-0.009167566813262364,0.012287353648283301,-0.007422390838549141,7.72
-0.060543768279329425,-0.12277477346455475,9.806349183388365,-0.0027936304362871267,0.0007410576482077748,-0.0020998921242137447,7.73
-0.08138106324594648,-0.011166347342444434,9.709067665162568,0.011215579849075556,-0.006925330488741875,-0.019339332374733002,7.74
0.04700096066700074,0.16798171097094153,9.764224820846188,0.008550546149917274,0.002362015964864073,0.00532790602816905,7.75
0.08052733708070073,0.010573685831818669,9.849564261774526,0.005573646850353771,-0.004157521680091468,0.005922153737146487,7.76
0.1296134939681879,0.13357959551430493,9.767212722056843,-0.008830661958396034,-0.004704695271300691,-0.009858743122946923,7.7700000000000005
0.01446919596230499,0.11372012701443641,9.894713599950654,0.01186388364223885,0.0035279973964974522,-0.019703976878542015,7.78
0.16460616141614592,-0.15799996496400348,9.825957655335621,0.0027850683546089355,-0.0047546555500821075,0.007669633952149956,7.79
0.1814769132276296,0.013821875608439886,9.958330782245563,0.007697254427576229,-0.013640486568569936,0.0055636393247080595,7.8
-0.058018809450972,-0.003102849410237949,9.683817170960523,-0.006839451076201037,-0.003432147936548877,0.006539469139190124,7.8100000000000005
-0.15240214398403387,-0.01988399404261404,9.795648337638609,-0.00031345368502547514,0.008924072869344558,-0.006610122293455791,7.82
-0.01131306177002192,0.04768960998781538,9.809170181969789,-0.0021289905107134233,0.005638848113461602,-0.013354451944719094,7.83
0.050702947205304244,0.0820796509996348,9.933738119848984,-0.015289930238027676,-0.011589569116751805,-0.0045834135407613425,7.84
0.16102666182967793,0.15384075270495662,9.714137773647101,-0.002837127758269956,-0.005590528411103444,-0.0011060456161440383,7.8500000000000005
-0.052557695537281436,-0.11264442233634485,9.724604019219006,0.002669886276421421,-0.016312305637647028,0.012733596485809422,7.86
-0.03594315392894279,-0.08195466390035855,9.634579176864685,0.00029904179047254126,0.01319242139947088,-0.007187548193631333,7.87
0.09894265843585934,-0.07565528845064655,9.773110714400865,-0.003427663222286506,0.0007872412857839688,0.011004460299334282,7.88
0.013446764421615002,0.12169524550755895,9.801107015368943,-0.00032393849373022843,0.0021866474335600432,-0.001326374436199678,7.890000000000001
0.10898152897230784,0.12064683851329268,9.947237558087785,-0.0017870355160825566,-0.008242829331328538,0.00991523298775272,7.9
-0.05902040972583168,0.0005441619795777511,9.739816973192701,0.005313195131576205,0.007204067227071632,0.02270345344162428,7.91
-0.08761753409167918,-0.006817694480201986,9.837621076052908,-0.00796725612619673,-0.005599357509875844,0.021191002419365248,7.92
-0.19952218245155637,0.1102315578761619,9.785872729379163,-0.0066041058290323505,-0.019757463845568205,0.001992825973394151,7.930000000000001
-0.07984319721011453,-0.0216727564559421,9.79124960523442,-0.004609953637579477,0.008819501168927317,0.011067902539747085,7.94
0.0393561783215789,0.0954218343759134,9.915707207551367,-0.013142832435866867,-0.004388367002948976,0.006146255939111432,7.95
-0.060729550189745664,-0.019504975457766294,9.865622359535104,0.000601636950089183,-0.012255610148092573,-0.009925912045291498,7.96
-0.19174981114114964,-0.031192534235192672,9.800947665620571,-0.014714989007742521,-0.006663274544732517,-0.0031783431908125478,7.97
0.09316696205829753,-0.05774078866453461,9.73649625684401,0.003934917808629718,0.0005566952562962783,-0.005074483855796316,7.98
0.01112144750086835,0.0803165126097435,9.76694348120462,-0.006338407618833061,-0.00602131291943002,-0.005502281065308236,7.99
-0.01845810814911309,-0.01550385995119413,9.678966049043026,0.004848654234148896,-0.0008959515473349571,-0.0014502025909499088,8.0
-0.215720032814425,0.05205419823951729,9.877636429047818,0.0019477161688677505,-0.005427076344985919,0.013943246184691557,8.01
-0.0359795079235025,0.16520013577477244,9.941444040965422,-0.006624210210875743,0.0027191490636584758,-0.0077665379817062645,8.02
0.01572166975533395,0.0917380644028365,9.800245554844322,-0.0011653677770104274,-0.014268596470485777,0.0007981972198372261,8.03
0.10003204310604728,-0.10336324244100513,9.882412358076513,-0.0072632362836675506,0.004907943177543455,-0.0036621437995962977,8.040000000000001
0.033700523281958425,-0.10549592191849276,9.868326809865033,-0.0092786612493288,-0.0014665681667736785,-0.006153217282477672,8.05
0.17140176524883238,-0.14347616073597244,9.84481481670698,0.0028769325190133857,-0.013810824439342353,-0.015524038596168448,8.06
-0.025773260658233578,-0.07496651120510824,9.830760608293208,0.005733677390823404,-0.004010587508742931,0.0025568038681627364,8.07
0.08469007892267069,-0.07738900372702719,9.911941603496532,0.000825166961338197,-0.0017105461492861204,0.009663114630557476,8.08
0.009200587639632647,0.021432749838413943,9.757214463482454,0.004202286020793574,0.003942310638003102,0.003058532089318832,8.09
-0.003995075917336703,0.16750588134450126,9.805176260553761,0.015766835207092586,0.003189606404764608,-0.00375675808730768,8.1
-0.046763907093809995,-0.016966215748990737,9.767949240978746,0.013384487431196197,0.013942866208560003,-0.009934945338819709,8.11
0.10756570865795,0.012882640682700309,9.874029098000111,0.005696906190740616,0.0036919302641243855,-0.003747752840426461,8.120000000000001
-0.0034045722130831187,0.015689480266900282,10.022379495837363,-0.0037926334291508725,0.007795000648272055,0.009580312863755209,8.13
0.044053742151597915,-0.09782090492559911,9.856616284708945,0.017200325704092467,0.004627622593484762,-0.014358742977898815,8.14
0.09978583903404048,0.008238969012384655,9.664663322409616,0.006540197361201976,-0.014238109985098375,-0.010594792404604689,8.15
0.06582313081057521,-0.012087911698256461,9.8196978546483,0.005459359417950156,-0.01446974158361566,0.017253260146778988,8.16
0.012299657349144408,-0.12061606513978902,9.935935885230776,-0.010876089665600188,-0.0023872942216976536,-0.005556702843443744,8.17
-0.04516829426801344,-0.006288710216381297,9.631407969314024,0.010611194901005172,-0.012524966788804777,-0.01778082987320674,8.18
0.11719483516776436,-0.08300561212035958,9.792195998321214,0.009427944494516085,0.007024193040854083,0.016203439366479416,8.19
-0.0005931155039385022,0.09116812347469527,9.847191962799082,0.010791968095493614,-0.004202028035573592,-0.004295466204041789,8.2
0.061331344181108784,0.12844253817619894,9.942758835024934,-0.00419431804993569,-0.01661531253969109,-0.003164632744329115,8.21
0.016543044935182955,0.026571427478979965,9.924836829776012,0.0023029966896470273,0.006676761324957582,0.008236082538514001,8.22
0.004854621336876913,-0.014938061944322269,9.972459213621443,0.006133103782542823,0.014392360929940498,0.00906667291644279,8.23
0.1076550663159373,0.12402277236726651,9.706314534624918,-0.0032793996470911638,0.00988808084774651,-0.014117451339196212,8.24
-0.20860806090178385,-0.0947440608603321,9.90352242570369,0.01509588362854351,0.008651731918853316,0.008504442990020013,8.25
-0.05792265033501112,-0.29489377484201074,9.789787504564515,0.0031470539361858345,0.009165436988204677,-0.02268986795843161,8.26
-0.03293439145424762,-0.03969538797321617,9.6388621322003,0.005801409997903099,0.015743264648956295,0.00836192398660643,8.27
-0.07069162757476616,0.024704838994189432,9.935096648246088,0.0084088224891747,0.01522754641992924,0.00096566164783646,8.28
0.003840785549018132,-0.18064370996640836,9.831309229531287,0.004233934753988943,0.007791182893461099,0.002193269429205205,8.290000000000001
-0.017627818739822883,0.09597023648204635,9.74937828026847,-0.005367891134173316,0.00041432571034662977,-0.01941645771021188,8.3
-0.10400080131228527,-0.030688555392739354,9.808611216353372,0.012972457325042635,0.005625917882452204,0.0067554269569615865,8.31
0.10559464000116028,0.027241490664475544,9.761065820207051,0.002405552795220831,-0.015721613497929023,0.00453350679281307,8.32
-0.09088672846894888,0.0880846579214758,9.753627062685485,-0.011268041872767589,-0.01471423341927783,0.018959137599275117,8.33
-0.06848623770144478,0.18223025671252047,10.001448762539068,-0.003385431484716977,0.012149970234081302,0.001003623082822282,8.34
-0.0509514744793816,0.12419139466889223,9.734951934643219,0.005380940493290011,0.010481487896401345,-0.0019505379618141802,8.35
0.08470119299538605,-0.2492551165648926,9.734867628584894,-0.0030122334131594385,0.009467405981553054,0.0030865121113999383,8.36
0.00015402758813412337,-0.08533206561169998,9.722445325994332,-0.007723498381298273,0.0019743675761507806,-0.0018554728310763728,8.370000000000001
-0.042787637490338135,0.08834531444367008,9.924053945097802,0.005725262548779999,0.00015730263670404092,-0.0007964414367819425,8.38
0.004498070134635702,-0.11608086725326844,9.81277894207189,-0.006099212803375534,-0.01516326653166898,0.006057473749110952,8.39
-0.007245027852343273,0.04974399114613171,10.00672122309977,-0.004936559470665896,-0.018201421994712613,-0.006086335270717152,8.4
0.0039238656842616485,0.1343314844016664,9.785375003793268,0.0045192157703201645,-0.004720551306758965,0.007851331328216476,8.41
-0.08605998950441529,-0.06247325742937692,9.585991517096511,0.006151448334510042,-2.6926236058760385e-05,-0.014369367375883454,8.42
0.11723832320953005,-0.04685571513025826,9.766642930973378,0.01202593018307251,-0.006867537208533241,0.015729518756161635,8.43
0.18509346645783373,-0.17750360074552374,9.928971845588778,0.023764353534621693,0.0167982581194607,0.014484509771552913,8.44
0.04443341728278903,0.17993585715731336,9.745724234329376,-0.0002428787473871634,0.010983841310375496,-0.008337520039251688,8.45
0.14426009497100226,0.005085345590555676,9.842775810502703,0.01554481645982769,0.0006426918642721507,0.003092644942986165,8.46
-0.026607360802134473,-0.08954072175484287,9.707489643620535,0.009409137489472441,-0.006989928357813361,0.0123316416697312,8.47
-0.08639289941634949,0.00274126641096362,9.882519125857783,0.012182132856943318,0.022096346079574048,0.010409785139639175,8.48
-0.11350349905088673,-0.021329868195937036,9.790917382822864,0.01744700554310272,-0.003065953358556343,0.00014268768752074887,8.49
0.016510486574239005,-0.19637419218535515,10.051442457046317,0.020270167563508648,-0.0029410049023575165,-0.0008538045331366594,8.5
-0.09909613331362521,-0.20815759519983962,9.852353492557791,-0.01750860230559338,-0.003856355219058782,0.006258078057949224,8.51
0.04090398867215952,-0.26133724481434356,9.860204801595648,-0.016260372080932856,-0.009499747400680875,0.0173433965153568,8.52
0.1006722799608964,-0.11007042606462675,9.650046691121664,0.013475911742079096,0.004575702966895936,-0.0013053318237911588,8.53
0.2039685655333393,0.015406823390589401,9.912677265866865,0.01180304236888432,-0.01560778736574625,0.0010634658139533507,8.540000000000001
0.06161143853044391,0.11932420975782572,9.775554293127911,-0.012916342390951687,0.006588631015372606,0.015471414726491217,8.55
-0.052053085346844975,-0.05741350534489851,9.671790002002133,0.005150009383595107,0.012289529922638983,0.0048315251984134226,8.56
-0.18944935882157465,-0.08950719934989866,9.812308559353417,-0.007958261173324335,0.006437901672234042,-0.006037929675630524,8.57
-0.055792274056699856,-0.008553536423256491,9.760185870528401,0.0037209389986912174,0.004411185257194231,-0.011518448514145916,8.58
-0.0380378770965458,-0.039236356175663255,9.70173387173174,-0.0021032941985437014,0.0031272909472287993,-0.007074550739793051,8.59
0.27095804456470973,0.06971944284093459,9.872728482549958,-0.0045766735688522915,-0.0064301555944702785,-0.0015496466503878592,8.6
0.053000924690440335,-0.09853827912616706,9.971565416928899,-0.009950884517881411,0.0021126195674608527,-0.004559706278746379,8.61
0.04421699542058503,-0.03701709729156876,9.951193074492519,-0.008339546274662171,0.015707183485303013,-0.007258984851792032,8.620000000000001
-0.06739758316050536,-0.016827768162475432,9.709643753214884,-0.011071081879293947,0.007992693612157247,0.003671090972433746,8.63
-0.05960346122727511,-0.10308708298970892,9.910077701496276,0.007452695068232774,0.004190353691630727,0.0003622905660349208,8.64
-0.0784050101046641,0.17228402559132588,9.798567169197312,0.0032608765392300528,0.0016869371419473964,0.014222858453710345,8.65
0.08684889591426352,-0.016828758715419615,9.772700394638985,-0.011505984578198134,0.00537000813799003,-0.0028219383364985547,8.66
0.010817068510585462,0.050415612613590746,9.64670285185403,0.0042736839003035135,-0.0010353191628880384,-0.0071529407691750735,8.67
-0.1359286974672122,-0.23653708633415374,9.788213513316766,-0.017903635956888816,0.000566980519432836,0.01859146050748382,8.68
-0.11713997205267346,0.06706205833540771,9.804177209222505,-0.0004532398676117425,0.013948075725139491,-0.004440705648357425,8.69
0.16863843901042724,0.1480976190252677,9.83587207980481,0.0026813871259341827,0.011250909699262191,0.004863831394118937,8.700000000000001
0.016440843808963157,-0.14427853926959014,9.84209083742422,-0.008058810922960999,-0.006002098401550416,0.016605365315079695,8.71
0.010568668344048657,0.05703526716274735,9.746276529602481,-0.003836809408966773,0.021843861503297663,-0.0080549618762198,8.72
-0.010746010279686108,0.001117362320846777,9.87188337947364,-0.022826268313196153,0.010046879656954468,0.01145496955443092,8.73
0.07405816485692233,0.0333307582376984,9.675596196561543,0.009216143033291295,0.003813527181931214,-0.008603726090915956,8.74
-0.15149392255856842,-0.021694551446823487,9.737185468718033,-0.0031666734341641036,-0.0009973446893847314,-0.013897758327559129,8.75
0.05246286848882789,0.05268135321136685,9.884866847863789,-0.003035456505302843,-0.007717378180120538,0.004405024380877877,8.76
0.0095609132971293,0.21615834775988332,9.774277312055293,-0.007111986398442968,-0.0005248820118405502,0.0030746075704637657,8.77
-0.05327285408465446,0.06272016829800328,9.726674470218612,-0.006149580556353886,0.007932167013443575,0.005821130384901863,8.78
0.16426540576747295,0.0018396018381947863,9.946152515846407,0.015727130897046474,-0.009146287658371664,-0.009264678871069708,8.790000000000001
-0.0724219553215036,0.005215368445886329,9.758967658531098,-0.009327881283254917,-0.01183263064257843,0.01470668221772789,8.8
-0.013721343410871882,-0.18519913752336337,9.98343857427185,0.0008613435738937574,-0.010102237237371952,0.0032585655413009617,8.81
0.0357656669606978,-0.019389857719325193,9.763035123433957,-0.01247448786275039,0.0028462879822401237,-0.004452855233790699,8.82
0.16187019598362823,-0.03532026269294049,9.931059973709194,-0.0010740910129245743,-0.0020730985242801824,-0.0010934576309031717,8.83
-0.035758845679463025,0.017417506729414858,9.714222089218561,-0.006402607996226668,-0.009853928290279545,-0.009537563217053404,8.84
0.06150854015919202,-0.0913253403845307,9.78376217389139,0.0032165645038266773,0.010047738752068117,-0.002614913701296694,8.85
0.03339541479122533,0.2600839778284318,9.748146425835431,0.01443732228286882,-0.008420602259057153,-0.015550603476298431,8.86
-0.0752767389852118,0.14131956923359154,9.803889313055421,-0.0036667969176372877,0.0015395966384928997,0.010088852677703831,8.870000000000001
-0.05298139278513453,-0.02950962933249214,9.815049915828292,0.007429194678666619,-0.0005724582237140302,0.0004893780701669821,8.88
0.04316565821714342,-0.09464378516789554,9.799767084152299,0.00016527536359182296,0.007318068502474608,0.01580498707263716,8.89
0.22907457316091315,-0.16465822358833215,9.853727327165215,0.024250482859151688,0.0029083555869522655,0.012500269626335029,8.9
-0.058919114814837206,-0.02881053514886326,9.739419817292118,0.01407601165891967,0.0009094475130709171,0.0029473179379390113,8.91
0.009784987189050931,0.026932396592563187,9.821990547708166,0.010679038821345513,0.010663200770840472,-0.022887316821186388,8.92
0.03466361299715758,0.13759586366627682,9.772030868445079,-0.021085917307090595,0.006063412031022223,0.007920180809208121,8.93
-0.11455552313914408,-0.20660363539038784,9.815958926878949,-0.015349110988976318,-0.0005956600824542827,-0.015326494813669513,8.94
5.449770260669453e-05,-0.01283091085696412,9.843387298233916,-0.0034645580731453123,-0.0008978103417894087,-0.013368894981397412,8.950000000000001
0.037668867066878844,0.05223655922688739,9.839396105439993,-0.007074609278562397,0.002358020526826508,-0.013417454846119987,8.96
0.0045134158311964075,0.11154934134225135,9.955143602603334,0.022576303604064117,0.026973075849606114,0.012901041575852914,8.97
-0.0322094415242341,-0.07851965136842051,9.777791058140004,-0.0001320439911689716,-0.01128086837663852,-0.0029067058537119383,8.98
-0.04793320888131723,-0.017834862613795403,9.929853360282667,-0.008143593627531866,0.008859102249161824,0.016020559679966306,8.99
-0.05193721686675506,-0.147330163438051,9.89055528068029,-0.0033273204490095938,-0.005156412853700588,0.0005291145689161251,9.0
-0.016471646571073063,0.27912605987746614,9.880853353236883,-0.0038114173874340836,0.012940446380790633,-0.0016194524849812665,9.01
-0.0630101351180896,0.1481459253975684,9.832709258827242,0.01145953018724518,-0.004330732371542829,-0.00943322304546632,9.02
-0.014449508253445573,-0.08087603731161197,9.843993501056401,-0.0021761859670896785,-0.008424119037125553,0.013318907511851037,9.03
-0.02761902540821642,0.01273896229496553,9.88389555985474,0.015227741689651627,-0.003719669630648177,0.015257745740711216,9.040000000000001
0.1392798995913977,-0.1569246866544384,9.768029827696411,-0.006034343453578767,0.01324920653634827,0.0025833223954075807,9.05
-0.04799754495224855,-0.0188925483551839,10.030408099826284,0.01441834584175518,-0.011292966688229378,0.007232000528493874,9.06
0.2015097466795855,-0.15463430279749246,9.803036901000084,0.007394549300604007,-0.0022447564063066776,0.017771107070335607,9.07
0.006610218216723619,-0.005537350208698829,9.833971916538303,-0.0038233800013898144,-0.0006290952838780121,-0.009572278394046828,9.08
0.08134752949721985,0.05635595256606001,9.905237437812184,0.009158072433151566,-0.007052103439146548,-0.005576359132548119,9.09
0.08935057570520273,-0.1301102283468226,9.630948222995762,0.005853551370526795,0.0007179772523076373,-0.012837485092867893,9.1
0.05702709292637245,-0.05501908574916134,9.658798478972223,-0.008487951297475522,-0.013117750657857507,-0.013790815874525764,9.11
0.0905870158872732,0.03660962993140408,9.77939056885468,-0.0181747569388675,0.018595114212327814,-0.0174804239689867,9.120000000000001
-0.10609837028151026,0.23851824735071117,9.889815360715142,0.0025887857345796576,0.008307785349537215,0.0015080167272888757,9.13
0.003626913177512644,-0.05488617356370186,9.8061134416744,-0.0002400068183484532,0.011736706352197706,0.0005229418242031672,9.14
-0.12952194686759355,0.001224900045875862,9.685503183759023,0.0004954220464753243,-0.0014546483868738186,0.012776927998159113,9.15
-0.023768217907598747,-0.001032124745117776,9.961443063314466,0.0005256629006756049,0.015671016726356093,0.024825165427687628,9.16
