ax,ay,az,gx,gy,gz,timestamp
0.0804373082961999,0.04871673901270845,9.596031632552975,-0.025423812622223787,-0.004359576388336412,-0.009877213877949497,0.0
-0.08337961444136954,0.011637749428318744,9.608941006298604,-0.009249321478322317,-0.0007521955273497662,0.004205829384446586,0.01
0.2445298749062276,-0.08118886882540077,9.840631067653794,0.0020577362809478263,-0.004374267354408852,0.007180771158991786,0.02
0.059576685554511656,0.01635713685077366,9.829392906520498,0.010132755695782085,-0.00685951638642375,0.0018274940497548986,0.03
0.006960388435688025,0.05395498088819256,9.949189336177385,0.009422599541753129,-0.016815439382103687,-0.0038084256360409506,0.04
-0.09748860049764074,-0.14399351111438674,9.735359592054715,-0.0011857896069621787,0.011075235395111734,-0.004258548294513815,0.05
-0.19481778223414348,0.08607883407402603,9.853073120091308,-0.003579529718168324,-0.0013936206547261341,0.004693187119840139,0.06
0.03305137486524486,0.02653426990451681,9.807251768609369,-0.005471202126619224,0.010587637965698247,-0.00205444880217673,0.07
0.03332405275670197,0.10371040421762089,9.704642200572502,0.0032256951860523174,0.009812191491546144,-0.0093251715920728,0.08
-0.015053778427214039,0.06790699098534059,9.92109093190349,0.016530687913160466,-0.0026116561073165983,0.0036933132825471564,0.09
-0.002601753455300879,-0.0806008687237913,9.679847220049371,-0.006832514709367627,0.0013109830166146746,0.006155438236712924,0.1
-0.01018035819421712,0.24756459867669173,9.75463214536416,-0.007923486673922113,-0.0015711915066518901,0.0013033227111215761,0.11
0.05073079925350648,0.06553534538811927,9.589944358615233,-0.014445543347377115,0.01085720434004616,-0.0037068180991049627,0.12
-0.10079001247779856,-0.01609269348357829,9.86890222767666,0.019416351158520796,-0.02322549082564457,0.0036961282949619905,0.13
0.042500888039111846,0.1419594501325375,9.921276597076293,-0.027352480695459463,0.0027538232646941506,-0.0009881492570354116,0.14
-0.11067790530815978,-0.0015680035123774748,9.867734968815801,-0.007416985100565272,0.0029655537240962614,0.00801690885985034,0.15
-0.10949316876993587,-0.0014979865432170232,9.805904396675368,-0.0012703665035851614,0.007126094719379786,0.0007472906864173075,0.16
-0.07906777003440935,0.07480706555227845,9.81915179150617,0.0026519310118685757,0.009823175109224893,0.012309725773779699,0.17
-0.2527240026844521,-0.15490470492245723,9.922230202548432,-0.0009071937951032658,-0.004284977781917636,-0.0015206194729130793,0.18
-0.15723291055471897,0.06493400212318846,9.807065174052351,0.0011857402331636225,-0.0050368736411212645,-0.0054867620907867185,0.19
-0.003886927401842976,0.07465588661384198,9.79708500612401,0.007362139489106664,0.010369228808486414,-0.003763190796438758,0.2
0.02229818747851016,0.08114731100167809,9.846348540885622,0.01056765986856015,-0.004958269694172814,-0.00260330939987408,0.21
-0.030782606478718184,0.15232409447705095,9.5672325404815,0.004047211572845315,-0.003442065914138656,-0.0023863507530281014,0.22
0.013083753883596984,-0.043190196767198784,9.834643025855378,-0.014172513759305538,-0.00590298215317793,-0.0047599203441695695,0.23
-0.020045675256018827,0.014119388046084792,9.702212148281678,-0.007591660883650358,0.003015983126753556,-0.007144949625977054,0.24
0.04271168487764499,0.02530283143764758,9.969297486117293,-0.0011707040000125833,0.0019227427000915642,-0.014509754808069477,0.25
0.08415453714397074,0.0004615115633358183,9.863098843003641,-0.017417610602827618,0.0034818837325560955,0.0076337429892148504,0.26
-0.1631934034320869,-0.04242669609366732,9.717051359181777,0.0010800281202057692,0.010422536958814163,0.015259967010429075,0.27
-0.06707181613334189,0.11132953066120335,10.030737768575007,0.011988427794863475,-0.0014740217125571837,5.371888806139305e-05,0.28
0.11727439029189922,-0.12218416580217575,9.70376381093595,-0.011653548920445489,0.006093210915857525,-0.00996603547929482,0.29
0.251240268985376,0.19640081754106398,9.706888187149852,0.002780897146347781,0.006156460110247126,-0.011817185804567571,0.3
0.12268981799509732,-0.10785077386264326,9.963799387166468,-0.00790776256676152,0.010347525510583344,0.010764107638335619,0.31
-0.006621447887457683,-0.12507759018408335,9.930823668923356,0.015167388073755258,0.005503535565999426,0.010484892749239394,0.32
0.19808106659640629,0.1712063935135787,9.824394512708214,0.017914980303733938,0.002908202477389795,-0.024026234910577635,0.33
0.031426000657762694,-0.1202155873480853,9.746022929337613,0.022749523046233917,0.006939140146848893,-0.008901671338083504,0.34
-0.05033939394727352,0.1692304503964024,9.824865662249913,-0.01518582479208996,-0.0011737287240580095,0.02095796087010734,0.35000000000000003
0.0867188389900646,0.028424340940738504,9.801520049205978,0.0012821188120003088,0.0004231978774187476,-0.01321454888487483,0.36
0.22056833389761343,-0.006541844215575849,9.823555380642958,0.013885126521640055,-0.0004532718964652194,0.01405674120001524,0.37
-0.008307463782416176,0.023398772835051235,9.804184617982216,-0.006142600252526205,-0.007044695784316104,0.015580526734980402,0.38
-0.07285200010919667,0.08525588164099909,9.821638167820808,0.011002532298667173,0.0003805094924807391,0.015896933093535622,0.39
0.04617297924207753,0.060260032335313886,10.009858493578166,0.015722572311076637,0.023215171751681293,0.005553755431762266,0.4
0.03504557231384723,-0.16224483321168626,9.75890548445481,-0.0085132053770632,0.004320436242433093,0.02016940974513568,0.41000000000000003
0.02492527271416396,-0.043272346018454706,10.004849509049667,-0.021132130557166433,-0.015744642896178277,0.005003791749064033,0.42
-0.08651274955458743,0.0030579353120666845,9.624953792884504,0.01440531967465147,-0.003927979172967599,-0.0077982815175206156,0.43
-0.11645808059521645,0.04322152311037823,9.63066963196598,-0.002983227169422433,-0.0028846955266439663,0.0006016903723995728,0.44
0.13497633620178764,-0.056543170364332145,10.007032420389237,-0.0060691080801460575,-0.0009302604382711735,-0.0036466995316189357,0.45
-0.08490703853076181,0.28091980178891285,9.677923530305504,0.0017244058307348748,0.0028243131776994022,0.00758414359211505,0.46
-0.02447870900783161,0.023075371933410714,9.625251826737781,-0.01438360537245516,-0.017647128621168438,0.0008830951837094646,0.47000000000000003
0.15568029790703175,0.03526616209303112,9.965681069851364,-0.012790264917351362,-0.02270729042484069,-0.001614068843574463,0.48
-0.008081327219859262,-0.003075406081760764,9.741747556224576,0.0005492181913346968,0.009062795751938291,0.002769160724577492,0.49
0.03751375481705703,0.03308730783015983,9.795021325482688,0.015416354050360853,-0.010020274335043948,0.0046554419207479394,0.5
-0.1517116162005916,0.027591883197239514,9.852940464917587,0.009476973282433625,-0.008278899059029217,-0.011951967133700135,0.51
-0.004304786419924128,-0.06038069459417688,9.789993199151178,0.007595990956895823,0.014630020366334167,-0.02145280819319794,0.52
-0.04602337749628801,0.21190053514830176,9.745520179514314,0.0007895007007800702,0.001936877932691924,-0.0006821724723851144,0.53
-0.07716146321190076,0.08604571632098763,9.899476982135516,-0.01355851278197134,0.00518851980687786,-0.006499404125262239,0.54
0.15572636015559915,-0.17692635886181324,9.71880233272149,-0.01418901330228334,0.008952378835472837,-0.010994858131756928,0.55
0.051764551228950975,0.09217157314745525,9.792960502694072,-0.018839164099362524,-0.013377280350784405,0.01064807048579783,0.56
-0.06683504171190743,0.1526432927837052,9.850184319620137,0.011349717293238684,0.004844087970999801,-0.002631399951842492,0.5700000000000001
-0.01338894635996383,-0.11164504307469847,9.718021629149657,0.009383313613639019,-0.0011434884861086089,0.018993518605998003,0.58
0.10478422732266873,0.07749799321619157,9.938574262380758,0.0059097057648268905,0.024219232351131912,0.013969884870228037,0.59
0.16642497111379245,0.15845944373000018,9.873592689261812,-0.006189586346204522,-0.010238671108761699,-2.7328156182210804e-05,0.6
-0.06206675254376212,-0.08421082003353225,9.929908620517015,-0.00813838504401328,0.013539863568368065,-0.004480652341976071,0.61
0.005411026220635728,-0.015344690360967146,9.717658033384884,-0.001635641728113183,0.002804694569340319,0.014222797207555383,0.62
0.17979041244577573,0.04298117517182531,9.75504219511967,-0.012013125785082917,0.013540868450634281,0.018235683093640927,0.63
-0.02080276730966227,-0.028724729163319525,9.817010328979956,-0.015672356810853626,0.003656311589252716,-0.0028776509595547987,0.64
0.06259331872053953,0.07133419758224589,9.85904335805755,0.008570344563785302,-0.0012085451767605564,-0.009590215621399332,0.65
-0.07512431934189966,0.04381403622022126,9.749624573028507,0.003543512186955384,-0.002551148913463929,-0.0023105854626927188,0.66
-0.002563167277247598,-0.041859376929318584,9.755540577280911,-0.002059273363310058,-0.011403031957513455,0.012403302000453338,0.67
-0.08434457146132053,0.16095003938967664,9.83234637173735,-0.002019124315452467,-0.00903262776702807,0.006067576938830977,0.68
-0.1162555740945691,0.18364087584577427,9.716925742817683,-0.007601819202384509,0.01238696849889527,-0.005748774397731159,0.6900000000000001
0.12511604736146495,0.1064954422872549,9.844693841049246,-0.0032132403716385468,0.002932384666175395,-0.001530154203117827,0.7000000000000001
0.027364636558695567,0.04801559003552677,9.88103614831138,0.00038882102773896485,0.006690231224121415,0.010080034627218475,0.71
0.052638364558160455,0.1458610896133072,9.915626934028117,-0.00037246012235036283,0.008785709390022859,0.0036582935598755153,0.72
0.17100713496920944,0.002713423399449858,9.965211223914265,0.0070708709544234395,0.001276994735761622,0.0003290622204014825,0.73
-0.08826611649849436,-0.18090605665664797,9.784780348635117,1.3234354150754829e-06,-0.005543470646616131,0.0068131120473047604,0.74
0.0997133037670055,0.003951418582707562,9.6132074719282,-0.002506159127512799,-0.0018590402682077869,-0.0078112719679013795,0.75
0.0026808099360352976,-0.14044577396055166,9.923289972621433,-0.002011735505630526,-0.004894153228994896,-0.01145243451975187,0.76
-0.18993986835127075,0.02296454921418451,9.728200109005325,-0.0013828319897207296,0.019759033870034495,0.013375803745950234,0.77
-0.032563354467136756,0.08638299591889861,9.719543570573235,-0.0023399858704480406,0.004702078481482012,0.003319138725619935,0.78
-0.09070709239070875,-0.024457796588127884,9.837446365166485,-0.011022777216648042,-0.014265877833356344,0.013066707561401738,0.79
-0.03415509524137341,0.025561515733405062,9.697817942422333,-0.02394530080676655,0.008785291886892465,0.012406342336085585,0.8
-0.1935432082093621,-0.06319573394596086,9.839593663118594,0.011065702021277024,-0.005579998066181075,-0.017358771483165825,0.81
-0.08150031839966632,-0.005132889714213329,9.708378133328566,-0.009899530048680983,9.055398994572846e-05,0.011229867952336223,0.8200000000000001
0.11671721713606509,-0.10836981832387454,9.89793007996276,0.010577343425722831,-0.010038094759600871,0.008534734234340103,0.8300000000000001
-0.057288955374372556,0.027948618172990543,9.759558057245329,-0.016779597393959244,-0.008221725148931294,0.013332469192775726,0.84
-0.05039731944096894,-0.14923252624336036,9.673913291222856,-0.01244457002593813,0.011854808910708193,-0.002527248216114219,0.85
-0.009397078564375235,0.04434762804349148,9.704846211508038,0.001339120197721145,-0.0018518048174436849,0.00779578710069545,0.86
0.0809452512798447,-0.022548182172731933,9.53765740344303,0.004960849170643491,0.006053888505352583,0.0007018903481019824,0.87
0.020619458550448885,0.11773484947182807,9.865791975857622,-0.015958829694332044,0.0008009341014575914,-0.005764236574673845,0.88
-0.17372415675763994,-0.23001452933142194,9.686414214098146,-0.02341216390694068,0.0011679250086324706,0.006599567885055756,0.89
0.13854706530047095,0.17442465047556793,9.86288573298138,0.0015019392894589912,-0.016449395543604507,-0.011716279863215946,0.9
-0.10773744281883907,-0.009650894965335765,9.780261168932899,0.006055670273711089,-0.01486516526518869,0.0028804641091803424,0.91
-0.03890005567041401,-0.050089074974323224,9.711553481608902,-0.0021070139581457264,0.012997354810300885,-0.022301809726087383,0.92
-0.013005626772335603,0.11264651373242224,9.942180624074712,-0.00034941115042683943,-0.014609773884911947,0.013180508192318566,0.93
0.021509415970145555,0.15577620620630828,9.764545896586519,-0.0014792856025404259,0.017746973411544426,-0.002710558148410682,0.9400000000000001
0.11783224918937348,0.06133921610149741,9.675618964464103,-0.009337128237140745,0.006984144835628858,-0.009263987378210962,0.9500000000000001
0.00929389844086735,0.07315497072547165,9.694792952510657,0.009125919792431941,-0.009251655150980339,-0.004495613871475117,0.96
-0.06142818880113478,0.008044055966631746,9.793195987150678,-0.0032427844968273395,0.008484165300622603,0.004007217704880748,0.97
0.006443789941431368,0.009149710267957484,9.751416435920957,-0.011430482803717073,0.0069141619710486844,-0.007892923408515575,0.98
-0.040587106714680174,0.09302719004602904,9.98826248897307,0.01228664653787772,-0.0046988911333651455,-0.008251156390138374,0.99
-0.03567781650716843,0.006185360104760497,9.911329549195655,0.006541472170964702,0.013508989835091084,0.002250807994225147,1.0
0.0070980113549077295,-0.018043869335498022,9.802107051859299,-0.004109604034101656,-0.00024709534331488815,-0.007459339299013453,1.01
-0.018413468552081893,0.12267624189832055,9.632237924764642,-0.005658845618944178,-0.00010485856222074943,-0.0029889592968412077,1.02
0.0573420562594018,-0.0016448209447908408,9.910451658461865,-0.006723303170755784,0.008865915488503196,0.00028979261608238853,1.03
-0.13165950916020333,0.11133630017702423,9.874187020233895,0.01789148083265202,-0.01044472443262468,0.014214495358672467,1.04
-0.24522869792366442,0.010234158955134357,9.715039341265769,-0.021408978225275616,-0.015847421962207536,0.0190546728421171,1.05
-0.20924596426147996,0.09626534557762007,9.709762102207991,0.00464482910920777,0.0030126036627718456,0.0004144711770018804,1.06
-0.08817825565037973,0.15892524312916897,9.90780827592502,-0.014084297741075115,0.004929869713603374,0.0007816032105825923,1.07
0.003908956436949169,-0.23127900109960764,9.752616173909695,0.012263206854330862,0.024521353603833056,0.01731461490407956,1.08
0.10631175012950751,0.09258968633447992,9.711157460081282,0.0010920232782485456,-0.02844054578292065,-0.004922099917801583,1.09
0.07942798599609385,-0.0421861574893507,9.713589687755444,-0.005491595436270829,0.0066274849555988296,-0.0026978971837065984,1.1
0.2282712010942016,-0.10212458885670168,9.806209366440754,0.005459512298323437,0.013086285294929379,0.0023933150733984635,1.11
-0.049673702429406,-0.040699996447264554,9.759541733375988,0.013285924131510503,-0.011520523144909547,-0.004658131289389932,1.12
0.03835156853164413,-0.21825790710346676,9.888269728893789,-0.008960408102177414,0.005286509718444375,-0.011810087490092038,1.1300000000000001
0.04492570449698816,0.023139060411622447,9.766700432640707,0.017957704345668814,0.005798353978351821,-0.012417079308322605,1.1400000000000001
0.11116985682937602,-0.09055156594903395,9.825158337306947,0.002362361901730459,0.0019310500182655491,-0.008242673735763154,1.1500000000000001
0.07728473461630814,0.03983154565922317,9.832949735012582,0.015270515852824618,0.011749442881549428,0.02800825251827142,1.16
-0.1648767146123864,-0.07740621781240774,9.597661958412663,0.005315349135951608,-0.012875945256766913,0.018043247493814873,1.17
-0.3479554733910011,0.006296784046701346,9.801019814670042,-0.006507946659433021,0.009577098547539405,0.009143113434469509,1.18
-0.02326959785465917,-0.06414217243946889,9.809986776251638,0.0012969351942767305,-0.008808809711304084,-0.013208276639564118,1.19
-0.022138250485913256,-0.14669389473327896,9.67122039388794,-0.004188891925310457,0.0022272620964364862,0.004492006369158893,1.2
-0.16283701706373718,0.14156511706381542,9.930637746853698,-0.009983393090983153,-0.005069556506502454,0.0028346858368288323,1.21
0.07769412182511137,0.04935516358454349,9.945990576149606,-0.0007094993319479465,0.005391766529921332,0.014880351013003102,1.22
-0.08438277419728255,0.039928641212501365,9.776269698906637,0.016151696560446103,-0.0117154044954524,-0.0116717933050849,1.23
0.017800533491210416,-0.11286483295290162,9.837252109221067,-0.007297335798064281,-0.01204056459015836,-0.010633727828692405,1.24
0.08665106225927878,-0.06229984464146855,9.852212191917058,-0.014463841597947752,-0.006439557595189966,-0.011778955208221262,1.25
-0.022330173743371654,0.06059338253354614,9.875433523768825,-0.0022951615283721568,0.006428522907397367,0.0035818015060914018,1.26
0.10548451419710014,0.0173844600455786,9.948727039647778,0.010861840253900813,-0.004065873220621236,0.0074322481236174165,1.27
0.11825764076659012,0.1681660751542886,9.958703869184092,0.0025726380101990503,-0.010036970781887304,-0.004463822941508155,1.28
0.02495579528505617,-0.0508788382822225,9.810489584373059,0.014618024159297624,-0.005870227218854916,0.003673080067435056,1.29
-0.19438344367516752,0.15549796194381027,9.812698267800648,-0.010184028663314002,0.0033620646722092684,0.008022497965704888,1.3
-0.09822838073945857,0.08229764338012557,9.800033977651346,0.007168920219744122,0.01409162497948821,-0.0003218993041167937,1.31
0.029645246227132355,-0.09359585204484032,9.898571490875353,-0.013099233354031948,0.015236135924137984,0.014331528744439602,1.32
-0.02900688714508526,-0.1808841546598233,9.747257536243959,-0.007293186551380996,-0.02338364508404784,-0.01468091637095315,1.33
-0.1379077289397078,0.041090607421245096,9.683081813283707,-0.010149093402722744,-0.0005386096538936967,-0.011682397946443348,1.34
-0.1860730522377196,-0.12259512254739169,9.863999202869786,0.00930317421679693,0.00534503958335663,-0.003032947951428809,1.35
-0.03929534071877431,-0.020815671904857502,9.812783209892446,-0.0009681836409532424,0.017140269437116194,-0.008023890809231144,1.36
-0.012025989726371169,-0.08261131995551718,9.75195873109413,-0.007593409610803058,-0.008526617190403898,-0.007956305850010751,1.37
-0.1784639735304992,0.021035831998115068,9.904072602054116,0.0011017207650861852,0.012206533669378367,0.01333139552631235,1.3800000000000001
0.2105349540667723,-0.04791227464645006,9.822661069166905,0.017695542363048683,-0.011606225266487795,0.011714088716762975,1.3900000000000001
-0.06332684028408873,0.09747310808334156,9.947271911454934,-0.009775225088741693,-0.003131667805514981,0.0022905638936706572,1.4000000000000001
-0.08461672445184236,-0.029908856431222916,9.707135803780572,0.012294952485833734,-0.009484981678357143,-0.0074127859599852465,1.41
-0.13865193997418376,0.15131643994082936,9.813854458892406,-0.002516922129772152,-0.018247533108964997,0.006132716660502346,1.42
-0.13151704218592042,0.06175112929444587,9.854854878179468,-0.014053103561856526,-0.014201971777635125,-0.007019869165416799,1.43
-0.04223097130713788,0.015062615257625365,9.895048875812508,-0.02826459039295311,-0.005598137331473716,-0.007618809378169026,1.44
0.12236696278616531,0.0843368488168088,10.011644249513436,0.007852733332965382,-0.015095625514721201,-0.003909844959192449,1.45
-0.05944433080569315,0.056616270521870064,9.97596646769598,-0.0019404269532787967,-0.008931642267670022,-0.001823434952127116,1.46
0.21758041695170005,-0.14515883484963424,9.811358968846589,0.005425596091117238,0.0061551097798442835,-0.005939527700031103,1.47
0.006926503844373657,0.16639579286537165,9.98169482699785,-0.007445283056521645,0.0006650787094474275,-0.0015547330975645987,1.48
0.13730286944399447,-0.034262721142758225,9.712986907849135,-0.022725390931593554,0.022002314908358342,-0.005638459666891622,1.49
-0.09921894290967855,-0.10976995475899168,9.83620268868152,-0.010527516209972878,-0.005916642544248111,0.008776773449228673,1.5
0.03321825576034686,-0.016249812199579255,9.79004307067141,-0.0037253779766982967,-8.023779007314825e-05,0.007994501283463393,1.51
0.027516352072849345,-0.09612648316079792,9.79313412095984,-0.012533359361068537,0.0015606104980279533,0.016134680725387446,1.52
0.010450637569997041,-0.0324824546198051,9.770539626994985,-0.011960754528950368,0.010139348048077932,-0.015355684902699212,1.53
0.04817480869943638,-0.11977406834176432,9.876275502691527,0.010707653119304104,0.008131718280316296,-0.0034095444150200756,1.54
-0.03933366285526151,-0.018112928221485795,9.597747999907925,0.0164654351864491,-0.0011985593632460143,0.008142254866193611,1.55
-0.05073664838579572,-0.0047134342091460345,9.621901978170172,0.005916551591783665,-0.0010137915767342582,0.005778051410212382,1.56
0.12834804244173434,0.03337328013279262,9.885662963742872,-0.02305992447326415,0.0015056590293054317,0.005565838074672023,1.57
-0.027178603197326234,0.07289158592951848,9.793166946052672,-0.001518373110047551,-0.002173603160542851,0.025178507167832223,1.58
-0.0029036477140151093,-0.054359253718465984,10.003264917194283,-0.010775540391891556,0.004181216856618145,0.009754853048020257,1.59
-0.1855765993163478,-0.2633183551023237,9.859470546167328,-0.0009466399376486457,-0.01916874733788227,0.0005731260907042581,1.6
0.039606477786820464,-0.040887130102281406,9.795001410502808,0.006788399306792668,0.013684532167444481,-0.004859483084009817,1.61
0.07012465152826428,-0.11314692911640976,9.797226355607943,-0.01029851003841009,-0.002922984674618886,0.010349764848224561,1.62
0.1024462901162489,-0.07051268674705409,9.793417662862794,0.0148043145383943,0.009667543175622916,-0.0019253609029652194,1.6300000000000001
-0.1322257126020658,0.036951658272814,9.948041854834486,0.00468595227771767,0.009150996898992778,0.023232001991705872,1.6400000000000001
-0.13655151966490825,-0.13816149983152912,9.991773769172733,0.008118549518516103,0.005028868566868528,0.006030570097500771,1.6500000000000001
0.04122798600802093,0.14245304792265254,9.863119802787475,-0.007793265640269985,-0.013953796499006242,-0.0005602048129807655,1.6600000000000001
0.10951418283317378,0.07143990303146489,9.72751459608714,0.001286538269122838,-0.002692978014341652,0.006510259894571563,1.67
0.034733430735538744,0.02761263433840009,9.894205364017127,0.004158385417929317,0.003120641124065699,-0.006898450790372854,1.68
0.04483805420006061,0.037446615965301536,9.652920357450087,0.01976019820602351,-0.0017279099849792602,0.006388241581513266,1.69
-0.20042769291029316,-0.16784849453980802,9.802667788446866,-0.0012758740380083807,-0.00927612086881976,0.0031920352237124563,1.7
0.034218988299421174,0.0310485162362613,9.989174763070146,-0.001511895197343148,0.00870688845229142,-0.003382453503789768,1.71
0.048214711661497475,0.018562119927177927,9.647767874197836,0.008046964521676686,0.013460295860237137,0.004457242040599844,1.72
0.02889892128889466,-0.13081742502599575,9.897534241115979,-0.011725985185156745,-0.010715409947483127,-0.015440761772138089,1.73
-0.05180916803189557,0.030329957416976368,9.82902330201379,-0.009098260222014435,0.006022230116644501,-0.01131597057400941,1.74
0.09541890979617718,-0.05203652078046239,9.804758412776295,0.001602266162660309,-0.006378577035029498,-0.009783895061860807,1.75
-0.10433374315122233,-0.007563217624995149,9.798788163694153,0.001318288760350076,-0.011314923202047363,0.009907201381928007,1.76
-0.04389958518101114,0.033997737696268765,9.856945548075698,0.0070738541702549855,0.0026594074113114614,0.0035997566456722565,1.77
0.06762478196905126,0.00970418482723933,10.009151729091672,-0.008381253020319359,-0.0069871500957825825,0.004855680638036923,1.78
0.04963668575745093,0.06980447616867234,9.756144157383343,-0.005230530239300531,0.004616380351329365,0.003287655450702327,1.79
-0.13981104647360218,-0.10863961975169033,9.795743387616515,-0.015995393706289676,0.01748274074123603,0.008033056801605874,1.8
0.06993049059704616,-0.029991917207841293,9.717672330489322,0.00011087199250689888,0.0018161873669221265,0.013257931515257343,1.81
-0.15602086772182236,0.027389662469468046,9.779940797245043,-0.00703664661049517,0.0043117489168842974,0.018666538787890274,1.82
-0.001072479006025109,0.020511799803226566,9.843330344306276,0.025777407717315796,0.007534818341207243,0.016623657405551478,1.83
-0.015449931555102797,0.09852452277312168,9.798029735808154,-0.001957832377732732,-0.006030569321108196,-0.004632864391347144,1.84
-0.0034355766374135257,0.11701338751477919,9.9224855711625,-0.014145061563730877,0.01997640458348242,-0.009980913712331244,1.85
0.07070672541341327,-0.03934640040532924,9.861555535188035,-0.004828398891042587,-0.010481579963344572,-0.013747935894594925,1.86
-0.06662479311243648,0.01940954686714689,9.829308882629014,-0.008982865716945829,0.0018954814103738582,0.020855319030234486,1.87
-0.04193033966919004,0.057139697852107874,9.833278079729396,0.001993939143732639,0.015230073106920214,-0.00843544414628302,1.8800000000000001
-0.140318723553482,0.09597029775007959,9.750455201693438,-0.005898998933412046,0.009866784428592467,-0.010071725088899863,1.8900000000000001
-0.10661069964764597,0.14191528406149026,9.717036412701939,0.006626903522810057,0.015552972477297273,0.003435629297513535,1.9000000000000001
0.011598638061313475,-0.09470371539272589,9.833147336586062,0.0211613386825177,-0.005672787186993429,-0.00837061337584089,1.9100000000000001
0.1568040764395241,-0.08617456359550651,9.948762266673912,0.022470657040052747,-0.012013067621411043,-0.018962701883589606,1.92
-0.03709918805859886,0.14453508287369218,9.841983465497142,-0.007390913912147423,0.0066913620354735895,-0.011724237888041073,1.93
-0.07330481721236978,0.1667892446511159,9.875241916635932,0.0015947645337950741,0.0105771629384935,-0.0011529949708895,1.94
-0.06149445580458033,-0.05436437284867526,9.92851080390386,0.0017406145605497808,0.010929802996327965,0.007601453051031103,1.95
0.0566586895859833,0.02378561939764594,9.649096430731683,0.020442766590020558,-0.0012810804193793008,0.006169115182385681,1.96
-0.09993713954914295,-0.04459467382474242,9.837455508483464,-0.002224083137916302,-0.010013133149959046,-0.0011110291682032386,1.97
0.06233429178922665,-0.08255195998147398,9.815154693589603,0.009058519588352942,0.0008536872439962239,-0.012575806807614194,1.98
-0.12828847401262203,0.08890048725810162,9.763331361399471,-0.0011398381922475061,0.003270266291749713,-0.004092754943312413,1.99
-0.030890882738006522,-0.06213624519359198,9.812084149253536,-0.0125017456242915,-0.012353516094214794,-0.014966230090642373,2.0
-0.20843783532980745,0.2572937359078978,9.905455231363089,0.005026429225918822,0.006534464628342605,-0.011949259372794195,2.0100000000000002
0.04204551092557976,0.054912856574444606,9.9162210062953,0.009476689322317107,-0.009915525301754198,-0.012529082227291662,2.02
0.10615556478469533,0.07951255858712249,9.759750970069394,-0.010316670096390632,-0.01858550542506203,-0.0014133194862354594,2.0300000000000002
0.005758566974007191,-0.008516782102482747,9.793329422077562,-0.00282057767061531,-0.0011732937205811316,0.01891769644145558,2.04
0.026828699688375063,-0.08848696197030463,9.49129981788365,-0.0055957950360527595,0.0019163090574599243,-0.0018334709268195148,2.05
0.12181754138247239,-0.08404281406521152,10.01270301753502,0.01070601575048152,0.011189267409064032,-0.013351765432329979,2.06
-0.06270234437327576,0.015571951573104703,9.710918856075779,-0.005292878562728798,-0.018916741436444444,0.006223565986491939,2.07
0.09039825612296071,-0.15806435473315553,9.764108671815722,0.0043564689795001785,0.015336069069441927,-0.006266608148533375,2.08
-0.06883193787075996,0.14209708865010412,9.762574448156302,0.0007788452912464404,-0.0029285236284661113,-0.01342831684944465,2.09
-0.0856101950240787,0.17713347990214492,9.76247181216748,-0.013273126758505047,-0.008304311630335412,0.002452633553549823,2.1
-0.07123172449794472,0.12394747549801305,9.941536108852278,0.014143521916327973,-0.0028419233796082833,0.004829298280314613,2.11
-0.10096302917162758,-0.0558847230317778,9.899846142916386,0.009291413727284523,0.007342559948935234,0.0018888489604616558,2.12
0.24884820041822128,-0.060199999216848356,9.757123291402083,0.002401084098376647,0.0117857001896135,0.003353209674848243,2.13
-0.00874374021814133,-0.03204965286086443,9.927206283398052,0.027269327938582767,-0.015547794683454191,-0.007051476565374937,2.14
-0.06298398820492467,0.12076558301852303,9.84438231569867,-0.012226307601598341,-0.004176468208514432,-0.004313099062465718,2.15
0.037270559997708,0.05004584563191905,9.701380045212911,-0.01807753451208006,-0.010480105084309486,-0.006600037689892647,2.16
-0.03710896027756937,-0.010836738396631953,9.938129516729575,-0.004131365409939107,0.008267299198992533,0.0070622316535120565,2.17
-0.03316073774315447,-0.03351365266020887,9.78829807797322,-0.0015915879398051226,-0.014671780133438537,0.0013431522919996905,2.18
0.011871912159009602,0.043997107640863835,9.853993218233288,0.023147385528195712,-0.0064420470766612704,-0.004240189122991279,2.19
0.11644556189748384,0.1135128582392696,9.815296277807324,0.003843594753407346,-0.014392324099716395,0.0024827252994670587,2.2
-0.01817784337583247,-0.05271649744351112,9.629859024028343,-0.004323291279746404,-0.0025365356125214597,0.004542955085763774,2.21
0.02253334400025464,-0.011569598314678083,9.72860095029786,-0.013964040247178155,0.004405410555357546,-0.0018033966809801942,2.22
0.05919731039094281,0.15104463376498048,9.763494311596707,0.010835477770715193,0.003138056712336933,0.009331070831658753,2.23
-0.14393813896778557,0.07307687838568998,10.078609206636541,-0.006755316053775954,-0.0023894289614103978,-0.010337108990393855,2.24
-0.17262562205230325,0.19784007453729457,9.776475552337597,-0.004790512319695171,0.007229606551380551,-0.003603174448622664,2.25
-0.06984893105968402,-0.012625476158993246,9.772725000538264,0.009828484171836351,0.010211911382749834,0.004776921566993954,2.2600000000000002
-0.07325867148882578,0.014543127404111353,9.914582939937961,-0.01818739570380052,-0.00014269096731084005,-0.01611608657763371,2.27
0.236071588412213,0.11854434847189617,9.854523574079996,0.005366662731764979,0.0010647732038554633,-0.005483335224294127,2.2800000000000002
-0.05722843201132141,0.048159274402800996,9.828629453595385,0.007753276125129568,0.020002118318087257,0.0005591997280315188,2.29
-0.08374554932011082,-0.19610420395290543,9.93843871092088,0.0015976984109052662,0.0027182365767922574,0.003089274842131568,2.3000000000000003
0.06255595652057576,0.0027406975710904382,9.706827816475766,0.002770057708409986,-0.005251631920220248,0.007259537596698316,2.31
0.04421259400175662,-0.05858536382968326,9.854711293342309,-0.018438715760973168,-0.011308554015704686,-0.004171000908794586,2.32
-0.05701970956749382,-0.06248490136715684,9.899779635734976,0.0051706901908387315,0.002011561632219103,-0.00707286323759247,2.33
0.13630957772330543,0.06502521504017217,9.718938746635835,-0.0066097015088430865,-0.007786836734185711,0.0040959947066637695,2.34
0.09565818859211682,-0.16328612925694372,9.78478200159847,-0.005415634935142951,0.0098480855250204,0.006906407511443159,2.35
-0.11176562375188193,0.06096605781910457,9.848770312209362,-0.019687049990388613,0.0015705388192508234,-0.0064616226538341875,2.36
0.09357509508086782,0.007416993284446802,9.777559262264198,0.007367379350557644,-0.005058292313379184,-0.003263059895352523,2.37
-0.04106262772945259,0.016714551227488224,9.824372505020735,0.0027405377534264353,-0.009962862658973509,0.006109518843857595,2.38
0.10865279538472382,0.1573557965691211,9.73777353651693,0.013546643470360076,0.0003960992763334228,-0.007629728233128003,2.39
0.011504039025224408,-0.16693833418337978,9.839537772631244,0.01120317571747222,0.0012755516485289035,0.01083538546163989,2.4
-0.02318582189258482,0.17209852795556058,9.834617109512914,-0.005248705958091917,0.004636151986031205,-0.009710454100351694,2.41
-0.08476391770446189,0.0015424745302523811,9.676083827005355,0.015306620060934202,0.013045755327963133,-0.006784521520520475,2.42
0.13484945618669306,-0.041122392517527785,9.767460252820639,-0.006240572919072455,0.0013861071799926075,0.007859860587110933,2.43
-0.032002461875380195,-0.012273197004002177,9.885476747096838,-0.0019671591217235657,-0.0012575267717125397,-0.02325902109740403,2.44
-0.025189600043535307,-0.05969825259827119,9.853082646170012,-0.023068785952864445,0.0023712531842077895,-0.0023818119366835395,2.45
0.3250332414133556,-0.0037718098492972927,9.893743862494768,0.02041780817949396,-0.002913823701029351,0.015544490451919673,2.46
-0.1042599508242643,0.15611345372902874,9.620182354837407,0.008221849629673785,-0.005602602177541153,-0.0011235851721837528,2.47
-0.09925737031766492,-0.05714433562060078,9.780092378353045,0.0012410890669691363,0.0020015932713255773,-0.005679730686690945,2.48
-0.08883427628184591,-0.1819004446979293,9.707352954430856,0.008372913023559664,-0.01017292003360833,-0.007986722348518424,2.49
0.049033519760401864,0.16855769203540552,9.882507125711927,-0.004366915414297217,-0.013999272942231475,0.002713090162936746,2.5
0.08187110028096856,0.06000747872205943,9.817283794065146,0.009659449212659208,-0.006312320532433318,-0.005227925474357532,2.5100000000000002
-0.14432618635032418,-0.08460713813998547,9.862013152875267,-0.0031486774776436216,0.007599431001977999,-0.006298036126330778,2.52
-0.09368382246958606,-0.08074062043971146,9.869170802283838,-0.002295961702423401,-0.005698328750622423,0.005273194840095056,2.5300000000000002
0.034970695831441995,0.04649016943713869,9.899771105524945,-0.0020776489392170332,-0.014659498737263866,-0.004496821181012523,2.54
0.18926581469348738,0.04594800171365617,9.62411854089676,-0.012112009782708677,0.00595372925081675,-0.005339870160828866,2.5500000000000003
0.1809312373971459,0.08214058287789407,9.651017739007186,-0.006449063884457746,-0.029017072205994685,0.011098666949140886,2.56
-0.14617993502602175,-0.0019132057799629632,9.892609367198359,0.0034035024279027697,-0.000990820711471054,0.0010078397467782891,2.57
0.10952512616039654,-0.07794558181468624,9.690425787025237,-0.002085393246866104,0.00011994287327829588,0.003989100974573537,2.58
0.09277544606220227,0.1656283480609116,9.745593621191187,-0.007600919341182212,0.011127366969510125,0.005358934938753202,2.59
0.14420920983117722,0.05550815233713208,9.863402588193264,0.002738656352875703,-0.003042530482851022,0.02718717201362254,2.6
0.07498129322583306,-0.16904856170344432,9.820841360364827,-0.007489246852115885,0.008172133525629146,0.007004328929760085,2.61
0.07758693881948198,-0.06632703782746001,9.974913196614581,-0.008364190521718313,0.0008569401992394315,-0.00826962995253223,2.62
-0.2327071639416828,-0.13547658681707994,9.807614112833752,0.013660123336587369,0.017948836046749336,0.0017939630037066814,2.63
-0.07844596609042019,0.03485303004448575,9.804870749430924,-0.004312664534419491,-0.008021126819558171,0.015817372516713342,2.64
-0.12015301301448474,-0.07963107707228986,9.921932338672853,-0.008238678252077952,-0.00021641708502642004,-0.0051316193552261215,2.65
-0.15112783760825382,-0.02291425292696149,9.677296751596113,0.00967511062281499,-0.006994649162378237,-0.01599322498668587,2.66
0.06045860928544175,0.04158792534674524,9.816063694198034,0.018601977051478355,0.0036088618187275503,-0.014063713120218247,2.67
0.08387171738180427,-0.04717148056415816,9.894530654708209,-0.01147747982941608,-0.016038876108409282,-0.007580236452666603,2.68
-0.1195497543100408,-0.10196012008209354,9.736921385370998,-0.0073912571511374845,-0.009119089052028276,9.066172611010205e-05,2.69
0.11391697960101868,-0.1596730282316148,9.883516426881721,-0.011325031775553749,0.00644839166315752,-0.0014607219203546812,2.7
0.2655929670205652,0.11570563117015789,9.805114398986625,0.019540137303255073,-0.01174696937679907,0.008915585681322764,2.71
-0.19021759817752767,0.14435945671148961,9.88182781720011,-0.007284123759760738,-0.004252396717122135,0.0059634965294375845,2.72
-0.10090797256721147,-0.026660674328641117,9.854171111727565,0.004371970944514734,0.006665174545421508,-0.00017990055913514176,2.73
0.046593507523520206,0.10493906942995142,9.964234286965333,-0.010864281344997664,0.014336606808662512,0.007881553437499895,2.74
0.22393621617486487,-0.04920312159588133,9.766458728362476,0.006546379781829283,-0.010899882962352128,0.00729526442931702,2.75
0.07260919630738484,0.04492011286196418,9.907715658802577,0.0033004864272006803,-0.004511611933715647,0.007558002674472149,2.7600000000000002
-0.09085966929337465,-0.005697096577676197,9.903088189461663,-0.009492743741761397,-0.000985663323548373,0.002823551285999369,2.77
0.08457869132344709,0.19881335689893326,9.639991507627945,-0.000689587799687853,0.014835484789992692,0.013070151370720345,2.7800000000000002
0.09033325902236677,0.03420038075186123,9.785808251256848,0.0023366133072774647,-0.004573389283213774,0.009932488817302548,2.79
0.1023715047220366,0.12105293374991787,9.875765888421169,0.004546937673552093,-0.005116223111777978,0.010996313858298615,2.8000000000000003
-0.01834261531749076,0.008215459686051108,9.98350171589134,-0.0063261017950114184,-0.003906841139985784,-0.016195967086405232,2.81
0.01050869362808315,0.04884308838155774,9.720015341819996,0.01009168004405438,-0.010463452261616444,0.007099880349560129,2.82
0.02507984195874792,-0.01799585465792699,9.65194562408307,0.0130270817329696,-0.0024853303593451673,-0.012132294610750887,2.83
0.21661739692838278,-0.11708699573722664,9.901067069380778,-0.005412727347831453,-0.00554252109689587,0.003637059998548643,2.84
0.24764159996153967,-0.1261726925143247,9.95299227443385,-0.0030374102329801538,0.03194318696448811,0.011064970985653256,2.85
-0.013295105608039702,-0.007156789305940713,9.856370735729435,0.015582547705751569,0.0014446058687352318,-0.003116379526024385,2.86
-0.06772198792042532,-0.10637168591495208,9.726078109229709,0.003963797820875034,0.006075016128380064,-0.02795120032870273,2.87
-0.2951950728193974,0.01770129344747621,9.652730727659124,-0.010535772662837173,0.007543017576012707,0.010377309851910153,2.88
-0.10379060222987568,0.09083915355565658,9.727355628713385,-0.0046339308035916625,0.005007333894202405,-0.004449805449190091,2.89
0.12526998874416775,-0.0365001296223326,9.695017601952005,0.009101761188571198,0.010207978762534571,0.009686070726170302,2.9
-0.020916703370345922,-0.0062652715766952005,9.950727400692447,-0.016069210947115994,0.023093517672200924,-0.009070321195683899,2.91
0.033028286752003616,-0.05932746090879152,9.812142881819891,-0.020745620754546664,0.003673144012098391,-0.004568080685262828,2.92
0.06434137407811834,-0.11695909492099221,9.778810867552233,-0.02060377473820526,-0.013419517990807279,0.014641864840043553,2.93
0.10437631925762468,0.004275287862836419,9.749235618949845,0.006161283457710508,0.018130672902790093,0.0072933694697250185,2.94
0.06585804721042775,-0.12022993312200712,9.803377569127408,0.026313466672903494,-0.005900797918388759,-0.0062111744364773906,2.95
0.08322962088351055,-0.07890530860138496,9.75956292608871,-0.005421352061969083,0.007460536603020115,0.0013378690079194667,2.96
0.1533129362099691,-0.08078504418091831,9.806698470664236,0.006849482915615239,0.010664358247518184,0.0074098531600678185,2.97
0.1443925151801509,0.03669406846908964,9.688479403691888,0.0030012209351191438,0.02072318717141786,-0.001098575663330627,2.98
-0.04539235373649489,-0.0067982894084875735,9.828586043310771,-0.003480302787334275,0.005557556238921609,0.006026016297705568,2.99
-0.1814729431970816,0.1195701691831218,9.830096012440027,-0.006459113637144975,-0.008877045971056052,0.0037685925858233155,3.0
-0.009641605605663905,-0.04738992594598329,9.785162907844242,7.322808699329119e-05,-0.008212081434788656,-0.010698141648686913,3.0100000000000002
-0.13128372176903266,-0.03215307969031289,9.893569040285303,0.01108790298235109,0.0072730884827178904,-0.0017665799087491145,3.02
0.09541685356329388,0.016797559005511786,9.779676935144566,0.0017110396385518426,-0.0049260776653994994,0.004597592773464289,3.0300000000000002
-0.1265754402066069,-0.005872228460443853,9.702373905990573,0.017815850690384546,-0.0031461149496920283,-0.005780223755797028,3.04
0.019012500551232,0.039088281949877214,9.85001274962641,-0.011046587367592611,9.411033220204835e-05,-0.0016113714856056465,3.0500000000000003
0.08500957325985725,-0.03410996139697196,9.82628119887836,-0.011928645312805262,0.0005075077349640485,0.0035125544701010607,3.06
-0.017345476805312617,0.11741334485118314,9.745523602832,-0.004810036859816972,0.0021210686686385736,0.006572923005316208,3.0700000000000003
-0.25459372960591614,0.1063818403089212,9.81829081016882,0.013937904903300751,-0.0020432602595474633,0.005005487194509904,3.08
-0.042945954303787115,0.0603549455795046,9.78190231517454,-0.0005928463051640925,-0.014783073613477707,-0.010113362710032216,3.09
0.01619296505474186,0.03374115420054342,10.008794349410875,0.009795207716746343,-0.0034036189715405353,-0.008716634945593058,3.1
0.008900334165076488,0.09334598105712816,9.91833194892284,0.0029093616857533335,-0.0015391520898403552,0.0020585314976609165,3.11
-0.2044607580743128,-0.027453571509892007,9.910855405788528,-0.0008805415528068237,0.009366052727227332,-0.01587421642992208,3.12
-0.06817030374133735,-0.06148889733158544,9.815792408506887,0.01949372090071851,-0.013121516588350774,-0.004345317208822003,3.13
-0.10590574925795544,0.0617787790808782,9.804638060649285,0.0012616861934041008,0.006530925201081992,0.00494672750319481,3.14
0.11056772212882032,-0.1308159755011229,9.643513000626319,0.0031945785735824884,0.005998854531116445,-0.004977548813399378,3.15
-0.1511675343935377,0.16759864271340438,9.749268445630296,0.02057305744493727,0.013323007320248421,0.00401705194947532,3.16
0.2791361895212932,0.10747536663560536,9.735931013412692,-0.013917476376488346,0.028920114617095944,0.0019259669890017805,3.17
-0.011768814907506014,-0.04397028395103702,9.928863458129344,-0.0021857674650260267,-0.016025005004052663,0.0013820782645155055,3.18
0.059454816946158784,-0.004552695264404235,9.791928634379795,-0.013901862797411471,0.0029362410718559886,0.011771428589987426,3.19
0.09794851940158532,-0.08728895213431115,9.600058149171545,-0.024193689525164503,-0.006671216168209932,0.014482537579517616,3.2
-0.1878385077633178,0.15755485191201113,9.994077333337463,-0.009464668449899885,-0.010101913393601702,-0.0020500405091099265,3.21
-0.014260918204775989,0.12811955785720328,9.85973178672492,0.003507008814500225,0.0002488072360253046,-0.015340589433093132,3.22
0.005182412122680058,-0.009096128620128043,9.711665376314187,-0.0055665508719319945,0.011149247353950724,0.01317176054202778,3.23
0.07128092712793929,0.05704197572440183,9.907920415461623,-0.0034431011216516545,-0.014574337692981805,0.020541660263520962,3.24
-0.05532159396039436,0.11462333811366361,9.72070393458213,-0.0018997753525912468,0.013824658900032736,0.01226239006737779,3.25
0.1587082787502215,-0.11533003636926807,9.786938562153601,0.015979661027426078,0.01143935195983898,0.005352871235981065,3.2600000000000002
0.02508082837494497,0.03700145188145011,9.671814635845772,0.004621333088603119,0.009320821193217593,-0.004813898018391148,3.27
-0.019347381102173336,0.067785739334483,9.932767894596378,0.007379443308323018,0.007280972517192756,-0.007072548243377163,3.2800000000000002
-0.040333132383158304,-0.05965264178017864,9.751437755022495,-1.5043347418609518e-05,-0.01749571977258011,-0.009545051353707557,3.29
0.2895703188474391,-0.15884103276115827,9.780336133056872,0.0067540482834832225,-0.005999460574578066,0.0035989146427981944,3.3000000000000003
-0.05932146478771273,0.016504905156950217,9.754619202484472,-0.0012746604853397887,0.012396385488114059,0.007722824587354966,3.31
-0.0960484415760391,0.11256414540664594,9.856530206559887,0.010256405687407544,0.0007322479293361069,0.0020112318258947433,3.3200000000000003
-0.0338533810616034,0.050382178865249,9.963545686176982,-0.0016097698730341387,0.006208599375151092,-0.01669997694073308,3.33
0.03166898192148645,-0.10596419155035729,9.735539534563568,-0.0007302553791000838,-0.00031124724254322076,0.015441762851252845,3.34
-0.19122785556836952,0.11518729125150778,9.776817486524175,-0.015728441860393735,0.008267890433442112,0.006804080028331495,3.35
0.08621864675288562,0.07731341819082008,9.750753036703538,0.007533195357407372,-0.008310999976157049,-0.010829197254144045,3.36
-0.18060821647897216,-0.025652374815578874,9.971104448451916,0.010307831169023585,-0.015625044469619615,-0.02025496955630879,3.37
0.09375014421761475,-0.030144669055207313,9.824893887578185,0.029156963732954445,0.014424165769349264,0.0005398486149086621,3.38
0.0387985266921799,-0.08991174823370472,9.644265089444348,-0.003851884376529303,-0.0051792883654541355,0.003961877399346721,3.39
-0.1404472712440346,0.20420937570798028,9.696110746827918,0.001270061058623165,0.0032793178322926804,-0.009399745440010156,3.4
0.05842583951144388,0.04153550908690563,9.66487344757157,-0.007955486356227871,-0.006886425188676794,0.005185801510723267,3.41
-0.19064756578282094,0.17860968509837694,9.622668644633697,0.007212458632063329,-0.002378183386504423,0.007266278849963423,3.42
-0.16126531071204986,-0.021272021821411028,9.919362313766507,-0.004577703073850598,-0.00027468759677509616,0.002220671589658837,3.43
-0.12491652224594588,-0.0973262628570239,9.762004914725804,0.007606754809535443,0.006662941849706674,-0.003761499473328865,3.44
-0.08517602791984796,-0.09118548668527389,9.839913628838119,-0.000386713540218783,0.00037985580997251496,-0.005995533791645378,3.45
-0.08153319117724436,-0.014958600348551086,9.74496223047098,-0.002336680606415787,-0.02191356131748901,-0.005409727540569206,3.46
0.047289156751816684,0.013890970056634328,9.828635082128743,-0.004798990402695011,-0.00486312967758758,0.0067603242668451404,3.47
-0.0520329180717818,0.17403954362481888,9.80396446297775,0.01582696494893187,-0.016068693067480138,0.018838824155351337,3.48
0.04658425400784433,0.038234927733327505,9.718461678761935,0.02287505694334391,0.007524858216245945,-0.011087247042244683,3.49
0.02757866440686287,0.0443443766313551,9.730320523336085,0.00017383705883222765,-0.02116450097310225,0.008469512810493102,3.5
-0.07379555673418552,-0.008258562630061982,9.890426723641724,0.0069824993284528705,0.0020462781904842893,-0.0013749709018571591,3.5100000000000002
-0.08144334157663817,-0.2887613892001023,9.812378280593407,0.0003397121217014132,-0.0032131272153920836,-0.002182315012163787,3.52
0.12878047584798172,0.07452037646887825,9.90689691040449,0.006818872838579808,-0.010890306585030641,0.009944378172612685,3.5300000000000002
0.07032264172611888,-0.024004530451762474,9.827116741905366,-0.0061140513311286684,-0.005660649673897245,0.008951779771242448,3.54
-0.11024368501946287,0.06630869212186931,9.72131616240586,0.01567102048888988,0.0013585765676121654,-0.0034327825057312335,3.5500000000000003
0.11572328298640303,-0.09047221695939973,9.675348614329573,-0.002473772312937458,0.009534860749369852,0.005634258644835245,3.56
-0.032402962289679614,0.02988775607292393,9.86122662733834,-0.00879882333775065,-0.002872051879418604,-0.0015446974851420054,3.5700000000000003
0.040505646456408376,0.010594283542504248,9.684097487295618,-0.0028312443577480097,0.021918898471124718,-0.010422066489762903,3.58
0.15687201209511745,0.07952510653766809,9.71356337200578,0.011552599525936047,-0.010913302131204852,0.008802160222149705,3.59
0.06742017598137025,-0.041702327531643144,9.789850208527849,-0.009428908160971774,-0.00011700153405846958,-0.0032275298456571973,3.6
-0.05415912327363686,-0.09587058629728848,9.767688860382188,-0.02249558717974342,-0.009941661089045813,-0.007229808613815867,3.61
0.009424257635432825,0.28487404213830975,9.716813380090587,0.003510372425484486,0.013294197128145717,0.013963603137487637,3.62
-0.09355778454783505,-0.09693444038828238,9.774749818556533,-0.0024033970935024252,0.005931061940526143,0.004551959672650508,3.63
-0.036833418103658803,0.059611251980797364,9.662867754504658,0.009752542886488951,-0.003748098492891762,0.01016224549787387,3.64
-0.04430546738905297,-0.0085441755193265,9.759157744883039,-0.0034491365709703858,-0.00028197318817541105,0.005719719293514698,3.65
-0.06512120472127388,-0.04350834470031644,9.78437724890553,0.013115894821752003,-0.007926080365412497,0.0038327356955472343,3.66
0.08388310488824052,-0.03705163257081306,9.89605137247447,-0.007595011443371549,-0.0029175940717383825,-0.016562844092071604,3.67
-0.041841750750148954,-0.05401950977842443,9.747555971463331,-0.006050321297757892,-0.009162212732652497,0.004123734429964168,3.68
-0.11619657622304401,-0.14377550134050804,9.686456245666584,-0.024911581828509954,-0.0036768946445122452,0.014828988421078711,3.69
0.12226947892023064,0.08000132391568145,9.771727446978122,0.017810286689775762,0.012312497800705305,0.008064040546681948,3.7
-0.10084465817504829,-0.14753308681701924,10.080629895641517,0.005445845790145203,0.010213103392395022,-0.019815051603548125,3.71
-0.16134620598207877,0.1245930293466593,9.67856682996708,0.01784763941152772,-0.01939828680832078,-0.010341177817673089,3.72
0.05890285988896174,0.03057646210693238,9.918485119451022,0.013317182726448731,0.006962221897839919,-0.02093360079546226,3.73
0.19528579503260554,-0.05559103033425225,9.789305204878465,-0.01761076824111694,-0.00557913636167598,-0.00485573344873942,3.74
-0.09512010992406682,0.21040021327599245,9.9886575175071,-0.003920964059138678,-0.0050230793204852275,0.0102983732507937,3.75
-0.04763417079742313,-0.07705149246398842,9.86577254471179,0.010547868337654072,0.0006117832899620503,0.009312806841875923,3.7600000000000002
-0.16435735943619462,-0.10284390292372128,9.646267068470209,0.002397507829284948,-0.010725430381016145,-0.009387443817209034,3.77
0.025083328265380362,0.02706390042025038,9.908761604866974,-0.009587500680011705,-0.003449988204600488,0.020228286199586908,3.7800000000000002
0.07692945690220751,0.060348272209630995,9.898743048730761,-0.006783579875540239,-0.012087537618864256,0.0003835413563302199,3.79
0.15651141459057427,0.020105013042112277,9.747805420576427,0.0040129411217721305,-0.007430249671024683,0.0076387312705691246,3.8000000000000003
-0.08889262781205726,-0.09716335197675553,9.712009292524073,0.00770082188221872,0.0037327096777093607,0.006030475638989552,3.81
0.07594193917136866,-0.2109357718031104,9.873899108122957,-0.00028648135795935714,-0.001911270833135113,-0.00427556645214388,3.8200000000000003
0.01760619535956616,-0.04477875494069824,9.774826831896535,-0.016078040366109336,0.004213782755274908,-0.01151924634238047,3.83
0.07171298678866077,-0.18173324354086387,9.67306280035537,0.0013769152538942494,0.009257433964329254,0.00016737325718749234,3.84
0.14032671465099375,-0.02924384827393674,9.751415051025953,0.011334815251320412,-0.007536405884396441,0.013117343911271513,3.85
-0.009154786410461654,0.016583143199022158,9.772495539233777,-0.00565775101009178,-0.004771612229597541,0.005178888672947638,3.86
0.07715183908797725,0.11808173713999688,9.853388082319146,-0.0006412872570022056,-0.0009886389024792706,-0.01411584998420934,3.87
0.06111888603151301,0.03660786148605419,9.95126298631919,0.006989218062024316,0.0007548210842384124,0.012472002646666218,3.88
-0.15518015919134917,0.0691120941840561,9.807305718883772,-0.012026544562927859,-0.011494718533949629,0.0030309771267825877,3.89
0.027733157246517978,-0.06961520442636378,9.865564190602464,-0.01381220383490087,-0.00259664284379714,-0.005615181045309831,3.9
0.007751953844950997,0.0033548600079468826,9.899089868923818,-0.0038321536716631518,-0.008634750108185969,0.007966365901965977,3.91
0.07240723262520406,-0.12204017426314243,9.75185706241004,0.0024343948478036596,0.011916633304730029,0.008796548840720423,3.92
-0.23197748720431785,-0.10877305734118708,10.005310172890427,0.017783957085221774,-0.016234813143280725,0.007503920854555095,3.93
0.06245898505143556,0.028746413811694307,9.922329664485108,-0.014364935452912122,-0.014403091128700288,-0.0035889368549040734,3.94
0.09802381374320275,0.006660121129535514,9.642131269633403,-0.005281909889079989,-3.0832611023964944e-05,0.013806116181840892,3.95
0.032541316950094254,-0.018956821659915683,9.733378954130721,-0.0005318502961051933,0.008679666707518496,0.0007525207856036509,3.96
0.11256491231447084,0.08142683658449008,9.960613139850572,-0.003835961037170729,0.003730384149535385,0.0066248759241423014,3.97
0.057347734861817316,0.019080019417836807,9.84723169990778,0.006994154071439869,0.004463685933649713,-0.004986875146228895,3.98
-0.07365292607445992,0.06192139961841109,9.736232420491362,-0.017490953385370617,0.005313623388808074,-0.0012138058457368363,3.99
0.19540668203092154,0.04618326692107156,9.785141075680562,-0.004023257593465331,-0.009202349144131618,0.002146478240839502,4.0
-0.1673927587343459,-0.025830460411601416,9.933916547336647,-0.015069576398598957,-0.006884677744450278,0.006094348740143661,4.01
-0.03288904337336715,0.01281359209644534,9.708106475472912,-0.0003699806667224837,-0.012077892255289947,-0.007931887713764959,4.0200000000000005
0.05073370602691153,-0.09209862715947192,9.92959512082156,-0.0034498673552791578,-0.011410845649536188,-0.0007903780397579037,4.03
-0.1399760726540441,-0.061073152542925495,9.666931062923517,-0.011088651425893855,0.003605247644381934,-0.001043881426888891,4.04
0.11226264884228537,-0.02489325143446908,9.798169880851761,-0.00612644866744819,0.036569094203200855,0.009457930634389244,4.05
0.028443647240755,-0.0705363698919865,9.840523451307847,-0.005285814429306583,-0.0020343711552663333,0.005053170551406944,4.0600000000000005
0.039763603387908436,0.006135806626247794,9.776940227403887,-0.011344049428003664,0.00016962975658537283,-0.016862613048436028,4.07
0.17825379161784136,-0.09452966852194533,9.818421312873141,0.0010874811744771402,0.008798464646738976,-0.0023658803832090616,4.08
-0.1459185457027736,-0.0751267282683445,9.808253865326362,-0.021360129748227527,0.011337869954547275,0.00755038364445926,4.09
-0.09140202819218851,-0.07793546213510895,9.725560100785891,0.0009649478939541454,0.020388112724915475,-0.01147631724557558,4.1
-0.08168269351739905,-0.12283750730819941,9.832631270450907,0.011280388835110814,0.009043756121620228,-0.003536422701673748,4.11
0.35762172212330734,0.03701820287304831,9.898292236593468,0.0054551245017649885,0.008391654689016563,0.014787072064709075,4.12
0.15149998739819281,-0.10897140904422975,9.83499367427312,-1.951087075911407e-07,-0.00270553126462555,0.00963688097452835,4.13
-0.1946647317900852,-0.027950070578564214,9.792964512331329,-0.017184335258247807,0.006774921439991091,0.0133988691121561,4.14
0.058510057899092464,0.04558851093619534,9.906071680226512,0.010116337349956445,0.0009889925767154312,0.00607764111014224,4.15
-0.068219423197159,0.03790260710668749,9.901000673015492,-0.00981854284560459,-0.016445157761297128,-0.006721461202910324,4.16
-0.0003994229664205775,0.023260750094919097,9.693105428281555,0.01065860664122657,-0.033392513805980205,0.0022551095798746717,4.17
0.21942314663542503,0.1450598412015198,9.842592726964323,0.005020047948900509,0.002142512127723189,-0.014232367089224117,4.18
-0.03256122241226911,0.0017007606889346935,9.852271271209206,-0.013214647922024965,-0.0033355934925725673,-0.01316054786125306,4.19
0.20717990803459607,0.051505560655428564,9.59479446034011,0.0031040575600154146,0.0011521641320026918,-0.009355259178950385,4.2
0.07298333611990908,-0.04471499300048881,9.848644154596133,0.015514669086952768,-0.004952771735124058,-0.006698313002619284,4.21
0.1903060913531196,-0.018936248247438395,10.159675912069574,-0.0036522501127800545,0.02601052172357811,-0.010756703815217202,4.22
-0.11296302296946603,-0.09690509994680947,9.623949758588234,0.0196738665496216,0.00725223108173451,-0.006537875035275353,4.23
0.05587848312315385,0.049075079750433764,9.784734328741257,-0.002950813701966047,0.009413836785054213,0.005994354219783568,4.24
-0.1126192761964253,0.1416970972705841,9.85234742892192,-6.771838586289558e-05,-0.0042220470264719935,0.01167075203583376,4.25
0.0452176209922726,0.016731623152015342,9.790752455523402,0.00961042915679229,0.010060466703520744,-0.019898956354998682,4.26
0.15357209003681715,0.08164289857204376,9.767602498776457,-0.019402958268245896,0.016259066502286458,0.0003252632938780068,4.2700000000000005
-0.11077073605316304,-0.12088050849815135,9.817675387418262,0.004809609214351236,-0.011066529450679213,-0.022303990824146865,4.28
-0.05378548743363575,-0.02785174285851812,9.793525558698134,0.01765548814067208,0.0030119309307633547,-0.011920068291971536,4.29
0.01811114342697352,0.02743379492045586,9.767116470935004,-0.0034123562011140404,0.00030080468484853216,-0.002959202542395644,4.3
0.18004962698429008,-0.09167451185210974,9.86327241646552,-0.00669767044103704,-0.021409102168259198,0.01995170046317064,4.3100000000000005
0.003751808861151726,-0.13893580161060706,9.710651267837841,0.0021530272085798236,0.01116471241200462,-0.005924374099418577,4.32
0.11231328759696449,-0.011846513254255366,9.885753142935998,0.0032350257250256765,0.0064361724004251076,-0.006871859587927572,4.33
0.1358838201530925,-0.005341517817272981,9.736711183303036,-0.010891905313847395,0.012173049992408418,0.014975096342667417,4.34
0.030625396952738193,-0.08920505827983358,9.827143678245697,0.0022387299502216614,0.012672162115012008,-0.003174678664801845,4.3500000000000005
-0.11288434552115692,0.07149644454183805,9.912883906466579,-0.001974941572492169,0.02838705946528803,0.012176251792914504,4.36
0.03601114330247246,-0.20159905549357365,9.609849724616241,0.003734122068591682,0.008157917473650743,-0.01394086578737336,4.37
-0.013212236016174076,0.10198393669721154,9.795450479731011,0.02689101372405464,-0.015015707330958621,0.01128987488664252,4.38
-0.018735349697295327,0.028912101366107296,9.826228351131899,0.004099266166222279,0.020202104155431874,0.006144075550334851,4.39
0.040397542271991035,0.0972114322843658,9.692382341419313,0.022717259565730626,-0.005429179061375091,-0.004051280172925293,4.4
0.2320426253044517,0.03153009986437721,9.923090783022616,-0.014795549143117733,0.0058030669415382865,-0.0008948063925510369,4.41
-0.12858479175085744,0.006295098243082141,9.84506238092062,0.00381676625468791,-0.009346206852423976,0.0061497981919414225,4.42
0.012138375233201569,-0.12261264870465792,10.020419919233573,-0.009738448805989454,0.015648000095946444,0.007805543119872943,4.43
0.11070022130913953,-0.05932231915959716,9.800018168330284,0.006239591226002832,-0.009341764243492501,-0.012358998525163938,4.44
0.07674433590533375,-0.000539034191428065,9.752629891904482,-0.02393131907426801,0.004553442260350247,0.01305277853460599,4.45
0.0834093809774709,0.07972199818824605,9.71284967318075,-0.003960999967432431,0.0016375809958598924,0.0023725305550898928,4.46
0.14468129772272784,-0.2741252823095152,9.886295217278969,-0.0014821754985568057,0.0008750040190885876,0.016289811320368847,4.47
0.02903267507855501,0.05086913430500654,9.837002206412778,-0.0027654681636199484,0.007057313020007523,-0.009443081576991186,4.48
0.2802435391876184,0.07930522161434667,9.982144414196467,-0.018541032275093287,-0.011123425330128604,0.0016255478079738334,4.49
-0.01678275337961048,-0.10369938435269543,9.8315989517327,-0.01404086051602314,-0.007440817013029886,-0.00938329672299211,4.5
-0.06362815060688913,-0.00792542662653667,9.84679185256807,0.003392167162510692,-0.00774317929961598,0.006324968315487865,4.51
-0.020725464383780645,0.055989692451191446,9.782617345918727,0.003399926357861785,-0.005771940914815055,-0.03410878013766968,4.5200000000000005
-0.039712914919048665,-0.05269048584010758,9.778639681479488,0.00542184239668562,-0.007897490758917595,-0.006753055993078875,4.53
-0.04382280718792957,-0.010782627242336779,9.829076036043169,0.006719800886780814,0.003390565411700015,0.004488375281109068,4.54
0.049443376480409675,-0.16179648076150796,9.81202130417019,-0.011479866155999077,0.012216191770950303,0.00672259862183278,4.55
-0.0851770417560411,0.11887900945609722,9.691742500167768,-0.02441323992073931,-0.005491689906945777,0.016818895533482862,4.5600000000000005
-0.10847712090771144,0.03237245787448672,9.880714488019708,-0.006447859822006878,0.014141071848271392,0.0010627268943993165,4.57
-0.015166800926438503,0.04814790881486539,9.640098192427939,0.013646958882228702,-0.024400020277757162,-0.00028679116597398125,4.58
-0.05366803438269675,0.010383543154145818,9.896956197790129,0.006311432553536234,0.0021499122419501963,-0.023410735393138014,4.59
-0.08386220615419616,0.05247038485203066,9.77271479369742,-0.005851252251741748,0.017700229509866435,0.01136365955597615,4.6000000000000005
-0.0778944122543737,-0.13605567877338334,9.689524917333294,0.012455845028524712,-0.013480146810975781,-0.00656816881914539,4.61
-0.11497166131291324,0.01786723397337397,9.706613098826567,-0.0014557607448871094,-0.015400638622099118,-0.006651721726812981,4.62
0.009934472418645363,-0.021030376488955116,9.965483008413745,0.004040067088285079,-0.005564015320493376,0.0008862787932807121,4.63
0.11695050146394413,0.00676683960259954,9.752791133115998,0.0023366943499363033,-0.003761589939621986,-0.018199457821167265,4.64
0.08629237087777535,-0.09468191669289631,9.908114385975919,0.0087881165244799,-0.011031929144460453,-0.029643896749834614,4.65
-0.002026614913140836,-0.005987320415242207,9.65298803092577,0.0036986595425702296,-0.00312045264915709,0.004884758599766478,4.66
-0.033255226508101594,-0.047069403051330026,9.777605786075263,0.004356966435709821,0.002411351366267882,0.0036068497116517806,4.67
0.026501219651540748,-0.14219555733136932,9.813492140850402,0.014000932381711009,0.01227979439020561,0.02144557050366648,4.68
-0.09037878753851054,-0.008667938494136183,9.921212143001553,-0.0017542395465085373,0.001522596831711901,-0.01635030833542494,4.69
0.008474722255913458,0.06882905703401566,9.888841220544386,0.00025521274460260304,0.008049770498553904,0.0027914809032072987,4.7
-0.00857059137518682,0.06982651059887418,9.89893593104286,0.01952921093329464,-0.00517941033527171,-0.008965047909760927,4.71
-0.1199301115576605,-0.04049485800869631,9.580498248612042,-0.0047306234465830915,-0.0022667419748699574,-0.002667069453710363,4.72
-0.0013034574647360743,0.10053379909367222,9.739771763729545,-0.012072901898494826,0.005724064095896437,-0.009373177765230821,4.73
0.1840407878308505,0.11111989709876668,10.071865697335998,-0.003836288325590835,-0.007683809451999168,0.005709380570995993,4.74
-0.04034340084894713,-0.008133236431672797,9.89312560720669,0.01587828966437105,0.009130703995366867,0.007189355076057966,4.75
0.035596721846093346,0.10001752785621386,9.95536467029416,0.008388094906599542,-0.0003451486725908523,-0.0029242134904397914,4.76
-0.05251505704282902,0.0025812984426195006,9.768639487003018,-0.0026694419129416995,0.0016616473948700917,0.01779755775125283,4.7700000000000005
-0.03534666631426296,-0.045530679513079146,9.726691702361297,-0.009307008298901768,0.00029880934051030277,0.012469189024249192,4.78
0.10160699956600627,0.09915817413637779,9.77647017914765,-0.017045795184279133,-0.00920283899466088,-0.03094499295656633,4.79
0.22665383731730612,-0.10146663908043319,9.888569378555776,-0.014005426199880308,0.0015546255694895207,-0.017057948653372134,4.8
0.012333346279923111,0.11086236030341089,9.810397324553163,0.004884490450430339,0.0003446447252481076,0.0050501110217045985,4.8100000000000005
0.014417940732600072,0.07878513581740071,9.814472499249506,0.006496274333422828,-0.013489508302457445,-0.01680941016957255,4.82
0.05228930902889126,0.14439365695105513,9.733826162586913,-0.002550581825160059,0.010830484632801445,0.004698633685277575,4.83
0.07561768416582969,0.1167047433567904,9.776289110598377,-0.0026036680342839255,0.0021888492796466857,0.010794789598559342,4.84
-0.0633265555087029,-0.17162974828323296,9.82040177485742,-0.003700013953912131,0.002704764579271679,0.005258099531233641,4.8500000000000005
0.03479017235407921,-0.02496731339116766,9.932805679732295,-0.015853851979208654,0.000869091941720092,0.0005168725930113136,4.86
0.011691393438098482,-0.0684287755536727,9.844936516699757,-0.0005816775666097617,-0.008022759306677845,-0.003087291578916877,4.87
-0.0887329772529908,0.08960113964972483,9.991361783805024,0.010435387977454198,-0.00603621577623169,0.011609768498895931,4.88
-0.01471861230537548,0.08855917251476371,9.658207062384069,-0.0043599167629783785,-0.0032430853638550877,-0.003444186013306839,4.89
0.04367884345553279,0.06290310970876721,9.681781351939636,0.005254298191033073,-0.00651642696628057,0.0005887278362928978,4.9
0.1480543898280627,0.003960709709745395,9.920321543860288,0.010121100283440874,0.004570797804757734,-0.0041664975942031085,4.91
0.09620553596362963,-0.06321516922328518,9.695255731454226,-0.0015154075500074503,-0.017358839493610247,-0.005324870058218807,4.92
0.024053040996533794,0.013938677952183268,9.912059180891568,-0.021869314637451027,0.0028029347791642,0.001970810080032074,4.93
0.0924306128837008,0.04854906017605518,9.700690477879034,-0.007269759607773303,0.0029803082655370907,0.002580407597080469,4.94
0.13275553791135453,-0.003212651482609406,9.804670888560583,0.005696986569150083,-0.011154176033977503,0.0042817057321664475,4.95
0.2504075026048906,0.16531658408057703,9.80887379934255,-0.004203717717431682,0.020165265407532003,-0.011576636842648504,4.96
-0.017242399508789134,0.17121189341911836,10.001187510655509,0.0027654200228919004,-0.0005038706026969781,-0.0041398847524919125,4.97
0.1801519970763318,0.05722734601987738,9.63901836043171,-0.010086329144886195,0.0009668799378932713,-0.006385925780482436,4.98
0.06775317144618759,-0.003396813348568494,9.892984181974542,0.005273088816971796,0.014661948445546065,0.01557425625352174,4.99
0.019794690189112396,0.1272324141392351,9.997069744447163,-0.0001594343912703167,-0.01707393967160775,-0.0009464963490476479,5.0
0.0007957908543043598,-0.05928850462708305,9.609582471112951,0.0033209940776717396,0.008921430022351476,-0.005301283875774826,5.01
0.18789481939413322,0.020607991013651045,9.712420782726566,-0.01559486983999284,0.0004893112997975979,-0.019666384370259724,5.0200000000000005
-0.029142210960149795,0.07212669611991158,9.812116048272088,0.004415119074192307,0.002662049165982162,-0.0047643166127425045,5.03
-0.14361205179584124,-0.03114692351063721,9.664195177408669,-0.01051636594763836,-0.004581813575612148,0.003614011840274632,5.04
0.07054605766990095,0.05936308832393877,9.721921450755437,-0.008503362482749919,-0.0010170056577377916,0.014523834394824787,5.05
-0.1028189828179666,0.12449901363365166,9.795968484605044,0.004282726146737013,0.008553259117957086,0.008027581344099942,5.0600000000000005
-0.07659027968375795,-0.09865310321076562,9.92588171658117,0.012149211262053239,-0.021479455930869317,0.014248200487971562,5.07
0.1214747039387527,0.13003372245554573,9.756134529150371,-0.009827241967500455,0.007404177022349448,0.0016731638119947127,5.08
-0.08492141884490048,0.015608783337517777,9.890245411926234,-0.009069937996918511,0.007092700705755738,0.00732622945069794,5.09
-0.022114171306185357,-0.08189287023946239,9.780595660764948,0.009331401775827766,-0.002191486635014212,-0.0011497524181167309,5.1000000000000005
-0.134089333890167,-0.1600888825831945,9.772309502618256,0.02977477411767397,0.005396266537227779,0.0024100955784775707,5.11
-0.0036936225985468724,-0.14316087979524064,9.749256681387724,-0.004677985620961504,0.005438162352163163,0.016445088635422024,5.12
-0.040951517281972064,0.06041499502204792,9.842652884185213,-0.0019144082051955043,-0.004667653948593111,0.00014749131298716578,5.13
-0.08582146147116954,0.03957581262903098,9.682365679063464,-0.008469829352662269,-0.000636945391968348,0.006063053182344032,5.14
0.04381281648727747,-0.26310727530091,9.765918242931525,0.007238826436449615,0.0009448159923579848,0.01484348155364293,5.15
0.05345908288546854,-0.013535262462398494,9.722411384816818,-0.025658579901760795,-0.005278523948031655,0.008004239270761927,5.16
-0.024248891311788794,-0.00041961817558630496,9.736224506429421,0.0016711084382360095,-0.0127437699775759,-0.014717892658290889,5.17
-0.11417892004014707,-0.08558028329793935,9.710153686106965,-0.009276541930338764,-0.012048154059098835,0.0018764041793883901,5.18
-0.13221284855280302,0.1447719596763129,10.00518848373072,-0.0030024756848317444,0.000390377726090077,0.009519466535265302,5.19
0.1384553334436899,-0.14929175444466827,9.707613476226856,-0.006135933559096343,-0.0020657639078919257,-0.00914748871872828,5.2
0.036595601402945134,-0.26526693670575113,9.791269070720398,0.005172948361253639,-0.009216360203497203,-0.005092886936640126,5.21
0.04206179897590994,-0.030130474308538366,9.890601936342396,-0.00191484755413785,0.004622901634920066,-0.006347105969663519,5.22
-0.07495830792326608,-0.17040862037229004,9.705146525161059,0.0019513098175311628,-0.011207023751914054,-0.003977255487880906,5.23
0.123278206577356,0.018561659395583473,9.715358255301462,-0.001196827406400234,-0.002619044844383889,0.0055089033313733896,5.24
-0.0021589749841615167,-0.1609510865992842,9.832236194922343,-0.0037901588930666407,-0.003028772973064183,0.011551165981210632,5.25
0.17573883584868524,-0.15831630900716606,9.897331644162604,-0.009996059423148643,0.003954892701636971,-0.0002600232950888367,5.26
-0.04154136257881769,-0.23211310877549415,9.65093303708276,0.0030311242146772634,0.012845092928263722,-0.02256991018554415,5.2700000000000005
0.002711788307744941,0.16444606825175903,9.772574393763472,-0.000534572338099262,0.00638826848937737,-0.006345191094877741,5.28
-0.06338330760434523,-0.02254103206898296,9.744611370346444,-0.021611121146969788,0.024229310941452104,-0.018419794957060306,5.29
0.1665826106198163,0.11341684286790887,9.796430192607534,-4.636452137277438e-05,0.010240614313357597,0.011062426874871432,5.3
0.023583408875527487,-0.13097480062328834,9.862897146693378,-0.004869628763809191,0.013169834506710911,0.01811066318218305,5.3100000000000005
-0.09027041504333538,0.06993733952969643,9.626032779838589,0.0040523635332082655,-0.012174397112767727,-0.008423556471721338,5.32
0.026530351825869266,0.09900104275035282,9.793887174134294,-0.01839994965048178,0.020752807956443565,-0.014038068846235364,5.33
0.11117520252799436,-0.20450793746769858,9.982381088030662,-0.016011079496853695,0.013873410774399502,-0.02478546694030905,5.34
-0.09416726790977731,-0.05419635481806833,9.892485926468746,-0.004776590922755417,0.0008208585265109861,0.011655878184748515,5.3500000000000005
0.04428366239881004,-0.10686599035886955,9.815883618044353,-0.003582444149893655,-0.0024888084655053043,0.009220484806829538,5.36
-0.13684489106816627,0.03387640754212892,9.839911266669299,0.00574691176553229,-0.006515692839822094,-0.007029949273535063,5.37
-0.036036205617161594,-0.02970552568186909,9.788959125625357,-0.002473436641760135,0.001578114987576398,0.0038608776035582697,5.38
-0.0643971745784198,-0.015314329903951339,9.842496488216378,0.014817360640365056,0.007873145684222373,-0.0003448741115678737,5.39
-0.026762631880785315,-0.04660787246169884,10.030238672754805,0.009916626759858566,-0.008880221524494324,-0.006959803837091119,5.4
-0.03905365921331393,-0.038336613064331206,9.784594549203902,-0.0014125938362820102,-0.01789645763509064,0.005306661331955654,5.41
-0.17053554321049103,0.11827728457807901,9.806476672408369,-0.01372776527126988,-0.0024681625895383234,0.020466021141700434,5.42
-0.19391741039810256,0.011812842206958447,9.763006439816866,0.0028382368841280343,0.004946586809205205,-0.0033425261494615987,5.43
-0.12638465830978213,0.051102300600955525,9.792665079910085,0.01565519991187292,0.0007718142856348626,0.00540077160324883,5.44
-0.11261805817609326,0.15738304800212,9.684365118669326,-0.0016044218485950592,0.0014389000323536609,0.00013580588990873524,5.45
-0.015267323663155344,-0.0029549753204771824,9.793916064354319,-0.02220747955091622,-0.005014647238549513,0.0027103099733539345,5.46
-0.06334147003601948,-0.04312971442656421,9.847364364030206,0.006388086094299831,-0.006487768125505619,0.004951505429182519,5.47
0.156561076890276,0.05978661421789905,9.847834526388692,0.007729282604379117,0.004648017879422597,-0.010741325554019866,5.48
-0.17153590170097818,0.02584270471749986,9.906976368592193,0.0030327201973622798,-0.008117294337299588,0.016150475401398415,5.49
0.13102766557439535,0.19288102766762175,9.810951146846525,0.006405024624556264,0.004783474007360256,0.003583443513647543,5.5
-0.17237168286481105,-0.11324073607648114,9.768741374454311,-0.005280177688642251,0.000460467748690049,-0.016848951085801925,5.51
-0.09903521688701813,0.06159856707235859,9.731754989562464,0.003633331269683462,-0.006750619199695496,0.0033342648889859243,5.5200000000000005
-0.019319418027055394,-0.06041827609392808,9.956520318443287,-0.0015688802557996056,-0.011416267070162614,0.010127256677007413,5.53
-0.053326882550514515,0.059353615859700365,9.832438288213568,0.0005836762005180072,-0.018308424111974187,-0.015361275901254539,5.54
0.03552252348497845,0.05989947229206212,9.8379614056519,0.024887259358030236,0.012026692367556102,-0.0008628333006813952,5.55
0.1267483789521526,0.017970238415818164,9.64208961321817,0.014717903765998866,0.012678372673422745,0.01369646741557817,5.5600000000000005
0.012661167535794344,-0.09153973506742774,9.780590987414534,-0.01215841680793282,-0.0016285980642469526,-0.015022675484253949,5.57
0.19865842945217796,-0.1615808518020789,9.83544672789658,0.005046479187086898,-0.006829648013750122,0.010887044634267137,5.58
0.01743468676098496,-0.17467740750079566,9.906821964807897,0.0039078503420426295,0.0011162772821492757,-0.000875779397203709,5.59
-0.06040120761763101,0.025427672380412644,9.648875205942012,0.014174457410696647,0.00015057224807056736,0.019217407097503542,5.6000000000000005
0.04328506164018486,-0.08607074680654961,9.866907848751506,0.006986592301542791,0.012949761421558972,0.007453356725735473,5.61
0.11612911725437797,-0.04537522515675724,9.940172315024911,-0.0037386488530930617,0.0024286782113618873,0.006463536850379678,5.62
0.0256989994194452,-0.022710299132596257,9.63008342171981,0.005845315313044967,-0.001958585895889571,0.0029578781879895794,5.63
0.01305218658662593,0.030835919898332176,9.789159258531402,0.00013743443062867085,-0.00029211399423831585,-0.003021741889022067,5.64
-0.11168056065710646,-0.10460091512388281,9.852417895800636,-0.00850637382500294,0.008008849884349639,0.0013355748173583802,5.65
-0.10385300842334584,-0.008265078864218045,9.750049530275652,-0.005659879460776134,-0.004380381220554512,0.0034458736055081197,5.66
0.0979277740013527,-0.07126780948466381,9.682747633785393,0.0026620805322118014,-0.00628254975624038,-0.020132787512034282,5.67
0.12348107489961631,0.11717813794723503,9.879508955637384,0.004698127702513121,-0.0073282009143187925,-0.00592280518411855,5.68
-0.010593076722347002,0.12414691401470533,9.808282021805121,-0.0024096154149523367,0.0012876236982004325,-0.001697058617145681,5.69
0.14336779097430405,0.04006314049182264,9.615913541014011,-0.018082111511670586,-0.002586312371018344,0.01386512993382873,5.7
0.05734239090284665,-0.1570984600395432,9.922112125287233,-0.008790702360625218,0.001461579436439181,0.010091082362209274,5.71
-0.1550021245743007,0.0044405523804463025,9.810704591895485,0.009430736187836075,-0.0015902782224813037,-0.016261717644750533,5.72
0.09703872696694248,0.00047330048079918525,9.818582087119427,-0.012755202142708803,0.0028871139197966106,0.01347440763849152,5.73
-0.23880221054939424,-0.08037989994062605,9.77157351581075,-0.013055162830702294,0.019743267083838355,0.012704326325868454,5.74
0.1541359647736184,0.002441251716086404,9.878770197703387,-0.0027048864190203714,0.012936879385142078,0.003420874422681332,5.75
-0.06987115269358916,-0.04567629411772392,9.730680022445105,-0.01151954910837955,-0.008370879824193376,0.0058672643916228865,5.76
0.12135031251109221,-0.003920433318327332,9.73283427963521,0.003120943562992728,-0.0019541519743618936,0.027054211783913793,5.7700000000000005
0.02954788221711467,-0.10754023650708436,9.87052455896527,0.008250520285176581,-0.013006209356710017,-0.012420349296654152,5.78
0.06527388374767004,-0.09417974390599555,9.904480680566543,0.009733197259852224,-0.00711902801497243,0.003710213660173836,5.79
-0.12169944994968514,0.07191785759694408,9.728526658274648,-0.0017489463408521693,6.493452914962077e-05,-0.002899605447815629,5.8
0.04255135368417298,-0.0900237881596775,9.807741726203798,-0.006453941167125277,0.0016880833871914004,-0.00397259642200813,5.8100000000000005
-0.060322079006029844,-0.10721847653616699,9.798381891963475,-0.008121056654966857,0.005500936057391348,-0.011216528952513198,5.82
-0.0056838759513773915,-0.21281916537230294,9.690387487003063,0.004273810710805891,-0.005154103051477211,0.0038595778882913254,5.83
0.07020629128267122,0.057162014813263266,9.76624022633712,0.006321637626699107,0.011045731185771884,0.009998242756876267,5.84
-0.08870690454109932,0.10998667548798456,9.97420640027489,0.013485714401611728,-0.0072588829442943705,-0.008506191039280226,5.8500000000000005
-0.04805535328740137,-0.051787973841748096,9.844267367897176,-0.012764397266789634,-0.0020429456741077137,0.028712207146226444,5.86
0.13884996997262705,-0.1164297975864712,9.654104589499708,0.002059314970585201,-0.005872215431527085,-0.016434492212243076,5.87
0.004244049634569386,-0.06277487455295865,9.69752188387157,-0.0008024821065549693,-0.004280380789173898,0.015494935399753247,5.88
0.03339110514142391,-0.04819484916520505,9.760445619279315,0.011455939739804306,0.00022787886648761418,0.025521406480146953,5.89
0.022797877128878232,0.0986496761857436,9.803047946371322,-4.866910826886982e-05,0.012283670125060566,0.002470619078125777,5.9
0.08624448616369786,-0.06942655104895339,9.73883859990157,0.010509830359342998,0.004528087279623329,0.007132924764306512,5.91
-0.22459682520474075,-0.1127686573201276,9.716280507184416,-0.005177353471692609,0.003497001849920638,-0.008918381467921056,5.92
0.21248876721328858,0.09304481589977918,9.6524331297963,-0.0032510301057937737,-0.008743689167633014,-0.010455328463438898,5.93
0.10511348500430198,-0.050122439147860604,9.88147892405382,-0.004515147845784161,-0.0038207139836666923,-0.020813801564512194,5.94
0.015006141252210493,0.026110642803915923,9.915600050049715,0.012161808831984896,-0.0002636605824020588,-0.006138172534301879,5.95
0.018479022224141512,-0.09630554944637947,9.896347158695173,0.01233792860436736,0.0018980331572827885,0.0020450098362461582,5.96
0.0859004343992461,0.05814242594596201,9.748269476976771,-0.0031925007581795873,-0.0033463596431029395,0.014458689622332481,5.97
0.004658420581643222,-0.0027843787321229136,9.874557704629932,0.02205267467914189,0.006313333999473016,-0.016104817699874662,5.98
-0.04356162515400688,0.05261359099442358,9.770169992575116,-0.007260042813888245,-0.0036513249625416445,-0.016904761575300086,5.99
-0.06811619236606617,0.00861292091588301,9.822106330513403,-0.0059656529837862704,-0.012407595637111609,-4.799516397802923e-05,6.0
0.03680358749604345,0.1088492156712899,9.735928346834973,0.00665145545656761,-0.004313725119331746,0.0026493149791526455,6.01
-0.14813901621919745,-0.03314518092601305,9.891164037894,0.008118051691565664,-0.009596124922955116,-0.0010095209318724387,6.0200000000000005
0.0025575815308948348,-0.06241815104877483,9.86791946193072,-0.00766985582477813,-0.006857386528871912,-0.015482319183102573,6.03
0.011089308492211507,-0.02947501734111757,9.744221964305327,-0.0071416455511638804,0.010099238236703053,-0.004809435726596618,6.04
-0.15398724248106277,-0.0387967152588477,9.98407194829293,-0.00839834566721979,0.002964377284741692,0.012391330210578054,6.05
-0.035304448341207585,-0.04658592475825351,9.728447236915112,-0.009111473081597744,-0.007568730791651873,-0.005723773969027747,6.0600000000000005
-0.03967828013223504,0.11384160406893346,9.71606982423939,-0.0005452102922502455,0.004982909079252428,0.00869017189266112,6.07
0.04889457311381622,-0.13804509633650083,9.850482310624407,0.005794698412120298,-0.004614956393714008,-0.004311893298555344,6.08
0.012286798134632258,-0.11128286982855173,9.893272370068074,-0.000591023724287032,0.011856224500825975,-0.0057318215080621295,6.09
0.1251199589537324,0.12188752552168614,9.683555074002689,0.011585599600990155,0.005282964918230811,0.006422087698846386,6.1000000000000005
-0.02579806763360956,0.004221972430670197,9.864072969628362,-0.006211401937720193,0.0006820687829515218,-0.005858868150544459,6.11
0.009732864953316451,-0.06905341110565404,9.642285117921787,0.011914414633195605,-0.0031808574703772545,0.006282107376771951,6.12
0.07455121355242782,0.018569267204826007,9.798381511574553,0.004355057766155448,0.015145556880751665,0.001615541936976456,6.13
0.06565962308358228,-0.14428604347650806,9.928433631002623,0.004863560518264546,0.0018716740595501543,-0.006545791696081802,6.140000000000001
0.04872682319178994,0.04277724780882624,9.75070028822697,0.009146462406323214,-0.008831185947972607,-0.004030859018608879,6.15
-0.05235686204357755,0.09938616503891257,9.90280366740644,-0.010815611587513941,0.016440166682894997,0.012588250363880758,6.16
0.11744030904893321,-0.01904411442349207,9.729149202677315,0.004363386012158214,0.0056544806559146055,0.02218839196558179,6.17
-0.001199512506590423,0.11560765867454861,9.744252929484292,0.004435263972174269,0.000395148383923838,0.008500360074308417,6.18
0.08599505011238623,0.06988788880353354,9.854436870538466,-0.011879723840838408,0.006201736838328181,-0.004505142736020715,6.19
-0.1156686938212316,-0.03945729362748213,9.864499203143556,-0.003728073774062689,-0.014381321445437554,-0.007882275915251594,6.2
-0.09252489875581649,0.26195126495251625,9.904610667868427,0.0225414721719159,0.015623861437772923,-0.00965323357020245,6.21
0.18580023359631054,0.05087905386115743,9.782527597718289,0.0156629511408045,0.0006873757237260498,-0.0057329776124940435,6.22
-0.1968943946564671,0.04856991717894624,9.801516157411845,0.0037320972357909065,-0.006371065132836761,0.0077087415233205335,6.23
0.037865031584304695,-0.14162241591677346,9.822054381978328,0.008380572107631127,-0.00603707865577123,0.006848883001759834,6.24
-0.016867809520434412,-0.1784503189229223,9.826662934214516,-0.004471285319115356,0.010963821356321525,0.0017274713790856383,6.25
-0.0417863947820623,-0.04926928041097218,9.922103192318206,0.01862627135397334,0.012979713152934218,-0.005440366228673841,6.26
-0.05343450041131625,0.0596822639242012,10.007745364092955,-0.0037606380516382256,0.01162094783080567,-0.002063689185344527,6.2700000000000005
-0.17096211548983098,-0.020793549682291607,9.726467281616602,0.002990515163858012,0.00676755313746667,-0.00737889396392535,6.28
0.21831776439106407,0.1462442263527896,9.724747327152414,0.0015226846910758346,0.013424499200315194,-0.004246069377520909,6.29
0.05795582257026887,-0.012448679010164066,9.75734766155656,-0.00587571211723751,0.0028544165356083,0.017878459547871872,6.3
-0.0025107939513877246,-0.13724288303864737,9.889465883765611,0.0028233397353264406,0.014360048613405648,0.008537403169759771,6.3100000000000005
-0.06514416103216646,0.14709129228699866,9.894749811763505,0.0014826181930405568,0.002219851739894053,0.007190985196138662,6.32
0.06092520840883739,-0.04731228777622321,9.871477823149204,0.00892472462729772,-0.008513605748349723,0.007487052703341416,6.33
-0.14363619700622762,-0.10199718241806195,9.876843859586433,0.007685501430917249,-9.482439910484254e-05,-0.007250054226131938,6.34
-0.16046067192205493,-0.09825513121899274,9.89954638362298,-0.002478787841767143,-0.007006288457649,-0.005470737195084482,6.3500000000000005
-0.2128230462324485,0.049600055434204406,9.768524256906193,0.013337678419662609,0.009589549878568183,-0.013273833771005522,6.36
0.10074330369489695,-0.08286592241160226,9.82453252022817,0.0015650351145587073,0.000430393278301852,0.010512591617887819,6.37
-0.0027031265427068032,-0.02513336385161489,9.796994799033792,-0.012792180394589583,0.005211295017266313,0.011311343482895662,6.38
-0.12162551979302971,0.05945089058457986,9.809467941018353,-0.0014651701785972277,0.01127798410066164,-0.023571566291679835,6.390000000000001
0.039397198532715914,-0.09968430141045766,9.721282005470048,0.008635268293359763,-0.0027039763915702696,-0.00817321348565582,6.4
-0.08142956154755038,0.042578668182413036,9.680586334246238,0.015136495963051295,0.0024796404663708295,0.0021646583759141213,6.41
0.05208035868812564,-0.04423466885681937,9.663900789607775,-0.01339568490306494,0.006357276872088956,-0.007960749857252295,6.42
0.1389334437763778,-0.02672230169754914,9.925095181330718,-0.004007941029532045,0.008621028263575385,-0.000395212313100429,6.43
-0.13091210281119525,0.1835592211507081,9.876849197293907,-0.010704656464635443,0.006726668039032227,0.000887899620781036,6.44
0.07834091815437498,-0.04323001851043188,9.872328794968338,0.0015179730404646847,-0.027566488292124502,-0.0061471154916237225,6.45
0.03266201706299778,0.05468868840441121,9.839688708480447,-0.004639989846492746,0.004273788801988261,-0.009980959999777243,6.46
-0.005736271839540704,0.05379498157227635,9.865056708074308,0.005695806015681433,0.015357763015126468,0.0050157995571029805,6.47
-0.05850989808401905,0.04306008982590414,9.703915413116421,0.01393144801328331,0.01684419029167723,0.009750607561101717,6.48
-0.06074335616452228,0.0437664153377116,9.783290299073744,0.005264516550609177,-0.0011603816243998478,-0.010687179796619208,6.49
-0.018907387725800848,0.13065775935598165,9.998780054893826,0.0026026400323789513,-0.0034082889136424787,0.017876645685754495,6.5
0.05873094571255484,0.04365816256123179,9.688991252182264,-0.0027325408815569974,-0.02621388531002607,-0.005933879014215081,6.51
-0.010991267647581644,-0.005105627476579844,9.678646777978521,0.009821957047086894,0.004342346283277151,0.010953955424569724,6.5200000000000005
0.025065857528351783,0.07363777549625908,9.843115669598374,0.004570321216180814,0.00044652593364384027,-0.013947045295670361,6.53
0.03180359169637488,0.08693463784456935,9.701544502856247,-0.00024447934488281884,-0.006655408076585631,-0.006467469361809297,6.54
0.05853257437680583,-0.005003521873032468,9.80542341965657,-0.0017193952216852104,-0.010153341667395578,0.012747845085429388,6.55
-0.0484996240297511,0.04961903246219244,9.814149212479169,-0.012783466806848262,0.0022908798361919885,-0.008813995395849724,6.5600000000000005
-0.20257291611883121,0.016612585194145917,9.764959104726803,0.0018487448422148866,-0.0030448580269655,0.007648483179856155,6.57
-0.11932719594285034,-0.08993924157516227,9.77849535665294,0.010503082575173664,-0.02828097413035175,-0.005972141401496512,6.58
0.1035160367513639,0.06070012860061163,9.979955504867565,0.007298941370241526,6.318363492306716e-05,0.00202726531094212,6.59
0.06889418393419335,-0.15809943728081674,9.711436420021501,0.002333545156742112,-0.000600126776340251,-0.003955853026296518,6.6000000000000005
-0.13831324794058975,0.050106118587710226,9.767612936578125,-0.010324350611384073,-0.008999749118854546,-0.0008846865227899383,6.61
-0.22105704700467732,-0.03741039761159215,9.856795919795855,0.010672606988644803,0.014507832651422792,-0.005952467782924974,6.62
-0.002740003886936684,-0.04404467912111476,9.759435531405188,0.008881021407004572,0.0022170976623697046,-0.0008015289453372293,6.63
-0.09258168699959132,0.016030360753505068,9.687001443307798,0.01100307823902747,0.008713372700191482,-0.006915804108170963,6.640000000000001
-0.05987196483257867,0.22929432688018317,9.68219752255667,-0.021641436989967053,0.0178133742534228,-0.022956295600082114,6.65
0.022029925968921022,0.0088410330065957,9.820179329663066,-0.006660475860845682,0.01031041176900207,-0.0021159095575054433,6.66
0.16640354746402536,-0.022261436161108917,9.707387383663484,0.008618692391397976,-0.004413922318951642,-0.0014920017955656864,6.67
0.048366869780994026,-0.0864229993038733,9.732100758640138,0.0038563259601346934,0.007764992894605661,-0.007430351673723121,6.68
0.08650267912898196,-0.19902632172018989,9.802133640776937,-0.0013308443262668953,0.0051250711155241425,0.00022612070978462169,6.69
0.036012490678326924,0.028306039055441098,9.940621904735771,-0.0063931480488036195,-0.0042425715826451054,-0.008458886922106775,6.7
0.07451576228046071,-0.023638434159610817,9.881677864467555,0.016856989696838364,0.015157876137744282,-0.014342790659514841,6.71
0.009113335612053242,-0.05136694293062034,9.808928440668094,-0.015801728992432647,-0.0003297742612977541,-0.0020772874901059564,6.72
-0.119706473250562,-0.0178886898867089,9.83682663289752,-0.008494901370393843,-0.00022757871472475392,0.0157653296262187,6.73
0.07372417854757606,-0.1447709025822884,9.729787822296686,-0.006789670888371914,0.004666653787001252,-0.004678041420274986,6.74
0.058262432636841145,0.04849387267840189,9.700425658982969,0.011959728494576556,0.008657499460026339,-0.023511922192826842,6.75
-0.11857276096121863,-0.030661866158844128,9.842847372717737,-0.01361294306249884,0.012800607794079787,0.011932764359045722,6.76
0.19433913589186122,0.059269135659329134,9.748048104634186,0.012865242470480263,-0.006440653240066815,-0.006656069552701665,6.7700000000000005
0.09395017645293924,-0.020180451653208965,9.80604351229268,0.007470381636565047,0.018755764970767325,-0.010281987116054365,6.78
-0.019453900110631823,-0.02434963071414382,9.913504681392995,0.005849476536131481,0.003195199305057186,-0.008060560930969934,6.79
0.08892584056395826,-0.06463524003887937,9.726055433857015,0.011393960197847252,-0.015111069466484876,-0.003893458775863364,6.8
0.060381597013503645,-0.06519001110192112,9.672167952949643,-0.0028034422348283245,-0.00020285532166295473,0.023168380318753633,6.8100000000000005
0.05151592776814724,0.16453948297599572,9.865876953557205,0.00554344311788274,0.004177722050519929,0.0034252588859507434,6.82
-0.0279669595229166,0.0855513897143016,9.767671408968747,-0.002235558429404203,-0.0027446240715787258,-0.0015810878754174641,6.83
0.020869151303510004,0.04979449992117404,9.86095602681285,0.004012104984026667,0.004010048770886037,0.019039323950609303,6.84
0.019993938006264235,0.0297759218531086,9.781451663076487,-0.00627925031536773,-0.003401941931293007,0.007735105273287129,6.8500000000000005
-0.11509820309297553,0.08972008462902394,9.784233894913005,-0.007244887705542895,-0.008062504951101836,0.020218579125018742,6.86
-0.12904424146438429,-0.05694364126218887,9.831727826342245,0.0005288391606488947,0.005349731902896391,-0.008015865944775644,6.87
-0.05134620459331073,-0.027007601624915986,9.762143867108984,-0.00042355125969249975,0.009171410999246926,0.014635938022749095,6.88
-0.04992932203304855,-0.19061382323004958,10.114535686098785,-0.0018098304686239432,0.006869106061931629,-0.014252498737653779,6.890000000000001
0.1804771231749301,0.07252329722892022,9.836352743555112,0.005928501816534461,-0.008619068727678984,0.016965514532221594,6.9
0.18094091543395494,-0.08486136117163487,9.826202164491633,-0.01215492424653923,-0.0063956468456012406,0.007276962758300986,6.91
-0.09881523346456085,-0.08805880418269826,9.817749705003928,0.004066665858829445,-0.010978126507040772,-0.0049506387810963936,6.92
-0.04636489541166271,0.08153040367871349,9.642871353622597,-0.004171925060359878,-0.014820392145134422,0.005842515336830468,6.93
-0.047682492273923086,-0.1895045388604849,9.983737672064322,0.009551135421236699,-0.0036211245158846543,0.008912862499413117,6.94
-0.13518700035125888,0.16503328853102608,9.729071316630582,-0.009639834162014464,-0.009868410189262482,0.010605852366299892,6.95
-0.0008876378051195114,0.008704141952496827,9.78005286365701,0.010407185871646912,-0.005440157391483476,-0.007747475940866555,6.96
-0.09444063496731189,-0.018253356780907653,9.98251414203762,0.020295446498525313,0.01789932099906005,-0.005056738547100227,6.97
-0.0099422901206994,-0.21992727845393395,9.948173470600969,0.002142181415721837,-0.005311626019099242,0.02244699547442719,6.98
0.06496222673626323,0.1459090560705356,9.936198215892805,-0.008579505698129162,-0.0033268799280145767,0.012093107130903138,6.99
0.14438037090923575,0.0025602416125084064,9.76973672562746,-0.005560524817627606,-0.015017521069325952,-0.005242276778049215,7.0
0.002065472587762724,-0.05004007041417309,9.829455788785966,0.004390480799452315,0.005638871822860442,0.0055941892799170724,7.01
-0.07745557763721161,-0.053163985221887824,9.8502418733504,0.010053686303028908,0.004061853826127842,-0.008408986063025009,7.0200000000000005
0.0018262882659577627,-0.002536840419473825,9.657954288566073,0.0002436507363136739,-0.005902300288786959,-0.009730657448146204,7.03
0.003891719385238919,-0.00493037104274219,9.817121771622242,0.011120176378637365,0.01713880655473023,-0.0066470507064990796,7.04
-0.033852716773632746,-0.04298132739123269,9.870359105293598,0.0012862183271730048,-0.006783604154151285,-0.00161976922923101,7.05
-0.0836706096373091,-0.13714643720562994,9.949891981982123,0.01003089430947881,-0.009084432345627932,-0.006490972266331225,7.0600000000000005
0.05286472645128746,0.05706911584671757,9.83585032277674,0.008249717686782983,0.026349930282136027,0.003429036425636142,7.07
0.13827648488790448,0.14764692675940713,9.855143481717839,0.0012158903491531316,-0.007470625258000434,0.012426007267233693,7.08
0.02091750081785168,-0.11383203162341334,9.738414611593248,0.0031249874315827193,-0.003978901362223139,0.02374825495283279,7.09
-0.030899950253976217,-0.1833986142453925,9.88432821039223,-0.0010778160765337525,0.00040573516825510164,-0.010919319319969645,7.1000000000000005
0.060983827551654504,0.028639558016650697,9.782421234603243,-0.001258859275684948,0.0018370133377750143,0.0009439066611071445,7.11
0.010575142113303631,-0.14601776113016507,9.738650368144,0.0013461624191942973,0.012204545742033833,-0.002213709048208587,7.12
-0.019447531247517122,0.15399405035754626,9.919068430621564,-0.004824039598298783,0.012200659738647476,0.0011974123652587893,7.13
-0.015779249387166138,0.012335953995858698,9.952984501468535,-0.009012098442079832,0.013608990348010193,0.02266422623992619,7.140000000000001
0.017010486547179193,-0.12479196614499542,9.678385562184602,0.017897986272305516,0.00901994615867214,-0.004359979292458425,7.15
0.03652902130029581,-0.005152814292482831,9.867803229970177,0.005984839366028231,0.008859476836484376,0.006717373512753873,7.16
0.04965178500740011,0.05965947715063975,9.831027599544516,-0.004163310818011219,-0.009691795643530595,-0.008414350092010725,7.17
0.03796575579066444,-0.12803260766012423,9.774240328475678,-0.008314136448356844,0.008859317932159515,-0.022722377323348284,7.18
0.06430315591765183,0.060343667234662446,9.818155134333947,0.0035476941213925103,-0.023610333497517455,-0.0004782803969301327,7.19
0.14831082586564992,0.0442741311438278,9.83788456444292,-0.01034172713430398,-0.0036906008022708926,0.00018033498862519786,7.2
0.2303359993038308,0.10161728556076995,9.70429467259869,0.008142434477094994,0.002007935583589614,-0.0026728588004959956,7.21
0.009376519386174871,0.02605464328989724,9.914818118595043,-0.008022723364089043,-0.00372774975304499,0.0004999454821681057,7.22
0.05377382024499482,-0.08556789343917519,9.779365384394204,-0.010034517653035757,-0.01736996434650125,0.005134994343591294,7.23
0.1745846313205565,-0.06678492966113685,9.731745250779042,0.0015797585646350754,-0.007940279907543119,0.017609924848379248,7.24
-0.03249090836215626,-0.08876800211641668,9.881476922038907,0.006158823717143398,0.0014056643322333132,0.015542007781709345,7.25
-0.057671009664313946,-0.005625001011538338,9.862953913297192,-0.011081727673226998,0.0038824382052406125,0.0006308399935231384,7.26
-0.06685301023419957,0.02016608880691248,9.75411600320855,0.014865048645340613,-0.015123143621481117,-0.0026395144151576708,7.2700000000000005
-0.09321987400127191,-0.0358656668708242,9.892279777063184,0.016127022857046737,-0.013020956571173714,0.0029317419042278192,7.28
0.13473474288649162,-0.13497563566765677,9.809051316279854,0.0010703222533528383,0.014790560159584526,-0.012385868383497409,7.29
-0.057446805247728605,-0.12501494546361175,9.799906708131603,0.004029245824232035,0.01079235860360457,0.003945461851645338,7.3
-0.04131812135027358,0.01277425579140834,9.63042703012393,-0.0021134089035456764,0.012557506821147897,-0.0016905441323861934,7.3100000000000005
0.05392443961585285,0.17840516538953094,9.848231955339788,-0.006324884629856419,0.007866276134460514,-0.005385282075414785,7.32
-0.08978221646323188,0.05795122463928908,9.836394997128874,-0.004787029948941759,0.010197227025634744,-0.010562471989811601,7.33
0.22698902201737803,0.12092762915718298,9.923063532080981,-0.02101490602878382,-0.010424198767110173,-0.001509950588105788,7.34
-0.001102695154169347,0.12360293609714873,9.716489837744993,0.002898633701479781,-0.000650262717612142,-0.0005628984245474354,7.3500000000000005
0.052975825067026784,-0.0230320047417813,9.908696599000338,0.015501634878604795,-0.014420689282919643,0.019398011661600194,7.36
-0.019004277766471553,0.11651946929710998,9.755128594745122,0.00407221156793564,0.012040701446977576,-0.010151924997203061,7.37
0.07832568665403422,-0.006401946260348417,9.840547901050856,0.014762145291573409,-0.00979115428747075,0.009826438295452244,7.38
0.03482122262573316,-0.20848099117002494,9.683898557765637,-0.012817477379027824,-0.005732517364527021,0.0153439879564387,7.390000000000001
-0.035367388504416224,0.07699779395111904,9.905777734384063,-0.009569527872606272,0.0008450281835288347,-0.0036234950879162394,7.4
0.036969059685230864,0.13103024610074396,9.865428875754404,-0.0012558646413024408,-0.009288721709131684,-0.0017409903120940249,7.41
0.03838660895944527,-0.087348818427362,9.799601319494938,-0.004233262073838625,0.00681011734166731,-0.012195951587841342,7.42
0.07484549634539332,0.010990857791257358,9.734434741495845,0.006427597548150742,-0.014208805427221579,0.00416374346737036,7.43
0.040915703258951115,0.02652727280847593,9.792688340686048,0.008089323847811192,-0.0019211954662557795,0.013735758667769616,7.44
-0.11256333521365214,-0.08245687832483388,9.752187812650426,0.0005175880344400774,0.002893506044526696,-0.004809042316153465,7.45
0.04517602118061393,0.007805703347616897,9.708173290470068,0.01771300881537632,0.017293022852675217,-0.004445012146219488,7.46
0.044507272948503374,-0.07257784681050897,9.760247138146042,0.000697615435483505,0.018836746497091668,-0.0005698053583192657,7.47
-0.16543487556386025,0.07991789920414827,9.767840453522528,6.657148887104127e-05,-0.006976487964817528,-0.00797097607952337,7.48
-0.114701351238596,-0.04533687561689161,9.873226539839516,0.012886688268775684,-0.002548401200160081,0.01247931229309536,7.49
0.02158851891889961,-0.152398280049815,9.75623643264878,0.010379786083986035,-0.0032151247022667835,-0.020068532872148333,7.5
0.15225126620334314,-0.02928421303416745,9.8792865759142,0.0018547292500933736,0.009256485051315256,-0.003712922711754306,7.51
-0.1803549821032836,-0.02609528900695815,9.789792066873426,-0.008507806935380474,-0.009777715161140456,-0.007221953990824918,7.5200000000000005
-0.2588868099361646,-0.08045944542917405,9.782992421061085,0.021944924138141596,0.015352756782930216,0.0016480006243765183,7.53
0.21331853570202342,-0.2143822419973334,9.721492154995714,-0.006148445806445967,-0.011478297666314313,0.008910763840929568,7.54
0.08791670410216457,0.05542049779229934,9.832502689965274,-0.0027463372647425284,0.01643728810418046,0.004653686986068172,7.55
-0.0867364052268345,-0.1004200688517198,9.950909215497648,-0.0022737221579493573,-0.006842394285078574,0.0011920147357138875,7.5600000000000005
0.09828506512031933,0.0501839349614287,9.849562480728071,0.022352744100615166,0.019030927715631755,0.016564083803751028,7.57
-0.022779771157029755,-0.13647935631935634,9.680486301317869,0.003247031977027319,0.005657084263592231,-0.014505009956896485,7.58
-0.08000344214190355,0.08709707852611814,9.773249620979234,-0.016028666955145293,0.02028704891156339,0.008453556995678716,7.59
0.17397259405434534,-0.05628276313712636,9.91578260386984,0.0003259361227377597,0.001227226650249064,0.0065025742072945284,7.6000000000000005
-0.028283111998122654,-0.03170493789727208,9.532414995247617,0.012376641377785989,-0.0053214293346805506,0.0056720236388104,7.61
-0.041748579958998944,0.15648250233894728,9.707135763313856,0.008192916391250584,-0.008101855307918997,0.005419035286389068,7.62
-0.15408684136110395,0.06496007770620317,9.814027720451108,0.007140802514492839,-0.01853022674010529,-0.01270792987361658,7.63
0.04966001847919079,-0.1463805280196284,9.71555240007831,-0.0011426541598671656,0.003349658404705263,-0.008538842280586023,7.640000000000001
0.14132175313136972,0.07208375402309454,9.975063618959043,0.00799829264719143,0.01568598922845438,-0.0134025674086282,7.65
-0.05920805994519523,0.1236847823745536,9.900037750587746,0.0011146412216521547,0.013010886760843424,0.017954894695438983,7.66
0.02618877989588605,-0.06851447743313768,9.68372032016659,0.005847277822235298,0.0028853532377592144,-0.011344558249794025,7.67
-0.12732848931735508,0.11897101364276308,9.92546385276588,0.0035057397140609227,-0.010588837318290207,-0.006491811174615897,7.68
0.022707652591324193,0.2545888663047061,9.86916776079544,0.011844823649617775,-0.005761128975067829,0.005109375055672013,7.69
0.1703248784340788,0.09956012425250063,9.761032775020265,0.013096754470402228,0.021203141104575243,-0.02102397164716309,7.7
-0.05457118370535007,-0.01725275602377454,9.89477193556963,-0.0029978434396929995,0.007413491473666845,0.0023775817245131003,7.71
-0.08782786359121511,0.15248570192092015,9.776790611526152,-0.01880088099108659,0.010452084822944012,-0.006504742702329758,7.72
-0.054201415586849745,0.0734860087596211,9.65142726259395,-0.0003296741451345587,-0.004576555923429679,0.004853675017581534,7.73
-0.1432031022171894,-0.02433421379886611,9.744639891803564,0.006750143814435135,0.004915430689975173,-0.017987113631734983,7.74
-0.22476436487470522,0.056361121260760684,9.887976475949433,0.004855027123701915,0.01877272919586576,0.0036756358269641716,7.75
0.1449170481539965,0.09155277922087994,9.828824040530314,0.005630040095867641,-0.006748932718751355,-0.014918865195906664,7.76
-0.08671896391674294,0.10968140076503226,9.755994203897812,-0.008729790451572898,-0.00892564092846853,0.004741511104550188,7.7700000000000005
-0.03380492785087725,0.12661910372567656,9.8853051799562,0.006955102321740257,0.012818371725270646,-0.003942954171129015,7.78
-0.33163693144893136,-0.07149462879791088,10.07218395596152,-0.004726593269953032,-0.0043016362073606245,-0.004140902758282274,7.79
0.04934489716897658,0.21111375563786458,9.860683959367314,-0.011685283419481978,0.00015992345808594065,-0.004757009444252753,7.8
0.10946910423439199,0.08902848423973418,9.710386269994332,-0.016039723860901762,0.01606729470968314,-0.0017331863445735173,7.8100000000000005
0.10328141518163864,0.1551544053836046,9.719903664383022,0.007325972137553962,-0.008357817003920031,-0.005376385963630967,7.82
0.016451768713298377,0.00365107907824443,9.903054076571612,-0.0057776915372596055,0.012923413780667463,-0.001043847005588012,7.83
0.17088862457177698,0.05655031842560735,9.892333288718403,0.009437418870210167,-0.004971723067521402,-0.010610624175460368,7.84
0.056103027604146594,-0.0021258907062739496,9.936033064418568,-0.002368830035247015,-0.004177066636585324,-0.005247814748568213,7.8500000000000005
-0.01775145905154849,0.12670595498791146,9.775013228870291,-0.0084581235165192,0.004498876981823661,-0.007465046075319367,7.86
-0.11985664595679635,-0.03356548358018467,9.73487755082178,0.01565436788823913,0.009391373793503896,-0.01039262586540935,7.87
0.09460489380354284,0.03974463255054983,9.738104190624004,0.010234153408562863,-0.000953075082216084,-0.017696901131278697,7.88
-0.0053739381632121955,0.07803298365537252,9.800645988388256,0.0018247596312168518,-0.0011653494581972002,0.0269226383738573,7.890000000000001
-0.19499544137054114,0.051729625577965455,9.735184483015237,-0.005191047994783044,0.004002716190111001,-0.0010475467720467138,7.9
-0.0832276693147579,-0.0665885952404889,9.9626747722316,0.012879290124682117,-0.01569781778287843,0.024152121957069506,7.91
0.1342650106008272,-0.06312258635902732,9.937721912245012,0.007143424247345408,0.02562332767514852,0.015114589873303465,7.92
0.022069731299664924,-0.0014837513445709934,9.753531476245097,0.004248564462862535,0.008999387311124766,0.0005233619371655295,7.930000000000001
-0.03591852788067976,0.1060735221660413,9.866988398341284,0.004149420951412357,4.9209579007057255e-05,0.004842034396520284,7.94
0.11192730970235659,0.05948445604917483,9.844090976575048,0.013944175723334035,-0.006305533671800204,-0.009033642710536366,7.95
0.15831693359245913,0.05425688233044558,9.776516063308593,-0.00035829515125893134,-0.0039970927697857575,0.038088033076876984,7.96
0.06239434417480101,0.2210160338797069,9.879711721634266,-0.01189312985673122,0.008707727328633251,0.014611983429425527,7.97
0.16898907524663845,0.13483821621448586,9.94114524591866,2.9216094192174866e-05,-0.0025601392364499103,0.014574568503258428,7.98
-0.1801123973517743,0.06899019787902237,9.852440944558197,0.0010081693427697752,-0.01307561764298541,-0.0016544869761782675,7.99
0.25147045989124006,0.1606015036078523,9.774410477024485,0.0015566120622981711,-0.0042701438715348075,0.0029680937112997606,8.0
-0.003737307415748195,0.07119760175941724,9.844954296176672,0.002875534778766162,0.013933813440000694,-0.012324554175099773,8.01
0.07002217696336252,-0.06197050929899459,9.794667743358696,-0.0013101187481815665,-0.0009069170228970065,0.007463573793423321,8.02
0.21923648911506827,-0.00019321333204635094,9.862033348160177,0.0028899697107062066,0.0014166655518661774,-0.0024553135376949487,8.03
0.16713752142877392,0.04225229717085535,9.958126306049197,-0.00394169179687879,-0.0012225365299098352,-0.010531430351175167,8.040000000000001
0.07458803461131056,0.00506735917580518,9.599815449032825,0.0006321469014993272,0.00726721186944736,0.007515344240619678,8.05
-0.10105356816370728,-0.04837321244437967,10.106368369263736,-0.01699111422897775,0.00861606247867664,0.004106931700991069,8.06
-0.08953912889216797,0.20532860972578743,9.870360268992535,-0.012627174100639195,0.002193724522505981,-0.013381788777879836,8.07
-0.1778933152148879,-0.08500654965401155,9.691219154494362,-0.013260834611792572,0.0040949813889038485,-0.0024021550434230794,8.08
0.1509776556162114,0.05110999142885778,9.806405509181966,0.004693622073932185,-0.0021431745016602314,-0.011051086137081724,8.09
0.020825675113420608,-0.268339889239049,9.694376434114355,0.0010453603284286672,0.015682646336978384,0.0028341502507784892,8.1
0.12908132218924243,0.03678932876915379,9.885149301885392,-0.0035649613339627977,0.003474742723000364,0.005295764505396158,8.11
0.07847657305147619,0.01361784361370837,9.600056644211293,-0.0006603318577833024,0.02563682944305027,0.016631670886393647,8.120000000000001
0.09626671840730182,0.12053459557808606,9.893721937484276,0.004393639749581944,-0.010045638744405092,0.011879523275073453,8.13
-0.0931827464650408,-0.1617091902138548,9.844534590943848,0.002679164417591647,-0.019531268297424385,-0.002164721380868871,8.14
0.014505466780791572,-0.023593047790728794,9.715353011503009,-0.006889113671192993,-0.011376351806974666,-0.0045816003301475255,8.15
0.044826953591526504,0.09537952600786288,9.94802881362836,0.005542304447380463,0.001261933270776298,-0.002623241777386432,8.16
0.06732980030483175,0.004046395954214652,9.79687792530969,-0.0023650432926294106,0.01388049202175784,0.0034992450439428136,8.17
0.08329399704501095,-0.12996032517249365,9.869608733098353,-0.018603132365635783,0.015672268388488002,0.009647475575660844,8.18
-0.12049656780404278,-0.08313000912842856,9.725791296566827,0.004312086594320428,-0.002928541537005697,0.0046530574488939346,8.19
-0.09371840896785001,0.039811608681952645,9.621012048752602,0.004188027187902794,0.01601648772521841,-0.0028311190423963395,8.2
0.09001819189912696,0.055159780189082665,9.849166126037273,-0.0021243644168442172,0.01185429863947062,0.0014540040928584066,8.21
0.14654096070646047,0.07841941290438348,9.804936981887481,0.007619613590333827,-0.0027081762307058655,-0.004516231518879386,8.22
0.0012197192268812525,-0.07995342818352918,9.784644992708055,0.004948779709664976,-0.014306201515100233,0.010209242230076052,8.23
-0.10042277958207108,0.06405369543566758,9.984939244960438,-0.01920794139296199,-0.004447735011535419,-0.0040811483426039215,8.24
0.1292365800319766,-0.00690618426269629,9.855943152543968,-0.001990034128432595,0.019512379570549604,-0.0010393588612545015,8.25
-0.05072500092847204,-0.13372394076384456,9.886943205016818,0.0024864529880637785,0.017928474265853606,-0.0031253461058170164,8.26
-0.054401423326898915,-0.20355174450043406,9.9109509924934,0.00013032837021392162,-0.016323583792501074,-0.002944490278959399,8.27
-0.056188481214596186,0.05215163139623922,9.443689675593156,0.01049976997257394,0.015370838160776954,-0.006128796689189353,8.28
-0.17178119502094866,-0.02147184082783686,9.786486073242044,-0.020846700785239577,0.005063481387849976,0.016050662514816554,8.290000000000001
0.09171751764343333,-0.045771258677442694,9.708816891834285,-0.004338523429914792,0.00035621879229220786,0.016215006015788715,8.3
0.08956403353339237,0.18252774899067023,9.934622912943379,-0.006176286534728932,0.0034448482399783978,-0.018262540953198857,8.31
-0.003066152807448141,0.23689113397667172,9.651585434873642,-0.00787996003012603,-0.00323653026202834,-0.008729911166512314,8.32
0.2232124996854571,0.1204246617883925,9.87667363632996,0.0033778102024512226,-0.0036599643248968455,-0.002942810101198805,8.33
-0.16614638244972024,-0.1386079935165104,9.80763933423145,-0.029674714182816975,-0.007810074705029456,0.006931207714220728,8.34
0.0575463957978985,0.028875588376288466,9.808814871866934,-0.0071400347953173285,-0.00469147251123476,-0.005543147527164045,8.35
-0.28541583906546614,-0.048333073492500475,9.781262302255598,-0.004650645392986149,-0.005569623731092472,0.0047916284597443095,8.36
0.04903815432794704,0.06373069484393681,9.839470149166482,-0.008017033052598935,0.01119143042344663,-0.005469868748017098,8.370000000000001
-0.03045660507760195,0.10931070061283409,9.488184038953069,0.005616850911034718,-0.0012985129869182005,-0.02633968491705025,8.38
0.05784356117708148,0.09250038375499364,9.701186842250683,-0.0019345697421756186,-0.008020373285279363,0.01621491769966674,8.39
0.07788141179978059,0.06370812144457418,9.862627131271871,-0.009448665311322744,-0.007398753240184896,0.00035835839338248455,8.4
0.022935632899243066,0.06601497861651204,9.699455050579058,0.020242384666324553,0.005785172537745794,0.003718080271693246,8.41
0.157359850686,0.1322047632392116,9.802400688419544,-0.007413289903070233,0.006195643764292232,0.007884230513911194,8.42
0.2589943248052959,-0.05519813079790995,9.840593419751196,0.02208530403723516,0.004784593984671069,0.005831260206622469,8.43
-0.05252171036316085,0.04376205321635535,9.79620449974744,-0.0074321863877691244,0.009079599631780578,0.0120064613490438,8.44
-0.022098967714244598,-0.026228154836625456,9.822361998024414,-0.011812638275230285,0.005083795870696234,0.008438450234937913,8.45
0.2541612168643134,-0.07817494926127204,9.947574721490147,0.004918647519649822,0.0024886107061756284,-0.015889414491552865,8.46
-0.04808649905574147,-0.12037374173090912,9.923749138749896,-0.015532625803704403,0.0015986145509756682,-0.004069157574784227,8.47
0.01850763179077337,0.07984319457925527,9.864713413544155,0.022900889960133772,0.01099542476292934,0.0023249039163350175,8.48
-0.01481323390752651,-0.17138084560352876,9.776058265754418,-0.010792690986377487,-0.011471408400030494,0.001188927048531055,8.49
-0.05176133858967683,-0.017395063821142257,9.783148478959882,0.0006414759766973539,-0.0017580495681970632,-0.013421935302921904,8.5
0.1664813900297334,0.009161622411740322,9.648768454500706,0.010193798094345676,0.0021452401292488448,0.0037360783968312518,8.51
-0.12698791360388612,-0.16453978617655943,9.90503965716884,-0.0039037995127984967,-0.012757664370023616,-0.007995100290672007,8.52
0.1158010979762078,-0.17446283017159472,9.819918294473489,-0.0028840810114388526,-0.0034972626726324507,-0.017661297222917337,8.53
-0.06264742226767271,0.1459979052140779,9.83023872346261,-0.006490170067169163,0.021835594317640913,-0.0142381012991878,8.540000000000001
-0.03126756755580757,-0.18611483685874386,9.816303399386207,0.006949369903947404,-0.004523576795857524,-0.0006508564942860807,8.55
0.08236143298308092,-0.07987966042518144,9.887765282351738,-0.00355977527053072,-0.005744949571679726,-0.007900431498676105,8.56
0.16322849705166087,-0.06685018902888278,10.064752967715695,-0.004231865439372251,0.009749924387139569,-0.004407317343677587,8.57
0.13076553663258825,-0.06372692754080413,9.804616089874788,-0.023275282899138126,0.012247864369046188,0.0074936856453829605,8.58
-0.06408908962624751,0.004299432096936924,9.964057795743111,0.0016774143234598693,-0.002649680854471087,0.009969917679906412,8.59
0.02614486324357991,0.05823613502096667,9.981117023241172,0.00973142429336332,-0.019239191641974077,-0.0001662219045363688,8.6
-0.06218215344197856,0.08861126600175806,9.79611885294654,0.0031311826039612236,0.005249504766817071,0.0021199831434040818,8.61
-0.1760186471326532,-0.01055345841150474,9.918025326664061,-0.01062669328235622,-0.010496699190288375,0.01000946151959401,8.620000000000001
-0.08865085210291235,-0.07221092707253429,9.597837662976547,0.006956085704043073,-0.005162437622145413,-0.00619766911861835,8.63
0.07380712556845008,0.05369636791764133,9.724700157502545,0.02017867201622512,0.006807379457813231,0.005585897305601963,8.64
-0.16923672912631793,0.05601976530371727,9.699245239183018,-0.002091533255558483,-0.00038332474757920464,-0.011360017602790469,8.65
0.015563447783309188,0.09846127896466238,9.854268927247055,0.0014188130651349646,-0.008033371448524975,0.0009066342677658025,8.66
-0.0013392796519419454,0.25633475588355376,9.850773902448678,-3.899573161279816e-05,0.009543415894125029,0.0035462990723492648,8.67
0.17274460071622857,0.05876075643704413,9.747387166110972,-0.0018557313970628576,-0.014601616228749314,-0.003154708885828762,8.68
-0.19089042031126568,-0.03823074988148241,9.769665558316524,-0.0018405066949934723,-0.0031446963024525567,0.007000590108627507,8.69
0.19585202550996883,-0.13432893703282192,9.680136086502038,-0.010084676739671975,0.0009909412193643149,-0.01226829619717419,8.700000000000001
0.04563309659951647,0.04715890538492569,9.774384078252238,-0.003186988617432534,-0.02586375328543931,-0.003975383187734494,8.71
-0.09871137261843405,-0.011693120954678664,9.639127634824824,0.011553343741016235,-0.01832846633704604,-0.004146590919890355,8.72
0.005792929558958715,0.2727529614424403,9.909274479662555,0.013656712514113704,-0.0169321012804093,-0.0008054080012827546,8.73
-0.009221826071854329,-0.026568343913510747,9.779442566260983,-0.0014597328440788414,-0.019863481771639952,0.0003829397206084314,8.74
-0.12006872664699891,-0.17545688977418072,9.7928171101198,0.008761736668650584,-0.007464385756315194,0.008641956488067922,8.75
0.037812451256607565,-0.014418265901157244,9.822872317251809,-0.008883956827212087,-0.011625516903322464,0.011940726961580269,8.76
0.008579001470886692,-0.06291859806242499,9.753323550113933,0.010846942618808057,-0.00811449261798756,0.003384429087756219,8.77
0.049674613370004915,0.0022535923016101466,9.867676953276357,-0.001380570515385782,-0.014237388986107997,-0.01934301564757707,8.78
0.18963942473919695,0.014935174513962396,9.73325840348315,0.0061659695294948545,0.0010696281942851624,0.0011804485794631005,8.790000000000001
-0.024372330749916918,-0.045548394064057966,9.780114584511658,0.009257626659989594,-0.013428289589910151,0.02041819327801861,8.8
-0.045218314334284554,0.006729052509550349,9.845456457854306,-0.01539123106422815,0.005533930252181676,-0.0055091907619867235,8.81
-0.07465006512674872,-0.056476138361978435,9.846006741327145,0.016596906115989116,-0.008697056868583885,-0.003513797785359503,8.82
-0.0003382723493239765,0.06841732428772011,9.7798529030592,0.010434174619579198,0.007387778990727301,0.00680154037808781,8.83
0.07260603452122762,-0.16423523259618347,9.754187935518491,-0.0030875904127845967,-0.004940817311459119,0.0009210525935930761,8.84
-0.0598732609798885,0.12043840424606234,9.813583727665408,0.008153870742863709,-0.006027347659188568,-0.010098069257080265,8.85
-0.0547297722337948,0.050676744572153154,9.626736270647504,-0.0027656625757687616,0.02115200530576952,0.011463818104650374,8.86
-0.01662369161303925,-0.06646448556900468,9.819316527769566,-0.0029578710013686937,0.005258519905106959,-0.0054422564923757065,8.870000000000001
-0.024526777147201202,-0.1937443706051193,9.970129824508142,-0.017836395909297583,0.0006532816555692507,0.0005064515589434399,8.88
0.05807501618434183,0.081808958204611,9.774388163997488,-0.011432716745133324,-0.0043606524932461085,0.0005079451333039788,8.89
-0.02956412375067521,-0.14558455314159346,9.77900410576392,0.007516670632746353,0.008178487977105941,0.0064576066084881135,8.9
-0.03140906740446495,0.1616347659282656,9.784322274055182,-0.0040787515205162345,-0.01685322764472553,-0.0002671587484256174,8.91
-0.011363595428252955,0.05629142556087614,9.802984016323066,0.0059429804784110465,0.004980033564706723,-0.0037302419560298677,8.92
-0.0793582834931738,-0.1124383895408073,9.784935049558136,0.01810426372920842,0.0010347396138913243,0.008764503204926687,8.93
-0.06524481243533096,-0.0887459867344547,9.706697760378068,-0.0033987021392560966,0.0017213668330510962,-0.007202345938495479,8.94
0.15831536046309794,-0.03397924996973321,9.687670797742914,0.0052588555040116326,0.0016647250014446594,-0.019615941590590595,8.950000000000001
-0.07130101228300213,0.08227678576292222,9.843451736273682,-0.00704750027721994,0.0034713818478702024,0.004627222319323139,8.96
0.07231948876877202,-0.08970512529312813,9.832472939455899,0.008845329316395041,-0.0020858872109676355,0.008761244423686485,8.97
0.10638276033003019,-0.042309497385488025,9.810361553677948,-0.006389669918263445,0.0031782020856911527,0.00683061943890668,8.98
0.09270775130390208,0.09526960281507624,9.880595475511093,0.01707048243097658,0.003452550576428244,-0.007681832228676859,8.99
0.05169386992712813,-0.04816347807544529,9.767441409232859,-0.013006865805266683,-0.00868647181638536,0.0004967999321774365,9.0
0.2358947494574437,0.002252690784355878,9.75655079697363,-0.001102330450132362,0.00022756337804439295,0.015244975727140985,9.01
0.07071956424499902,-0.04729900571862736,9.739154722717196,-0.00937615885954513,0.005663452875635009,-0.005698899584953204,9.02
-0.07918575165388675,0.0036201364593475144,9.932910743657109,-0.005257251291631299,0.008659133382507322,0.00025787916359047724,9.03
-0.08246002444495455,-0.010413746078026533,9.625942765354386,0.026890860895189817,-0.008782799195408857,0.0024187621355642487,9.040000000000001
0.19785735005741778,0.06804223384651407,9.940321036307862,0.004479898561766937,-0.00023339143573814728,0.012343657819693127,9.05
0.13707099426292174,-0.02042172924765847,9.761057722248184,-0.0001851952059164243,0.008785535307211748,-0.004728740908639074,9.06
0.03553786451767491,0.032230412423844126,10.034058457280315,-0.0004986765684169834,0.01565291395482393,0.0028860166992213977,9.07
-0.016024396814045338,0.060110640026671616,9.730958058006397,-0.003971902610445846,-0.0007076893233784845,-0.014723274425203246,9.08
-0.02626216202432617,0.012300689578966694,9.961192955913878,-0.013896078179424915,0.00816365654982515,-0.004234797675756747,9.09
0.08050624937116996,-0.10846555081796452,9.839583451957173,-0.004441577886458757,0.006748358845357079,0.0071952951879375605,9.1
-0.015228268784810468,0.2517297737437207,9.80909813484616,0.00804689274109926,0.0015903202282299329,-0.021942621313982613,9.11
-0.03736148137492506,0.03887332085449798,9.810564014171959,0.016272411445493455,0.003301183875527871,0.0074644315240189885,9.120000000000001
-0.11216117614848314,0.10245345366016834,9.753470448320893,0.012478397120386177,0.003055593648850254,0.010225118320621878,9.13
-0.125972467372417,0.034136961202404496,9.787712765908685,0.018879944491565652,-0.008347425097186043,-0.009628615004224133,9.14
0.04747618434649872,0.04507734671319981,9.828232040374198,-0.002986225169175875,0.0009707834412857261,0.006849437994973996,9.15
-0.12472991682106585,0.010394272455070288,9.779300738678554,0.0008140651481265864,-0.01116355617115598,-0.002072218701103914,9.16
-0.06324656622163075,0.07228439405626912,9.704028722309639,-0.013896300562401445,0.01757945624222595,-0.0008577365138375145,9.17
