ax,ay,az,gx,gy,gz,timestamp
-0.07637573106915599,0.00880639005358263,9.8343640329604,-0.005106795963913569,-0.009156520652232924,0.02348689341178653,0.0
0.07808702145303889,-0.06393447873360711,9.756845095967149,-0.007500549043056388,0.012436983178688934,-0.0045772778954820134,0.01
0.16518001320547884,-0.033365841963514366,9.798082346305506,-0.00999410766849772,0.0037824461104859304,0.0006385966088765035,0.02
0.03692208318019526,-0.20428720613624685,9.748978877415269,-0.0029716494963328115,-0.0034174270929076523,-0.00883852110658845,0.03
-0.014389383315940097,0.2388111879698531,9.968957308479798,-0.00861970789517098,0.010204019972103953,0.007040911594467208,0.04
0.10926680282904067,-0.2474143390845852,9.716831827717185,0.003550192742992239,-0.008860183291881285,-0.0021935569035840953,0.05
0.0074185913846161085,-0.115015000661153,9.806371420759572,-0.0113652141685516,0.00798402911334586,-0.008209324254301539,0.06
-0.0071759915382699595,0.11733692077714358,9.875356888317295,-0.010187627528759352,-0.008059994240761249,-0.0051259372107012955,0.07
-0.027255858382774258,0.03327354425623565,9.868751226050998,-0.0238634939669661,0.019959285467204563,0.01852408387020908,0.08
0.06785683761307461,0.09689046615257813,9.797811196925753,0.004047525997515798,-0.006559452666656465,-0.017318471675752237,0.09
0.0540574208088514,0.04344808998113228,9.93377361589311,0.01630872019030121,-0.013776719639230517,-0.012731430425726402,0.1
0.019542833477528155,-0.10974445349522899,9.729289758303526,0.016779278602694847,-0.000689142876646195,-0.002632131486296373,0.11
0.07060578590374562,0.08095644051570547,9.785879923112038,0.009190373347672968,-0.0040983760595297,0.0013327237873365506,0.12
0.0949504287522525,-0.05394737742396041,9.716995378690726,0.014324072120247104,-0.009526046398590901,0.005871092414765124,0.13
0.1368200928904074,0.022897391521729135,9.916433474488763,-0.003382828483874772,0.006965400229190038,-0.005229957445101765,0.14
0.04879055329826991,-0.16632050956875166,9.790726304758214,0.0005534096711910929,0.0013249603132170621,0.0009967431309180746,0.15
-0.060427901882275564,-0.1148176421498735,9.89641372581739,0.015611227989870783,-0.007349596732421814,-0.004867965856883791,0.16
-0.04866869717847578,0.06161350747556708,9.784062572789516,-0.0011846933024743502,0.0019128236181844074,-0.032741909339497124,0.17
-0.11265647012768272,-0.0790848829437167,9.800776382092623,-0.00599809636129621,0.0028855730754864368,-0.001007173808891294,0.18
-0.04726853685355182,-0.05268654326932183,9.867784348098688,0.007697765381064349,-0.0025241531408229678,-0.006747228649271829,0.19
-0.008086971556160822,0.014471288172010446,9.833631370511268,0.022108746148926925,0.007747981333548434,-0.00801571799890896,0.2
-0.06633017673634528,-0.06664017287675453,9.865276107533424,-0.017297298064794693,-0.0007646166791895851,0.010932723745853414,0.21
-0.02554834070682549,0.02620210658141006,9.868217885004269,0.0005961661106458017,-0.01664607764744747,0.01686744842537576,0.22
-0.030484933664320174,-0.09587756047042385,9.669762466951692,-0.004903202222320492,-0.005585594155525761,-0.009449817645430219,0.23
-0.016845199390838356,0.054251727498753524,9.84226775479582,-0.007682542110646486,0.000628313445620877,-0.008580360542968854,0.24
0.05869671084731623,0.022962773953885754,9.88174611410526,-0.005753129287729697,-0.009201455795244657,0.0009112575090702172,0.25
0.04017572982305207,0.12128599651734828,9.832437914071978,0.010273461617256903,-0.028275053152561323,-0.016942669621206496,0.26
-0.058113186011476026,0.12120715491962722,9.7568409085708,-0.015693695944398196,0.003468555990150127,-0.0027467676281085407,0.27
0.04609038112419649,0.08888629742225726,9.888421759175673,0.019047338039244438,0.004999395515983793,0.0025902435683370756,0.28
-0.0502002336503553,-0.04201232992565284,9.78463020399727,-0.003147410558398997,0.005285000505616579,0.015232873485112427,0.29
0.15865825595351316,-0.15508559179924336,9.744153785920059,0.005620350348170186,0.008740261404036621,0.0031644568338424035,0.3
0.036823182860310756,0.14727432985549357,9.736812892875339,0.006600515225621524,0.006210337634011111,0.011312225622164145,0.31
-0.028035624237653135,-0.1292001204129131,9.881877218134386,-0.006683105251353489,-0.012610842279335675,-0.013185316050077703,0.32
-0.06453599503485487,0.10637649688443554,9.693540989649872,-0.008788988482628114,0.008233325476197548,-0.004701309932451718,0.33
-0.04237507505570464,0.09620984455801909,9.846100362567054,0.0007720231245954756,0.0007902339568799913,0.0027627349184547903,0.34
-0.05138774929136,0.15361620108797455,9.812568796664184,0.0013720452841074102,-0.020088286268952555,-0.009626131836822805,0.35000000000000003
-0.07612421706339746,-0.12381627080398445,9.816302474576673,0.005835164046758525,0.007373267390741919,-0.008372740960667127,0.36
-0.10767016421036034,-0.11946022637652981,9.797459106238687,0.000354043369724333,-0.020218361910473756,-0.008481553972534901,0.37
-0.09536438658531293,0.19206608043616422,9.852722395761624,-0.007359506385583837,0.0047410532897583955,-0.005800271193565347,0.38
-0.09914965359707752,-0.12037909540070997,9.782747534509353,0.006756094935576841,-0.016546522049195787,-0.02006326762727523,0.39
0.05183557349190751,-0.05903858598367356,9.694734705722853,0.002013314176623824,0.02535529393381552,0.003747686018157301,0.4
-0.09385895445414792,0.0751497191206974,9.765211883683154,0.005857814047448035,0.02568806829768536,0.011830875055026011,0.41000000000000003
0.00487687914411848,-0.011478744984253629,9.726160492865718,0.00019296511728616423,-0.0020670982499768945,-0.013553394640158598,0.42
0.04975824357067292,-0.03650340039563185,9.956523539985797,0.007733152384629156,-0.017394419574054958,-0.010096543001537825,0.43
-0.02109735048553656,-0.02898591368038584,9.742236630807817,-0.006553408830730368,0.001414459598576459,-0.008093939989634629,0.44
-0.008832501214207839,-0.02531530342969947,9.826765997777244,-0.02475338046190945,-0.011117294275827132,-0.0077903943624059915,0.45
-0.10981672056663183,0.017613307485764562,9.663223339014198,-0.0061330967281867325,0.0037898840524000937,0.006130576841182518,0.46
-0.021869934289420682,-0.060971342833987634,9.7267500313878,0.004224024280808538,-0.007033992210659169,-0.007103932469160011,0.47000000000000003
0.18154554545783996,0.052869185670383914,9.811799767378764,0.00575284037493313,0.00404739722949817,0.0084052686820757,0.48
-0.21905392420883496,0.007194574484932989,9.863300978971298,-0.007341759279588027,-0.0010588584405064572,-0.0007060395152210401,0.49
-0.03687058111590007,-0.1070914907214569,9.750811680092845,0.02321681703165361,-0.007937688675740852,0.018917276998915548,0.5
-0.0916298962966891,0.02684798239014386,10.028696326133927,-0.019069134635988774,0.011247097508326377,-0.003943396984345089,0.51
-0.027753685467790213,-0.020355269098375026,9.6847219396616,0.015497449232908848,0.013719034967612134,0.00437568970701549,0.52
0.0401309790678825,-0.08895995393133414,9.64122513072274,-0.0029999293576516363,0.003187627254875799,-0.001345929374965289,0.53
0.022422252752101184,0.04697563282858543,9.730856682089112,0.004759534917316806,0.0056936678401649675,-0.00028868019829802685,0.54
0.10234451954479667,-0.2076793687437807,9.826635491477981,-0.0006195391901491566,-0.001667346063025788,0.00256502694370485,0.55
0.049068640281863175,-0.13635866086891552,9.76939223401059,0.0049042815306519555,-0.00032103630461954266,0.00048339250481996537,0.56
-0.024285023221895324,-0.06737347734180861,9.718568162036979,0.012316130761937112,-0.01783368161202374,0.013714802070160648,0.5700000000000001
-0.09186124996953392,0.018118780789595897,9.762767035797074,-0.018735198193013634,-0.010915734534649007,0.010258352832448222,0.58
0.015513623366861021,-0.04393710581900665,9.775654603038289,-0.003064478532844682,-0.010201835824444134,0.009961827907822414,0.59
-0.05466657638326369,-0.02275922056240029,9.839665528453873,0.012852474098767344,0.010974340526912818,0.014243969270215871,0.6
0.1398181755804487,-0.03216637372031754,9.705202612798237,0.004512890483316149,0.01062453150661987,0.0001776856665424671,0.61
0.039552721864905716,0.0004142769669325148,9.78373547295864,-0.003053148372623951,0.005002868937038135,-0.014785771216722018,0.62
0.028179482823263075,-0.034893928068821314,9.85417747260797,-0.0009005600999484736,0.006950717341558457,0.020851802753160877,0.63
0.29538591221814636,0.051534465827002135,9.76597553721142,0.0017712056243581456,0.010077247670165948,0.012288583733170098,0.64
-0.03395790618398447,-0.0887844624934328,9.745456969859378,0.0007484166787275679,0.001836591660862848,0.0005581252354177664,0.65
0.01701269355071017,-0.019280511025228642,9.962188711289302,-0.00893897583618721,0.008998033127165383,-0.0003162537476641815,0.66
-0.08596891033812006,0.12057644305932694,9.868022456832076,-0.0008045549012879273,-0.0055723420791070075,-0.009497815388136764,0.67
0.11327547781188332,0.09543263110459925,9.711147846424478,-0.017600132770855988,-0.009127882014050038,0.007740760498494601,0.68
-0.2355689463679863,0.01280951594158441,9.698077246227703,0.0039935500809346195,-0.013723139917406035,-0.008810134031569604,0.6900000000000001
-0.0033321769557827564,-0.03943323998988,9.668481895851924,0.0060178667535922305,0.008044674140456396,-0.008724224304752105,0.7000000000000001
0.03827549288410409,-0.20795981500906513,9.694181145962082,-0.0031878020453282906,0.007312471940133637,-0.003741484750925369,0.71
0.035056278557582775,0.13646379740713088,9.793978685445786,0.005909537504125647,0.012035715745289171,-0.016153577462831865,0.72
-0.007040904979741955,0.13357404877011625,9.881200376582585,0.00025648370727543386,0.004651984125784054,-0.009523052499991035,0.73
-0.09706295888471576,-0.040490279454896506,9.885905720463182,-0.006961233248284062,-0.0034648085852372846,-0.004667251493959413,0.74
-0.009352668991252802,-0.194880878481687,9.749851153888404,0.004097875261708427,0.0096504570029051,0.0118622349735572,0.75
0.043717515758824245,0.12133316287247782,9.747718635558115,0.007334140409733927,-0.017195817795839948,-7.245882042633673e-05,0.76
-0.007669462756394273,0.24229187565840046,9.688228002659084,0.008636987636283204,0.012157164053883993,0.0031516900549001044,0.77
-0.0937245845843912,-0.05971850023910075,9.886842638856537,-0.012432975094694352,0.012730064855692776,0.0026432062851519593,0.78
-0.03542089123382736,-0.03868062888186142,9.744489883148978,-0.017918191747510054,-0.008747230653737401,0.0028842943495367723,0.79
0.05583308037864383,-0.29524539950359024,9.794825952458407,-0.024476503087466718,0.0014281107794609715,-0.0010776652365544202,0.8
0.06640085332622186,0.06432194818478608,9.825364568560833,0.009412182672766663,-0.0062797985262645455,0.002175935431641119,0.81
0.07334544958334165,0.03101244710047288,9.695748699628545,0.02200571420094982,0.006155756325285674,-0.0004815850599643465,0.8200000000000001
0.08231330309459053,0.09855479377525757,9.920268562770609,-0.004751845728740614,-0.014328763383608608,-0.005684579482755853,0.8300000000000001
0.12119079241259607,-0.12429083230264378,9.729041790266763,-0.0005982511825891572,-0.005073716574864185,-0.019526620212800917,0.84
-0.044731133125322245,-0.07218322166043238,9.938408402574762,-0.0031895639766571534,0.00999866408326796,0.00912146565703692,0.85
0.14084256655460445,-0.03938099526621931,10.007722637461638,-0.0032349922196186656,-0.004451094465640327,-0.016681634839365075,0.86
-0.01908166946454002,0.10326627691557054,9.837283745438128,0.0009745091083187272,-0.014734281387586683,0.004048179373174299,0.87
-0.09085920796989061,-0.007084246120881069,9.9034524184373,-0.006936598685795893,0.014953646437003781,0.01305409235978866,0.88
-0.14453483099024644,0.0794107720061743,9.655564050464926,-0.006101848157745714,-0.006200715046645913,-0.003947563477641577,0.89
-0.12790061927679064,0.16323550492345051,9.958834546978848,-0.0035688849669622707,0.009699366854836583,-0.0067414156572183,0.9
0.11297920724436286,0.006299055768291125,9.826746599579886,0.006439797599673567,0.0108727614598325,0.003068466420852491,0.91
-0.07148922604019262,-0.03498039643359908,9.851826215527648,-0.0014675804003953766,-0.0033048961261391415,-0.006123626508024826,0.92
-0.14618686811281698,0.1563531935200891,9.66712135344958,0.017424697655304425,0.018294938440394714,0.00659601031918577,0.93
-0.08214590997984263,-0.10186663931370828,9.809442474988037,-0.040183014409083236,-0.013883939821342077,-0.007190843979360361,0.9400000000000001
0.036806641314552586,-0.039716674835634985,9.876976759116927,0.003921583880738589,0.0075428313229359235,-0.01885112437271914,0.9500000000000001
-0.03340647510828689,0.0024435307489090443,9.684265961090004,0.005304039325601033,0.00946622794106415,-0.003046215613571633,0.96
0.03674016348666154,-0.18957543428427398,9.705464390595605,0.003123577665697465,0.00711396670788341,0.0012821801606397426,0.97
0.09506112229085077,-0.13092127946593288,10.054097116755704,-0.0067667812749655125,0.009845817721211363,0.00026432327899823403,0.98
-0.006595297608515663,-0.04542841449704815,9.74855093738419,-0.005817572408058975,-0.0072634784784643535,-0.0036542496020230326,0.99
0.06844650240748161,-0.08099331069272643,9.925363190031817,-0.004877844329988037,0.000685193165469897,0.001236171035755619,1.0
0.018201340710465395,-0.11589971985841806,9.598263178665032,0.004267789334039332,0.00925550455376228,-0.0022519950585276234,1.01
-0.024752256766593317,-0.09045675159219775,9.897235505034317,-0.005039977740677488,0.0037311344759445777,-0.013854205398779127,1.02
-0.1961058947672998,-0.02477375816383146,9.84996422032135,-0.0005679341624057268,-0.006083230805725361,-0.003721287681271184,1.03
0.0572661168129878,0.07340890748257965,9.828459511690939,0.009132371253624485,-0.0032207390738786513,-0.0012879257754090851,1.04
0.018127250784186564,-0.12236008718145866,9.834934721753097,0.012028418896078566,-0.0004195572306467481,-0.01541657274148938,1.05
-0.02553232030409643,0.12930994370330554,9.637976100359237,-0.008072879465795494,-0.0028838935160052574,0.011346396439108081,1.06
-0.035442404602996094,0.1075344451665522,9.604928836005957,-0.014401964505566672,0.011871678940310404,0.01139964492789887,1.07
-0.19743911089062816,0.2096857963378867,9.775632344747198,-0.010219696059585056,-0.0016985267722592263,-0.007707733346914445,1.08
-0.02090254006139748,0.005595560499925367,9.90334656944099,0.00555635113398692,-0.00449472751548695,0.001430034410025137,1.09
0.18116370019942096,-0.2291387744425861,9.661518942223164,0.004642406246820152,0.01864362387559559,0.016000879558442625,1.1
-0.026892600946482072,0.07633146383279828,9.790284510211247,0.005552141906234609,0.018217706261550577,0.015458724513451864,1.11
0.02207120792423513,-0.14402344102068626,9.876663288900259,-0.0007520918643965438,0.006216266615227937,-0.006657806994875582,1.12
0.017614246665925967,-0.034223194794106494,9.768010309493564,-0.009919319234753062,-0.0011621953796108041,-0.006700519289050591,1.1300000000000001
-0.01748336911461,0.1451496060968877,9.6593477831618,-0.005969561480055353,0.0004096494515809122,0.00769919367286179,1.1400000000000001
0.0077492466067335605,-0.11823329114747656,9.896083741991918,0.0016542103192067367,-0.00931828940933374,-0.0032959413480959003,1.1500000000000001
-0.01868002044632638,0.08955022621441114,9.761126399921078,0.010001592311903229,-0.004900865524270435,0.0006796739058025799,1.16
0.17009650588117506,-0.1282668587865061,9.81562015681008,0.006237499726244624,0.0037474979461357043,-0.006520060437178691,1.17
0.03017166346837511,-0.08573579792847325,9.718803526320734,0.00785324548322113,0.0020869503744548818,0.0037163489019199844,1.18
-0.09348625246770818,0.03384266674517626,9.88631887279469,0.010345834891106026,0.013383702236158262,0.003913598670456461,1.19
-0.09298178291939767,0.15579523693926445,9.699685643579178,-0.014929202103235952,-0.016474017928529944,0.010548655443479516,1.2
0.1130009793952101,-0.16656221747318295,9.762484459498209,0.024034971616433875,-0.016903069351404655,-0.005990721524268695,1.21
-0.011629057782711328,-0.024215001573868116,9.800493278527501,0.008133760024310654,-0.00585153580984949,0.00249782415097508,1.22
-0.045219876113012064,-0.06998825758545711,9.869026226814128,-0.0010433297870182407,-0.0052657661841483865,0.0058756082288966265,1.23
-0.031148403865761898,-0.07406183047404473,9.828629269228262,0.0013729311914917194,0.008087021952850272,0.00017511344403439203,1.24
0.08165955979726466,0.006972982015132777,9.890292619702368,-0.006131100593645329,0.0042659126007653855,0.0032545594170573016,1.25
0.0524888427540409,0.056868953260831,9.814237380452665,0.014049739499967122,0.002874304349849455,-0.008644240394302501,1.26
-0.09117723329324436,0.09199951815486541,9.782394230660124,0.005938086034362232,-0.013782205652223926,0.019917282557314283,1.27
-0.013089520131903907,-0.1017205916491692,9.927993956119693,0.012154872286417323,0.005543362243427903,0.003856861392835711,1.28
-0.016185330775573645,-0.0224590537598507,9.872304313316025,-0.01416442185906713,-0.011928119526851091,0.019130609386770314,1.29
-0.05283647403776966,-0.1526678738362803,9.753849157384014,-0.003138368190720449,0.007877065400802286,-0.0004941910569530676,1.3
-0.10099862576449864,0.17515450852066472,9.833106173224278,0.0020626549219446757,-0.008386877483899595,3.1980793050784224e-05,1.31
-0.007157079042062921,-0.09925138094561842,9.781649725017585,0.009922485295619317,0.01572817640414161,0.010281581370697228,1.32
-0.05069793087875282,0.12727143721862097,10.068360165245968,0.004232488347403743,0.00486560363939548,-0.004752143502656612,1.33
-0.07654035866617362,-0.15095817975384734,9.859276656178386,0.004015303036870414,0.006597305106931256,0.003442837311229253,1.34
-0.011890930029420137,-0.10754725323941859,9.736692457421173,-0.009092232378128826,-0.0037379226516586397,0.017595865252943235,1.35
-0.12492617780332414,0.07674795355235156,9.846669946034647,0.006132158319933339,-0.0025533701754028616,0.0010199397536843086,1.36
-0.08253757669576905,0.1564399178323127,9.788404910787031,0.011198871066997098,0.000836258764841996,-0.00027277424132921403,1.37
0.07739286658456468,0.10202724388447225,9.69298330754087,0.0014589043235175357,-0.01986291987202893,-0.015902343593401206,1.3800000000000001
-0.08024185397737892,-0.12086038212353888,9.716329301806082,0.008820834437954186,-0.021028131495914516,0.010654627405516827,1.3900000000000001
0.03927566539142899,0.13003458025500114,9.835334011972806,0.007537662710116181,0.010298417551061399,-0.00027192860458080133,1.4000000000000001
0.17629535225780746,-0.0978126856773186,10.045144958882638,0.013035625599590896,0.02071028743768764,0.017115961029706077,1.41
0.022964952332224578,0.044457267456841296,9.569954117267523,0.012867105730867537,-0.00328976391760217,-0.00381283383120464,1.42
-0.12872398433985333,0.006775601424048067,9.699406439814528,-0.006378221862068707,-0.005227061014821946,-0.011041741240367713,1.43
-0.04257042746701384,0.03435835937054522,9.855138154954465,0.006176978675880445,-0.013637585914800947,-0.007377948865817852,1.44
-0.12618900034839967,0.01611494014761867,9.784627588764627,-0.01315216386180685,-0.01219977363362298,0.01614761920026757,1.45
-0.03151936048758185,0.1167574841914858,9.799135896113116,-0.0009876911435279857,-0.0027591168699280027,0.017624045027721056,1.46
-0.009300394639540256,0.17119054546432766,9.93296214597535,-0.007818382439301578,-0.006207024359338248,-0.004668074099658666,1.47
0.031128639562688066,-0.023476206424436187,9.759196617822703,0.0039228506532786415,0.012287081901048378,-0.0086117974922862,1.48
0.05101447528221459,-0.002127716981414994,9.856216942825375,0.012626768612248918,0.008404143600198548,0.005285890291611904,1.49
-0.04846464004894461,0.07286004805827666,9.633656920754024,-0.01192635263908954,0.0049788144199939665,0.0010196025889611486,1.5
-0.0008247445869173465,-0.03491288290799688,9.99642261427529,0.00502141647970392,-0.015152622410011536,0.005301399560391009,1.51
-0.0056474528493783895,0.015362573367704309,9.867636293635007,0.015529078026835773,0.00805795052072249,0.01094046290900123,1.52
0.0978905933866884,-0.09757450298349685,9.74253251709859,-0.002487021201640888,-0.004443393244843532,-0.003836186415592092,1.53
0.06654701025369268,-0.029925523401423876,9.852343587985159,0.00042276027000967396,0.01142791438436912,-0.002623283668925407,1.54
0.13019550318098994,0.11642550902983857,9.861125365002911,0.002803017777532839,0.005543564256105238,-0.0030274114804210495,1.55
-0.008459187677408083,-0.011952303031876048,9.790860712519203,0.014178017628515255,-0.004807116832186572,0.006080960151564889,1.56
-0.10230977531628599,0.10137390062658812,9.730829876387205,-0.00658027564222658,-0.010928353942287392,0.00493986935777641,1.57
0.11278542520559087,0.1482569561182587,9.83361427380452,0.009724857542303907,-0.005934081715934227,0.004684635546478779,1.58
0.10076457483748325,0.1719329660291808,9.992913667610814,0.008973820041357284,0.011348481777720076,0.018602771811958033,1.59
0.09154330761144117,-0.10598571808099114,9.908452005970911,0.0035958727429530775,0.006014913541614553,-0.0027969254307148093,1.6
-0.1669719125343594,0.08733872833052936,9.729335051854887,0.01508956503403883,-0.003012569429749338,0.005022577433347194,1.61
-0.14551664103869938,-0.19234717461771736,9.682500547642523,-0.000662033070115328,-0.010890909963370683,-0.001004318669460343,1.62
-0.048215311247370315,-0.021604797276557685,9.967718162825477,-0.011636712780409125,-0.00465406480306063,-0.0027581743906761164,1.6300000000000001
0.028349528578874655,0.04652112694556433,9.93494294872425,-0.003470280326805095,0.00627055450685299,-0.0035737739305552025,1.6400000000000001
-0.03790731755055837,0.07155277149553856,9.95057258478535,0.0033024909012018006,-0.0077961036885451146,-0.014719232615032923,1.6500000000000001
-0.1123390147091573,-0.11455274947674664,9.808040031077885,0.010061923009996887,-0.011034610893020077,-0.012300684934601399,1.6600000000000001
0.019676837295565654,0.08003823499949465,9.830597461624638,0.004148413744343053,-0.005979573592811397,-0.03266581659695905,1.67
-0.06581489596033051,0.03857347750739963,9.652846370820376,-0.0015019078684920812,-0.017241278392674923,0.011210026789486589,1.68
0.020877023409431122,-0.1038246570760789,9.784064758283003,0.002275821091287591,-0.006298760080107994,0.016160938184463455,1.69
-0.09130970238358019,0.1485751938598309,9.674315195315593,0.014640982167013889,-0.004686203472465517,0.009400174201331902,1.7
-0.07717614358213787,-0.1343224417117906,9.842665011884874,-0.006889664873839411,-0.010031166662744267,-0.005732306105188404,1.71
0.11798992594915697,0.09576291385357094,9.902525453585847,0.001242642429748177,0.021897060399759576,0.015887762985470837,1.72
0.01185776864819426,0.08933425688241337,9.694095127145669,0.003984784147945075,0.01377509767708105,0.0013692145201063095,1.73
-0.12280073685909892,0.052445589814045956,9.84904279319468,0.014309891571961969,-0.01171727621984008,-0.006788104736548786,1.74
-0.04549773487691963,0.21095116491627205,9.678106296226778,-0.004557311665073647,0.02045288209220082,0.006919386062086572,1.75
0.041322486624431755,0.041760469778497566,9.807573288152968,0.003833568016609911,-0.015958328389629232,-0.004543269336671115,1.76
0.030800199223047393,0.060660329634357094,9.60664922375944,0.014402952796806912,0.0047472822592820926,0.0040531524840570704,1.77
-0.15759111257493777,-0.025080241274366217,9.8348489337534,-0.0001686702569813573,-0.010797078449264641,0.004588280972753555,1.78
-0.01040740759722666,0.027276593256757034,9.822004464213718,0.009868995202768696,0.013115313436864309,0.009396864842882508,1.79
0.11748277836991577,-0.09576587240188775,9.866130518090683,0.0005187652044061391,0.003696371399483771,-0.008754077750760581,1.8
0.04410492228965057,0.032938112612048,9.71080936182333,0.01412976007117302,0.0018401592184308386,-0.010188848176399814,1.81
-0.017977486896474146,-0.055538566829478435,9.8040524320621,-0.0016744833248750278,-0.002848450579599503,0.005605853486323003,1.82
0.04682058606972225,0.08843872596256175,9.848389207111918,0.001130018882721175,-0.00014843889547661273,0.013425692687023252,1.83
0.0629191764574677,0.19893455509029556,9.722087141928187,-0.016213562411693836,-0.009750346699557114,0.0007550681213413972,1.84
-0.06301915793617578,0.14466040018227508,9.791466777419977,0.005386642367564898,-0.0074818808572948295,-0.00466573585569995,1.85
-0.1084909736248918,0.0068496221569346386,9.871802023231663,-0.0019788013398772016,0.010768658282861929,-0.013329813532950128,1.86
-0.18166504512887152,-0.0546474465908456,9.762532431501548,0.010447363775143957,0.0004102649218360201,-0.012608234582581108,1.87
-0.034903258223461485,0.019647865944415876,9.82079173275254,0.0076822581505865345,0.006504379498207708,0.007372369622117648,1.8800000000000001
0.17610482426372343,0.16405098117966788,9.81539490129395,-0.014799219196620797,0.005513050611751073,0.0010047274237277772,1.8900000000000001
0.04451163970651033,-0.12609395140278776,9.740386474244781,-0.008341647735877384,-0.004903304805231432,-0.005236863963113814,1.9000000000000001
-0.11291132329650067,0.08309022333149874,9.738579438613186,-0.0028579840412913215,-0.008158803551198484,-0.0033663013955806892,1.9100000000000001
0.16657787021066361,-0.19586853931564965,9.804089320228124,0.011010493051605648,0.018152591791695778,-0.003145397313630014,1.92
-0.06864341375975616,0.19768421756123836,9.76797893960574,0.004574724638116525,0.00720796978728446,-0.01687719359672552,1.93
-0.06169457569441642,-0.029625675239670742,9.66783124067829,0.007735183854177358,-0.0028714047214696376,-0.00661645397402564,1.94
0.14626329804562943,0.25347084367349176,9.810919872564222,-0.008308722177123888,0.005211203942962921,-0.006799020789033639,1.95
0.10473876681250105,0.010174858926155852,9.788796007432577,0.004571007388565762,-0.016533898850029646,0.0011319245943792406,1.96
0.09078339164927093,0.14298675997575278,9.7347027246231,0.010156583843162745,-0.011458804246170773,-0.001512430766105064,1.97
0.06090786105787502,0.030653225945618152,9.765225910582025,-0.008983810982674005,-0.0007231971767132143,-0.014755005327810945,1.98
0.06933697408934744,0.059075075614586685,9.897754222527228,-0.00491820730217869,-0.00992541054240101,0.01060026420634513,1.99
0.024830577739890988,0.0771854887821405,9.770782326503705,0.005526351329734715,-0.0002701836245134328,-0.0014509312134919758,2.0
0.0578970695689903,-0.17142124283785476,9.919494080048542,0.004189101702017509,0.015310741139898401,0.004940024739518876,2.0100000000000002
0.07008323938704282,0.0015225676097943234,9.572437737443126,0.010036170689059695,0.004989118102264787,0.02148675449056208,2.02
0.1237190922602351,0.23323927077315704,9.809501429749504,0.008765238656577147,0.0034991325274418774,-0.001627915747379638,2.0300000000000002
-0.0675236777350115,-0.09271538777877941,9.781918549449502,0.0020562952621241784,-0.01715250659520445,-0.003486017363148323,2.04
0.09474397763002829,-0.10854690477392433,9.880405223940295,-0.011484639736034115,-0.001179808384090203,8.517802082186504e-05,2.05
0.019193553948835727,-0.06521196804850503,9.824726768569992,0.004855725391098237,-0.003634895068927321,0.011075023889467493,2.06
-0.07854389654886448,0.06882864613242375,9.878789139789612,-0.0073776530189838185,0.014296330486003072,-0.00340115294290591,2.07
-0.01859293893178667,0.110886539966845,9.833489936149059,-0.00899162529587598,0.003792411081784755,0.011957148295417625,2.08
0.0518310497076268,0.03613140054583216,9.921789015744968,0.021697588667966717,0.00943391997389969,-0.0010595730265912694,2.09
-0.016094520327791042,0.12727676151810943,9.85920332366235,-0.004715991406669856,0.006057452587111868,0.013499628532783765,2.1
-0.05833949413888426,0.009775390399085176,9.809617930905487,-0.003079814074810864,-0.010061676730708013,0.011003467168224104,2.11
-0.020318875604801723,-0.003469751720233552,9.897405665997336,-0.0011931178858135515,0.015443187142119244,0.0019131093418382954,2.12
0.09897629655550437,-0.0117404986691514,9.743439013505704,-0.012431892090531103,0.009334401934052107,0.002566561847011598,2.13
0.10889415908413216,-0.03789702912437332,9.86948863950461,0.0036747265219393955,0.00012446861804622802,-0.007470242661716093,2.14
-0.02056377720853146,0.04302861209305499,9.698873716758557,0.013920561429603967,-0.007673384090577597,0.012862231448583172,2.15
-0.14362482515985478,0.07971055666245475,9.8481959957879,-0.009332857251668712,0.004478436742328959,-0.005841139612727087,2.16
0.06843377955519579,0.004373546881421473,9.611239820781162,-0.0029602235642699126,0.0076928205519512065,-0.005032214677517435,2.17
0.049911434223560265,-0.13556979255513704,9.755366858265162,-0.0038011270749445263,0.01757598047129187,-0.0013815109657145624,2.18
0.052666042609291835,-0.05700582057462981,9.87971918644143,-0.016164691177810612,0.0022856712200739655,0.00873936995052792,2.19
-0.06323114274503652,-0.0679807145491637,9.949762740648831,0.0029160076019533543,-0.006598300402748355,0.0060466597030279096,2.2
-0.06036719381185677,0.0380611465412361,9.731944755171863,-0.014515891878556227,0.0013509997222471651,0.000454454373250688,2.21
0.020674996077591885,-0.2510643177275699,9.849742783432765,0.002965314248833662,-0.02205683941395334,0.0032830833481676054,2.22
-0.1591274619746942,0.09980105033965858,9.940931685855212,-0.008442047038851982,0.007811025218308966,0.0006970319557755786,2.23
0.08744004887764573,0.11656735461037973,9.863009825010948,-0.01179384727072196,0.010818905847286913,0.004784968946684114,2.24
0.11757149580768361,0.05826891777166099,9.7657843144368,-0.00532419725209693,-0.002761410371278835,-0.0040592720835096,2.25
-0.05382588505191996,0.06533273936581167,9.774269098685089,0.01802807423697324,-0.006793127772372066,-0.005426624668202083,2.2600000000000002
0.06138489345815887,0.10273512851625671,9.731362552001363,-0.0015660541258193915,0.004844996484420159,-2.3711908282573967e-05,2.27
0.041401300062727936,0.04777884038441556,9.672579066059344,-0.0075760816786942875,-0.005057457307022723,-0.013898501104808106,2.2800000000000002
0.1481711889070357,0.060386384003045884,9.811626742904423,0.0016233192987839477,0.005054012404410626,-0.020957477111742596,2.29
-0.016414485041717764,-0.07072184006721312,9.85998604225551,0.017184186877729858,0.015844129995232475,-0.015882390395596795,2.3000000000000003
-0.03188650671465699,-0.09604695947313956,9.839734538739089,0.015054934398613542,0.003631460708618754,0.005251361996016046,2.31
-0.23943256564258367,0.08395769644123814,9.704390083713854,-0.0024357793593551484,-0.004160631702160198,-0.007504357610750482,2.32
-0.160827180944122,0.05537979423859584,9.709419734580603,0.00892773546155622,0.008026570810018093,0.0012254523604740613,2.33
-0.22231056187960446,0.008462762963297092,9.712245758602354,0.012820888037907126,-0.00330011008936815,0.007775262582757901,2.34
0.09435527465154642,-0.11895321168829376,9.799801992064008,-0.01601271361893468,-0.011753502916652964,0.0051967936421684555,2.35
-0.07188148892235864,0.05250667940408154,10.025487465871352,0.003274912776851165,0.0012877092109945993,-0.0181174013740807,2.36
0.10939582557539007,-0.07966488904257993,9.634565561631767,0.00335116100781743,0.005136522967732827,-0.005791596909468761,2.37
0.022955655831028866,0.03790027553629732,9.864840059378261,-0.006629756812052951,-0.006572010743277826,-0.0077547229354201575,2.38
0.10284253682272573,0.09524081038782115,9.837477076206936,0.0046747619284489865,0.011285154043601538,-0.009027936147868867,2.39
0.10094985546916385,0.10650185018606549,9.824708512624985,0.008992114205655072,0.00025478576994519033,-0.02031508978946376,2.4
0.08620913286586569,-0.12037386053257804,9.6923985582981,0.0021020114219092397,0.019918869548999327,0.003989125307642775,2.41
-0.221588776801981,0.11975342564268941,9.831889421614665,-0.00528521433253861,-0.003383418777971281,0.0030724328034537757,2.42
-0.12747295293271818,0.07499118349327982,9.70626454800701,0.010511305649396938,0.0015723822879661908,-0.0013470358635254806,2.43
0.05695117887624262,-0.13629386138304941,10.11148418359254,-0.014338953267634584,-0.0040756153003885685,-0.0026325706163413073,2.44
0.026169724356971426,-0.028631084190976458,9.941622451920832,-0.0010662136932205236,-0.0026039957321133157,0.009827563316505153,2.45
-0.14130453213975572,0.053905584893408444,9.844812806435355,-0.013950219127091745,-0.02713327238457908,0.012605592854195926,2.46
-0.013960937079332296,-0.0003315332955018827,9.882904402069816,0.024465080322255677,0.002606723082906964,-0.005807667052952884,2.47
0.051579419881406345,0.12250232514153413,9.761987666372068,0.004045009847097026,-0.006869552195302604,-0.011954846410857048,2.48
0.010195965852988195,-0.0055094594018617075,9.618077779464649,0.008573263136081047,-0.01068066283367409,-0.012636947696761741,2.49
-0.16599416867880384,0.01644202803376046,9.66427665318887,-0.014734198776015946,0.00707022937625967,-0.0032831871248494215,2.5
0.047593044505950435,0.07502787160648491,9.652556798271588,-0.011804217877850381,0.013501414566813719,0.007617801093094516,2.5100000000000002
0.042425857373770165,0.1528198924789587,9.864221401223967,-0.0027892898836658197,0.0022598799975371833,0.010895967329738266,2.52
-0.10597227994273815,0.2156611783391793,9.642985633406202,0.016556311359500916,-0.015466416064211641,-0.0015545677993872812,2.5300000000000002
0.012689685174128523,-0.12362437167280363,9.834873837761469,-0.015425868669585232,-0.0032097033687793065,-0.016427807163420023,2.54
0.06912943248980542,-0.06649620896772787,9.776970647646975,-0.013945147999608516,0.0021351488243823696,-0.008332923733993858,2.5500000000000003
0.08946704530258014,0.09701938927888436,9.81181053107272,-0.019961662113159348,0.004802450539505023,0.002013321475463006,2.56
0.21881729542444572,0.018863218437545362,10.109248653191376,-0.002465547193146379,-0.014198644233270094,-0.0024618366298242537,2.57
-0.12580357568628295,-0.04101911581756626,9.797810601323715,0.0070375320657259915,0.009306471133437912,0.005860314243909108,2.58
-0.042466203306971456,-0.12309095512759585,9.783860033136873,-0.005818106484754531,0.010802615917287267,-0.007148740347838443,2.59
0.17553565101370516,-0.015690979840000188,9.751461805021922,0.008696307105004207,-0.0045826191245537315,0.011457001911782486,2.6
-0.09271803824135978,-0.03170908733390091,9.700474209835162,-0.009708059134227443,0.023088342073260954,0.012049423545841625,2.61
0.06930180189036805,-0.10541368506487439,9.766006187920981,0.0010490129126407267,-0.005049375600825191,-0.006786044422002623,2.62
-0.010892529721254542,0.07681173344890341,9.93827415761515,0.0110000788515788,-0.0007165644751357629,-0.011581015752584141,2.63
0.08854333047930725,0.10224342589897782,9.5707064816379,0.0028750565977989757,-0.001300966081476645,0.022000498843912353,2.64
0.011952567394996371,0.12608092999322335,9.876376325278022,-0.011468124093052872,0.009765380115842284,-0.007868554329219653,2.65
-0.13813670580097467,-0.09897493464901817,10.066189527985296,-0.004275486753927662,0.003956526696425726,-0.006534411384476665,2.66
0.15865640644251222,-0.02197864516500718,9.865490516303634,-0.002932275411634752,-0.0029445255051591523,0.007034164818305029,2.67
-0.06330139792627816,0.039930255042547526,9.855568039391661,-0.002221684576939579,-0.003513372637971785,0.010041042171693708,2.68
0.07571355736943135,-0.13424363730708946,9.699853055680466,0.01376455532300793,-0.0036347538862348634,0.008128597357664356,2.69
-0.016908569982975546,0.026991047124129548,10.026611344650888,0.0077923735513087036,-0.011902908577545376,0.016610125597712796,2.7
0.11393389779836754,0.10816200968519768,9.721683991215324,9.078342932061788e-05,-0.007418706514911102,-0.006275815918175815,2.71
0.13190803214261856,0.07026856048509277,9.761307649895484,0.006248677645858871,-0.013591626340326892,0.015683900977086527,2.72
0.0330979240174324,0.06311328109111897,9.917166749779097,-0.011543386757139338,-0.0057344761862518304,0.00988374240370131,2.73
-0.05545388461378045,-0.0423933140730343,9.990428243392374,-0.013171719230479976,0.006389384076998586,0.011809620000443062,2.74
-0.01605208657882421,0.011315634640328913,9.98293120769657,-0.006256941228797948,-0.008826405292468682,0.0038534831593218643,2.75
0.05056591971779106,0.07428395112066193,9.773248030653042,-0.01589942174900488,-0.007936600790645003,0.012291755460948066,2.7600000000000002
0.10967251525741957,0.13717333624171385,9.81439361909324,0.0004864920553452494,0.0014967895832068065,0.0006503280355978844,2.77
0.12972548486352994,-0.2260575326444763,9.989905187348656,0.005916727808231173,0.002091955817082098,0.002245810148560726,2.7800000000000002
-0.06645070570786803,0.09464351426104708,9.862466361594839,-0.005120410511324927,-0.004486876451259846,-0.005805677626069799,2.79
0.07509036853325035,0.16802606906125714,9.852481005183714,-0.011433015948760483,-0.005025440352073696,0.0018686743971257462,2.8000000000000003
0.04317227341255808,-0.06065606351562475,10.130600137431676,0.013786273108002242,0.003154554696020542,-0.01805385810090962,2.81
0.09167161951482446,-0.009621271248391593,9.875230623869893,-0.0025354128349569754,-0.004465653195029895,0.008852182631480047,2.82
-0.08067512049196968,0.06569912549719154,9.698536196740454,0.00011834347060852204,-0.0001748783884307172,0.008976962886376717,2.83
0.09818879602715691,-0.07737862328671577,9.798243660208318,0.0017613204989225233,-0.018628544385936138,0.008594472723490806,2.84
0.034159896546283486,-0.143257701309758,10.108523368858533,0.0014787917011239925,0.0005286140143598313,0.0003433057401538209,2.85
-0.10443361187938516,-0.029129098728841413,9.797205742304916,-0.00036759094653925897,-0.01267908577881782,0.0028576686135879836,2.86
-0.05671095615954187,-0.12693740500461295,9.773399275220838,-0.010222246541842141,0.007104228297394517,0.0048802379269411176,2.87
-0.08080580318230783,0.060570425944556264,9.717054979911309,0.005772589867320229,-0.002571664799578613,-0.004742897771993144,2.88
-0.11911853329889904,-0.16707543012994852,9.7659178672605,-0.009394107113379561,-0.003707492589935046,0.0029426767823578187,2.89
0.09793812639358022,0.018974013242253562,9.752088669288723,0.022799078894601896,-0.0046499010970078155,-0.0063866035784117675,2.9
0.0013903353077374672,0.09804808911941816,9.717087113109292,-0.005418709777548749,-0.0005988247049081209,0.008104413295770472,2.91
-0.09998084030590801,-0.1328126442038577,9.950300947295762,-0.006003143722327555,-0.0007747514392566127,-0.026796171346117385,2.92
-0.062433112008188664,0.04301952647303945,9.854776049168777,0.004378846677069926,-0.0024588508128835294,-0.008346332281431139,2.93
-0.03369201445132055,-0.09139909424581734,9.827538075981359,-0.008797532477199499,-0.004318952290266866,-0.012459086309061085,2.94
-0.07641714231969694,0.034186979830277055,9.836019576728214,0.016057744501870003,0.008122257487675493,0.013243183153086662,2.95
0.03612667126633581,-0.05458829476686339,9.637879839445915,-0.008950138465514105,0.004833539915150814,0.003642299912824746,2.96
-0.14692950090592205,0.057838373303336646,9.916938898588281,0.008997951075751699,-0.01269739481056901,-0.005340743664828119,2.97
-0.1280084642018094,0.06949721625685809,9.796656515305617,-0.015728852563194343,-0.005028476732818558,0.0008960870650466751,2.98
-0.12059837602646142,-0.1577739124978986,9.755924173445223,0.01375529824266448,-0.003351693289248386,0.002483680543876542,2.99
0.03863841167893889,0.012072264497297782,9.673254599136243,0.009308476990168235,0.007018288238621226,-0.00021334365448902115,3.0
0.014438490844019328,0.17742030123747812,9.933720514237105,0.0034683401321766467,-0.006233011927956047,0.0010567782604961706,3.0100000000000002
0.0948996815303086,-0.13814614415546464,9.716157216980347,0.0023869152550915905,-0.0024358480011376434,-0.0122187269577414,3.02
-0.10798023039523408,0.11597713667475168,9.74285381516818,-0.012305053063495493,-0.00938663065284811,0.018506125824463253,3.0300000000000002
-0.13177318705823318,0.07914981236816453,9.813565623751405,0.0032831087749009124,0.008753118731376216,-0.005781660734701758,3.04
-0.028815106685851494,-0.03256536488456354,9.956555873932233,0.013030687381813975,0.001090639403592944,-0.005356215437254539,3.0500000000000003
-0.14307935678275166,-0.04646132642810662,9.840249734863843,-0.006655328964496083,0.015096816921590338,0.020753820628405348,3.06
-0.09200740499723908,0.08787168993182085,9.847857161235789,0.0032457294355853696,-0.00523834707872406,-0.006372099765854418,3.0700000000000003
0.019955312834417874,0.02735718860684754,9.885767192776273,0.0012218076780166549,0.009590571930118804,-0.005851843312248326,3.08
0.020151011217056185,-0.18003209613453075,9.685738447191124,-0.007436637023455887,0.0013592931912449133,-0.00864379745396346,3.09
-0.11311255491102604,0.2473048441588997,9.809836320305173,0.0034871878018127196,0.019398149633816468,0.025082554579543028,3.1
0.22576061270020525,-0.08757515405960903,9.793955755991327,-0.005523287178159871,0.025232732058334224,-0.003934005860900692,3.11
-0.05902753651123754,0.027787032691877905,9.663187862993611,0.00714721060567174,0.017539207995285414,-0.0023769888218814882,3.12
-0.11041426354472694,-0.060614535447546136,9.810834635313494,-0.006332909931764995,0.008931759151901635,-0.0007804849883011582,3.13
0.20725973068851553,-0.12056634963553592,9.918764851379983,0.006153821150474545,0.004497140028199863,-0.0019516269996749823,3.14
0.0005792206185500551,-0.0808498569815862,10.10551072334625,0.0028891442689760443,0.012202464438949161,-0.01219945509755045,3.15
0.02247915556169705,-0.07334948140226888,9.766295265083137,-0.005314655006999136,0.006653241764229501,-0.0027720852735027453,3.16
-0.07715222217208037,-0.11397270204176142,9.989991760000356,-0.008225713438126428,-0.004771400750968569,0.010865968950807998,3.17
-0.11705280695951009,-0.10180256102721086,9.81693643041529,-0.015017070014060755,0.013049971885104355,0.009995802397156637,3.18
-0.09090357934985176,0.13040905498114694,9.825223864162977,-0.012154907571686743,-0.0038157116169596616,-0.002325330864031959,3.19
-0.030675297706919548,0.08389370821727712,9.751830135116235,0.008638918125676633,0.0016299917232342714,0.008472837967452827,3.2
0.11925167881266055,-0.19337260562254122,9.739644830091343,-0.00958631037368087,0.007690576726054638,-0.018220865397233034,3.21
0.08095953995906961,-0.16819340329902988,9.933462839378075,-0.006098686327813021,0.008172039140401006,0.008269572769658822,3.22
-0.09750396526046473,0.19906622971454763,9.770214435899602,-0.006812882654872723,-0.00306556738120537,-0.01830818859179028,3.23
-0.11875176983255382,0.15855503331745507,9.718380493568198,0.002523662917470225,0.005426046004628967,-0.009195355925380497,3.24
-0.013104918539155458,0.16009491333424208,9.774662685588364,-0.006039716511343947,0.014773059624854925,-0.012043783071230128,3.25
-0.09470129609275821,-0.004676961975673802,9.846538693891446,0.0012229523676994135,0.007359194632697574,-0.024763814862587632,3.2600000000000002
-0.04218659817272342,-0.044751039512738816,9.83331078043584,0.0024305591587086965,-0.010243866926300627,-0.01714597230671725,3.27
0.09310090012388267,0.10430114105825997,9.76439210803312,0.007119792616999525,0.009456105782360186,-0.02214442479273698,3.2800000000000002
0.14538544480408996,0.00972300347847758,9.86890907053528,0.004116397801771477,0.0144436673489147,0.010505277255717404,3.29
-0.054134683695283896,0.21691551651517704,9.493277805362489,-0.007951456563484404,-0.005292390817122908,0.00464578602020338,3.3000000000000003
-0.09341699050907426,-0.09590283976569129,9.830599700846298,-0.00969954922355165,-0.007748590191993596,0.00736104057409466,3.31
0.05175900386744262,0.016605057557903966,9.847180799769232,0.0021196181688297707,-0.025536602109086006,-0.0029814855579253664,3.3200000000000003
-0.030571052879134503,0.14879865415187699,9.840128817485926,-0.01654569028707336,0.0036007769541976644,-6.764097275748112e-05,3.33
-0.05762741125904347,0.05292934804080432,9.921238730298013,0.010469444102723387,-0.008508365946498429,-0.0008175909625149783,3.34
-0.13439585910328242,-0.1459452495299839,9.72514596654933,0.00425012896502168,-0.005093255770896329,0.013952343603557998,3.35
-0.030341780195943344,-0.09133009624715203,9.819677764146846,0.0004343499902790668,-0.016436576090741367,-0.0005690336811183855,3.36
0.052700758685907394,0.05817441034955463,9.71474114393456,0.020524316826705368,0.020309888032830258,-0.0027119538434736946,3.37
0.10209809769674488,-0.11980649606610445,9.858577746159607,-0.009424817137048536,-0.006620442682238117,0.014764000433792291,3.38
-0.12079481816957108,0.009879648673654859,9.872455352494038,0.012695846409254403,-0.007061324168378399,-0.009465902319030392,3.39
-0.09719112572559942,0.13315826688236326,9.719130341191706,-0.0005103663249573838,0.008953175454278416,-0.01622021719133448,3.4
-0.0737551102029901,-0.15952678401488626,9.724803944672491,0.013904376300897102,0.0008436459384392426,-0.001981193514162026,3.41
-0.13134116820157368,0.06369714193520734,9.732256420860187,-0.00032609462035800485,0.011056258606994003,0.022956864634121495,3.42
-0.1483366973364607,0.03182378900385578,9.704649405754704,-0.004295556491003189,0.0017630109441925924,0.01959291396538621,3.43
0.13208610310233607,-0.1019942979068051,9.86126974552101,0.010549666596636802,-0.0123699236728553,-0.004862402909806255,3.44
0.09063927400834725,-0.01568295537772067,10.03102493001659,0.005703473575235457,0.007575511527832455,-0.0035015692601501496,3.45
-0.07484912226497904,-0.052564160078433224,9.795743107607317,0.009754647389606045,-0.016899676434102815,-0.017753086612276647,3.46
-0.04417371738310578,-0.1296471193969044,9.835584170042537,-0.004248347527971338,0.0019084030995701648,0.0009843515611182073,3.47
-0.09738586603666576,-0.05967901532240081,9.914591037160449,0.0008897736384459479,-0.007386974709373637,0.0021872954436402644,3.48
-0.07379815671264882,-0.04158687570813244,9.91927434512596,-0.015299745511500635,0.0063959340092311565,0.004215273907126708,3.49
-0.0057824254617454985,0.017209903571214782,9.854923081250634,0.011662013311370938,-0.015362938001121845,0.004596394985429434,3.5
0.07127373534677003,0.08397710042289894,9.82809839844441,-9.515913195299778e-05,-0.00933050834887822,-0.004126366131474124,3.5100000000000002
-0.08150117521548125,-0.2998651250112609,9.971822073768719,-0.010690100405219656,0.0005266179061164427,0.017019712254741994,3.52
0.06098582529428982,-0.021709544438956934,9.825303780325795,0.010409064722549984,0.009856911169385583,0.006228834307030489,3.5300000000000002
-0.007101618792297127,-0.03297933791186819,9.790620550926386,0.00027544383571879023,-0.0063751042088810005,-0.0045145828790288806,3.54
-0.04365100116680036,-0.0726932090162107,9.83072004439387,-0.019489383604235595,0.01645338329533126,-0.010969089911203636,3.5500000000000003
0.05740344081329051,0.0407019802270651,9.691593491660182,-0.00929084765561206,-0.005827023894820874,-0.001945336535587039,3.56
0.008005617179857453,0.03875884471193187,9.741874885379113,0.009156528790189935,0.006045227303661295,0.0059070913734931355,3.5700000000000003
0.1618377628035678,-0.14727092249844959,9.833628514265662,-0.0016987582389807912,-0.010364554203684331,-0.0031890842912476397,3.58
0.0844545918964281,0.08628754903859981,9.871347228272917,-0.00446769702070982,0.004010205236363332,-0.0077974422185910375,3.59
-0.08804791347232023,0.08032523060895927,9.931524484178437,-0.002558692471732783,-0.010835631616701874,-0.0008152052777664363,3.6
0.07435953513590841,0.16950269007184782,9.636355161157667,-0.003954330357735731,0.00951267564881098,-0.0061829732436945095,3.61
0.15231007965787968,-0.055213683816732355,9.7131436826822,-0.004189704927833712,0.005847049811731726,0.009936827507899404,3.62
0.15438654870172538,-0.0595908959129894,9.921071509662998,-0.00016616779172852364,0.006411294761284553,0.00216224625588963,3.63
0.1196345395828814,0.04113405288427079,9.789866554370743,0.01588882760217599,0.006130388860292756,-0.00012911804177740758,3.64
-0.046865863629970805,0.052077315641794,9.70233026269636,0.006542365451137038,-0.0031177491623735594,-0.0017338413461985749,3.65
0.13892662602999117,-0.06563602735119291,9.692558259485109,-0.01782394988023714,-0.00584338336717839,0.002677775167728808,3.66
0.0569862879779092,0.040776342631845604,9.780735911725325,0.0036759482131420522,0.021260090773943634,0.003828448675315685,3.67
-0.12722368199745449,-0.13684263878788802,9.678370125185268,-0.0024489035163337246,-0.005519712920186745,0.0006690073508989418,3.68
0.030500768419756793,-0.1174118093181755,9.801191880004302,-0.00339101497962975,-0.009402728033536546,0.019478371123898313,3.69
0.16094449020491505,0.18052775809186783,9.736042871759363,0.02039156965292418,-0.0034762006574694925,-0.0036913831771896695,3.7
0.03285041305276979,0.08717048304119807,9.620345480727982,0.003601659053166283,-0.014969942391848146,0.01432587857973391,3.71
-0.1373849849580197,0.07037441920285989,9.69537974924312,-0.010358822816776345,-0.009231370729266932,0.012100476202192796,3.72
0.07628325512258836,0.03322683592501611,9.941828354895213,-0.005244274590804743,0.002238881421021035,-0.011415038974716676,3.73
0.1677116622146948,-0.12157383064237429,9.772262082022628,0.008344349877352879,-0.006803404076475498,-0.0005013180401685953,3.74
0.14390894328196943,0.015567583814096633,9.799150361648481,-0.004186443491598363,0.0013530069402071358,-0.0015448202645211718,3.75
-0.07800553754947376,-0.03599653293177736,9.857700508338576,-0.0023813049612865116,-0.0012785090447598152,0.0070234833901936964,3.7600000000000002
-0.1434191447027751,0.06715868952272415,9.64343785989967,-0.0028669275492061758,0.0005394032776017332,-0.005589993452455825,3.77
0.07614333982079555,0.044780903963176445,9.74011632078567,0.0063349755591963,-0.0029652015754506058,0.007387104820214563,3.7800000000000002
-0.11058174607496019,-0.22255505346740426,9.859609072950546,-0.0028130923296373856,0.0003050556838361707,-0.017915643442359377,3.79
-0.1769356606250043,-0.06652282992915862,9.75302634909675,0.012957941277422589,-0.017750213055972474,-0.020043136837988272,3.8000000000000003
0.06058102875512642,-0.1311223864723091,9.784028348944906,-0.004886574235884785,0.015484880847311082,0.004939901504578692,3.81
0.1430115724911822,0.17632843249780927,9.948527570650091,0.0030003020769293395,-0.004514305830053382,0.00454575015543284,3.8200000000000003
-0.012450238555419227,0.0954807394654496,9.801324876058294,0.0055038398057495564,-0.003417956841844134,-0.006756598555879943,3.83
0.04383245534158112,0.023897840843111636,9.838605856928064,0.009439095680371237,-0.005862236545121187,-0.016343477752696622,3.84
-0.1808618416773461,-0.10914376941346554,9.601900264902518,0.010299493138123492,-0.00741444900322056,-0.005594802988747013,3.85
0.06865482365052807,0.07860728412091735,9.735783845910728,0.012660408323838556,0.004368107845351441,-0.01905059086470022,3.86
-0.08212956173613425,-0.0713323731899573,9.934739392531776,0.007002973210972888,-0.010262728142714592,-0.0198230698204245,3.87
0.0409581405968346,-0.19200554871306594,9.811166457876947,0.008813496057546168,0.003248196884045781,-0.002412445756381349,3.88
-0.09863223139179934,0.05087558934042744,9.773387857605028,0.004949606476707519,0.006918678579891049,0.006450774689131144,3.89
0.001411762313594654,0.06897668386519677,9.674625315645311,-0.01093611094410641,0.005877400177078413,0.0002561181502411268,3.9
0.08633988884559207,-0.02074374750823287,9.729417031146971,0.0004412281447118086,0.01511056127216839,-0.010364326132620824,3.91
0.07694239616682973,0.21788482038589516,9.893376546912211,-0.004514858722629653,-0.016843289541141934,-0.010879323019384704,3.92
0.032533818449681326,0.16127627668377315,9.878612338186807,-0.004696134932479982,-0.011103012465333574,-0.0211969998005209,3.93
-0.06376589842986703,-0.07844326142353925,9.610917963115085,0.012698427685750692,0.017671680510111448,0.011131941753283305,3.94
-0.06861434954412725,-0.045964581568423854,9.739283623477034,0.0008988069300768394,0.0010525314472182782,-0.00836202313778199,3.95
0.07388098615641167,-0.15032027979319412,9.92041088955219,0.0006319497370742236,0.004084539799182265,0.018879374759033823,3.96
-0.05875320218550564,0.019596544196774843,10.02353073976993,0.0027653264174139374,-0.010319498426193719,-0.015024516337700012,3.97
-0.05813160450183015,-0.019626214009672224,9.873495122711267,-0.0027073702805998448,0.006163026236305216,0.006161657844498734,3.98
-0.05682147936738105,-0.13353445628651758,9.807381269296041,-0.0007370138811288317,0.017480816638733087,0.010617131268822999,3.99
-0.07350753638596134,0.0037494908537819443,9.885420407968585,-0.004018260103996278,-0.0008158222285664362,-0.01683071574224091,4.0
-0.020132392380659638,0.18204807175136384,9.850831989827654,-0.004199286626742836,-0.0030626723514621556,0.003357750431906674,4.01
0.005162583872101624,0.06354311955246476,9.897788676375793,0.0067285990234413826,0.00657671877055949,0.0006989994580313203,4.0200000000000005
0.08773901135893192,-0.19759632227301707,9.653459777818457,0.009641337457975152,0.006736237787323304,0.019761101010015145,4.03
0.06814167335307361,0.010195485818850733,9.780938423449749,0.0033408800029778737,0.008076746543877793,0.0013259377733433834,4.04
0.1256314631896482,0.25066703793082157,9.929790327048062,-0.006243523513767913,0.004354451082923662,0.01600544354062605,4.05
-0.015190751935406819,0.05653036652524619,9.911069729686501,-0.0015803473201961547,-0.003476886466589547,-0.01248468248158879,4.0600000000000005
0.17569896120515294,0.028616501396277156,9.949964151814113,-0.004889621855721214,-0.005878962983857265,0.008698159715084046,4.07
-0.028654141790749876,0.11561380808686561,9.816109886836166,-0.0032133990992340494,0.01194479841715688,0.004813919649136163,4.08
-0.07864437907437638,-0.02803111681968519,9.971491854113978,-0.006062008770404838,-0.014655370397743133,0.002470314678929809,4.09
0.046638674175902776,-0.09375494526301226,9.881317694493962,0.0019804738410814744,0.026289405193560815,-0.003600226451153249,4.1
0.08773617263307387,0.11163335456557891,9.809078023522352,0.003523274858122541,-0.01107142380818708,-0.006700290769972821,4.11
0.0014855649034750135,0.1270909258246294,9.748126086575772,0.006333872814517201,0.0011009479691759764,-0.006368007954462711,4.12
-0.004985741379387287,-0.05299564716951232,9.731942476239777,0.0032569480100740774,0.005954166735223917,0.0101291377175332,4.13
0.036435935303713245,0.020961204850285353,9.823846741613288,0.00554953707296278,0.00028035945549570934,-0.004952986474239802,4.14
0.07863617256451498,0.02320090662679244,9.796703198955447,-0.0007448050491818599,-0.004458150826865284,-0.015127678449733038,4.15
-0.025131809474951375,0.1709168419877285,9.693877899869877,-0.010902283282947099,-0.02116025054225005,0.008899670809987268,4.16
-0.10292504990599727,0.2518692722160955,9.592411375095686,-0.005043868667412686,-0.0018685923721824024,-0.0007833442787941483,4.17
-0.21244346646779622,0.047506142535700735,9.747009372693771,-0.0010041411795770649,-0.009102536067252783,0.017425708647925715,4.18
0.005536808180857514,-0.18447204636447384,9.84174574711978,0.0015799515819837164,-7.04198606277017e-05,0.003803494040352457,4.19
-0.026366934606003645,0.02941660958558199,9.846803630661293,0.0004825567326666793,0.0010830452515450438,-0.013565881987544248,4.2
-0.1225725878701532,-0.04520954735685573,10.000642958125072,-8.278562335738568e-06,-0.015233614923917716,-0.0019349913948509788,4.21
0.004906963520493382,-0.14204561012217592,9.962166077203566,0.0002799552571291467,-0.0003964727251674163,0.006139462879858437,4.22
-0.006977450355858671,0.013664721792841828,9.654541231785421,-0.005336347171039183,-1.603522010584046e-05,0.005551206793845802,4.23
0.06418143816007103,-0.11217570808871347,9.774087226661337,-0.005958417504723095,-0.014827349153276841,-0.006875670440650425,4.24
0.08337794772798945,-0.03307148985523877,9.802512183666456,-0.012501887929014988,0.008167389185776188,0.006462942245316527,4.25
0.02469899183228993,-0.09568076471575604,9.68961578207193,0.0031787186593324798,0.008166831620182889,0.0008183949283697264,4.26
-2.780376205395286e-05,0.030808198770944147,9.804706443496118,-5.5248227551591675e-05,0.015449456759729733,0.013443027288240563,4.2700000000000005
-0.1323262416668933,0.13226253820090678,9.792864605623226,-6.686003200822515e-05,0.0051458680118572535,0.007358505134259589,4.28
-0.11651166786933907,0.16055169580173695,9.742919549365453,-0.003925486366605583,-0.015265368835178792,0.0187110153250171,4.29
0.01896009063019853,0.003890607353405451,9.82760322977071,0.019508771920748624,-0.011528205429547257,0.003993053026725361,4.3
-0.12380849696091943,0.10865696488698184,9.832476349289381,-0.002745350340774281,0.006391920929394754,0.012732026261961805,4.3100000000000005
0.03297103101414752,0.03812257825148507,9.786537844532171,0.014765089611400944,-0.008983693596082993,-0.012424807477725137,4.32
0.010172873446395935,-0.15699772370306253,9.78481437400538,-0.009195388451002354,-0.00040787429055605325,0.006294012182484803,4.33
0.16026980422763848,-0.07263449190275094,9.719046759145906,0.0003966677011659871,-0.015293128189573431,0.01767679616472728,4.34
0.05270008425691275,0.0025741616465691165,9.795010892855826,-0.001692632614657052,0.010011914294953628,-0.0007754559713779038,4.3500000000000005
0.05920465625116178,-0.05315368179108002,9.665242062190881,0.007290874423973564,0.008067129238617085,0.008140510611152106,4.36
0.02758656022176975,0.08302848443429557,9.940677669298694,0.0117667807342372,-0.012163609421248769,0.0006029474679595712,4.37
0.08915766587319152,-0.13659145289874483,9.856475782245292,-0.020796105468211996,0.023074437120172684,-0.014022511975618808,4.38
0.04032408867005502,0.05194293620322154,9.684364594553792,-0.0022116185084414654,-0.009901100746045869,-0.009743457815597238,4.39
0.12498246814404744,0.12812721414765907,9.609177124320073,0.007117807834552471,-0.007461371010935787,-0.0038642706072756867,4.4
-0.023427680876543438,0.07711310857476933,9.795185701979388,-0.021977758931559607,-0.005739730900390143,-0.007858550641209735,4.41
0.011230820149504314,-0.19060126001035643,9.818782751972913,0.007909373075408966,-0.0049987526882392065,-0.012121330401647049,4.42
0.12298694702136806,0.07465537850494834,9.776292084545505,-0.0025852437702015073,0.00468611161346771,0.0054163341362382066,4.43
-0.07287876010943688,0.1427001957116765,9.764238978483611,-0.018775050686416907,0.018185095788063675,0.010461257555795333,4.44
0.04230015998527463,0.03204770148621985,9.833935304781411,0.006630182257010556,-0.01986153599638353,0.0007852113127686268,4.45
0.12693214893089513,0.0033728681862471716,9.800811664209807,-0.007717772341502723,-0.008972648598400924,0.01763730802251531,4.46
-0.11886333244004095,0.035689658839629976,9.900373892875185,-0.01351233891167462,0.011791455850770825,0.008540853762059345,4.47
-0.14109140910116655,0.024834348131297392,9.735756636401447,0.012727551640086583,0.00013126724154650742,0.0050077176673151425,4.48
-0.013060750744693157,-0.06080340804348177,9.601754024534056,-0.0016326151612387596,0.012735684891364157,-0.015633742958586334,4.49
0.16790208642632504,-0.09331096677049672,9.776403051648916,-0.0016544290686053367,-0.004039133883390241,-0.025222137184599983,4.5
0.0587487795371891,-0.03995531957796846,9.97285097121972,-0.0038840302862969242,-0.017256132935382158,0.02159873407010422,4.51
0.0006648845108446262,0.07562457073053543,9.760187903569104,-0.004465434532683833,-0.001059864895348779,-0.02002327655268215,4.5200000000000005
0.13540765800905835,-0.17188304143759392,9.92550969083691,-0.02180531262573956,-0.008240086582581598,-0.00801132236011063,4.53
-0.023355736566602475,-0.0474900084919217,9.758801000352552,-0.004780718578571525,0.009964614493507655,-0.0053191029112773245,4.54
-0.08356563012146728,-0.21264007590286754,9.681393272654807,0.001568524689019718,0.0056138120734469535,0.005652762061431183,4.55
0.04268988913446421,-0.06097682648709919,9.747239090035492,-0.00021816019559003195,0.006015486919253377,-0.012774485316015088,4.5600000000000005
-0.1877322963127079,-0.05260343233391234,9.880074512968138,-0.022567090848376003,-0.014151790272523161,-0.019171488626800383,4.57
0.03648194316877183,-0.0767667613163165,9.830591980499928,-0.007214985893683316,-0.02550536382911287,0.0035193249980494876,4.58
0.1487096421281112,0.050394786473341474,9.762298918930727,-0.00883026251969075,0.007099622011727404,-0.01669147919005383,4.59
-0.15827985239405945,0.007411338420695676,9.874961493808437,-0.006353086062461539,-0.0012965125985774126,-0.004815165992754913,4.6000000000000005
0.016764656434557563,-0.08633922411148318,9.681542639140922,0.001989576317559712,0.021369378956033393,-0.003727144520391248,4.61
-0.002806899401088926,0.1258860905909129,9.813865250062866,-0.0003474916279819604,0.0030930453669115346,-0.010061963411673014,4.62
-0.08289761304867732,0.1408105032583082,9.79155654871598,0.004401592793439296,-0.004798621841444958,0.0012742099595640618,4.63
-0.0895856849566849,0.01108173147371673,9.961103707129482,-0.010661861575137052,-7.106029803783295e-05,-0.00825327771258349,4.64
-0.0012324846964659613,-0.2241853498244628,9.763882789203844,0.013432890702727187,-0.004243704683398784,-0.022822699012434985,4.65
-0.1324833002350242,0.08326670278371025,9.917336652650372,0.0027384646841755243,-0.0005384356835791146,0.004816993294925357,4.66
-0.03680220217363225,0.10709684264236954,9.851220283149923,0.009184196866993472,-0.011491686379054337,0.008235873346403718,4.67
-0.05685588879961916,-0.00757337046821452,9.591069647951667,-0.004609777910051428,-0.007745489007890813,-1.438442577297914e-05,4.68
0.025165092536855768,0.07995182730246649,9.939495491189373,-0.003565460551594841,0.0225590017856955,0.003832314290829346,4.69
0.08379717838104919,-0.1766018458569223,9.775535353873797,0.00953657633395491,0.011092658659822601,0.021971380907218774,4.7
0.07580932847970773,0.05083455283719332,9.888342307817968,0.0023529258260091596,-0.0016441784626470785,0.003546025193970772,4.71
0.09134278961701557,-0.060861840556883186,9.799938242443046,0.0050009510101271986,-0.015573232231627024,0.0246206618257278,4.72
0.1855634543257116,-0.040139939284348225,9.82685815386276,-0.008329663259915545,0.0018224766786229718,-0.0014412928350550794,4.73
0.0681864847282407,-0.0359257469085983,9.908561809613497,0.014916341084163329,0.0019467180666776595,0.002673628499959591,4.74
-0.002254384896103665,0.1252480773846437,9.771948915728931,0.011033126365799244,0.0033790161609751662,0.03329229124023013,4.75
-0.18439827637793763,0.11882974287265297,9.717669081034135,-0.01133969585919973,0.008817554408732328,-0.011372980121831569,4.76
-0.135888346112403,-0.14319421871483834,9.857983657160611,0.006335205693816408,0.013350881717019153,0.00967577742713522,4.7700000000000005
0.11096287056587802,0.05125126689610481,9.888549097827395,-0.0012787823131521676,0.005326363827329614,-0.009808786858631744,4.78
-0.13403891738207716,0.02437133647340577,9.79593007941399,-0.003455501967599025,-0.001579142617223963,-0.011686879312084736,4.79
0.011687466984278742,-0.004024489548331888,9.669718968288247,0.010477719583045823,-0.010646047239294082,-0.006398015200550551,4.8
0.05630364704713273,-0.21865906638201757,9.674747514315836,-0.004094281134782846,-0.0026042492331976304,0.015373235000855849,4.8100000000000005
0.19164591695863684,0.0703330940684876,9.831143379038092,0.016419516801058815,0.0012104597500457014,0.015241229169092057,4.82
0.16065278091293456,-0.20444881392537556,9.818636197556366,-0.011533219420185618,-0.004400847015822074,-0.0075426024200014544,4.83
0.006812408664769377,-0.008914172415219593,9.768996819043842,0.019286649045070953,0.008751556695542296,-0.013691035368601367,4.84
0.03570934338591058,0.16525869325182085,9.918085088606674,0.006804373840801315,0.014786106087637757,0.007582622183917832,4.8500000000000005
-0.14156046867275704,0.14743369481575858,9.727748424584352,0.007385240632256647,-0.0016875482839654881,-0.00028253695447764217,4.86
0.03074602462341689,-0.10907691090791156,9.69018580244465,0.020925474674963928,-0.005036107253591371,-0.000625183170312635,4.87
0.09899003843461807,0.10863993538970429,9.86704532433297,-0.0015587081184198198,-0.0007493086502908206,-0.004267527113427995,4.88
-0.06777202752928711,-0.12124410670832482,9.847117756700213,0.0011026255324641172,0.0010504059487391442,0.013237902313215267,4.89
0.027541795120210284,-0.020749890162808704,9.732631715174032,0.0025623516463944692,0.004198186368936884,0.006805429409258098,4.9
-0.009013512849299308,-0.07733673353263865,10.017080925335852,0.003295817946140426,-0.007040209701623422,-0.016408039637969555,4.91
-0.06210515941295496,-0.12704495550644498,9.908857709847679,-0.00815980255109694,-0.010383526138460542,-0.003819592406489836,4.92
0.0554012325230309,0.10175653008959158,9.800896175535602,-0.006740104290343591,0.005245206956889597,-0.005033521291789106,4.93
0.0913605980249939,-0.14414297643104673,9.910434159625838,-0.0016324118796022908,0.011382455863694152,-0.009676085931147042,4.94
0.05069454438157687,-0.024138974438541936,9.733343016293537,-0.012135779697051173,0.00857041330455424,0.004212519010048395,4.95
-0.009377953642062481,-0.12137891833703036,9.839508414348465,0.0165071096976784,0.007608926709057063,-0.011643097632677188,4.96
-0.026537323989591584,0.12443251778029259,9.792073226702867,0.010026080202969476,-0.009564606378400616,0.00792806081176958,4.97
0.0673109955394853,-0.029456433750662953,10.06509933954772,0.005663593842668013,-0.009310315936793118,0.0047650847285399195,4.98
0.06134433923150641,-0.014410386665416167,9.969684226890863,0.013527244336637507,-0.004797137858189729,-0.006175130103159378,4.99
-0.13639641303671643,0.03127122645448124,9.783639898033874,0.015449001673854903,0.003230862073954341,0.0008310325215691274,5.0
-0.03712836872253563,0.06221020379162128,9.681471429442574,0.00653152739807444,-0.00041482725686493036,0.014701529499085427,5.01
-0.08552037313813732,-0.14777222202117513,9.78663352051852,0.00025551089040250333,-0.012542742117945512,-0.00967714561775335,5.0200000000000005
-0.04917541602058565,0.026207780602745534,9.746596343279666,-0.013800051424279033,0.0021374475635948503,0.014650848568597986,5.03
-0.13908852333149496,0.071121946082964,9.69502894435298,-0.008810356506643472,0.020450716069192635,0.0021277789444701747,5.04
-0.14127162380353184,0.08386371689332842,9.668961109914889,0.00429152096810129,0.00013045514204883165,-0.011551185506709532,5.05
0.022815148579706932,0.12071387348142555,9.853778987253975,-0.005143623178286937,0.0033512851939435247,0.016298284985568335,5.0600000000000005
-0.15381568043312763,-0.03327159848744548,9.9272650435876,-0.0013829118273277362,-0.017448086350113308,0.011239437986643378,5.07
-0.06451574919622864,0.02004705304908994,9.883617898660468,7.173618750193023e-05,-0.005220604163671624,0.0024240348778659195,5.08
-0.1315352100682441,0.08815048684412315,9.97578198767794,0.0033252421333937825,-0.000645476277908376,-0.0067064392982660774,5.09
-0.08923850560240155,0.21619381767081325,9.786081478133967,-0.008108342545513377,0.010316737640910931,-0.013181653985922376,5.1000000000000005
-0.22285784264997732,-0.07577794149540124,9.71009801907402,0.0015925877330717525,0.005432660203527736,-0.0014898756907250083,5.11
-0.043549783148015976,0.09668129944744053,9.880483083652278,0.002021592461128596,0.013740028121035577,0.0015064571624506208,5.12
-0.1091284411085331,-0.018304969680629276,9.802258657433775,0.010059716059444725,-0.007943885123086454,0.014710837719646016,5.13
-0.013891075913359106,-0.005099288173404045,9.86838614835714,0.027673496082981416,0.0013515008062823992,0.030978337460667933,5.14
0.002902315664538368,0.014292143831458042,9.806643364947979,-0.0044175181339459494,-0.014701148096815959,0.0038384424737611627,5.15
-0.05625415283967662,-0.14161686939534215,9.743183239533947,-0.00696378764643248,-0.01306555296420744,0.005311453949137882,5.16
-0.14913660697053333,0.014776007622185013,9.699784330985963,-0.00215242416135469,0.009826388149498586,0.013659127272120293,5.17
-0.09283946921250984,0.05411710578004019,9.933694759555433,0.016281608111927665,0.018660369282089882,0.016704984731883393,5.18
0.1387694970051002,0.05373835650991578,9.666419111824593,0.004986954290771368,0.01578558242119498,0.011476107181404079,5.19
0.04951816425172637,0.012112444789214598,9.912198175409882,-0.018478914981367552,0.006543330160503731,0.0014860158793879006,5.2
0.02759873163245817,-0.17713801752792488,9.584314067688522,0.004022320747870069,0.021598821584829266,-0.007459840637099553,5.21
0.04660126566116522,0.03135650773236977,9.71306388156824,0.004810640416456449,0.006327847163681216,-0.004667563220398277,5.22
0.027348894445865864,0.02880567790480029,9.935614097170337,-0.0086576147576829,-0.00820815184471936,0.0029618066622615125,5.23
0.06163318095902701,-0.08019965982601039,9.758948380896719,-0.024269429509588644,-0.010217515597166023,-0.020759046976784785,5.24
-0.14018891222413699,-0.016968412764079163,9.880266808161588,0.0034194296230976883,0.012769626406779847,0.009210137676855298,5.25
-0.08909607113303619,-0.2067759687690771,9.852944576798,-0.004604766891991655,0.006444754270846398,-0.007589935313973921,5.26
-0.02915813011779213,0.08161566107304147,9.77949540146881,-0.009442420949045236,0.004861132162916778,-0.014817901204703908,5.2700000000000005
-0.04392464317895794,0.09327590761574994,9.767160282016263,0.003511076562831691,-0.005313948274594793,0.00814548045635617,5.28
0.09903567377563825,-0.04008202698808249,9.63365104847068,0.004816082153720515,0.009195707818037597,0.012184527655506955,5.29
0.02849041177183619,0.08407152823989589,9.846570848155547,0.00237150630373402,0.020456452720731974,-0.002127137454540286,5.3
0.11382966006247311,-0.0694204233161677,9.897281771796543,-0.014242016601924907,0.0018688061923099694,-0.013232656861645473,5.3100000000000005
0.09127414881328062,0.13811031797855153,9.917520051475478,-0.0007686709047226001,-0.0048616305452767175,0.013004547180026495,5.32
-0.11876669669802481,0.13775889238672656,9.827395554992533,-0.0043659124436840795,0.013681826123685417,0.007888075874459258,5.33
0.13609147604899435,0.13035165550466168,9.815006736853759,0.004110350834962991,-0.01613591726891106,0.0007333105659085439,5.34
0.029129823701298043,-0.08506774358245102,10.016725775520129,0.03015679584867328,0.009740660510530635,0.0007156214270604479,5.3500000000000005
-0.27645770666937775,0.15437037842694556,9.94674530417815,-0.005795285058807673,0.013474429345637704,-0.0015226234861994562,5.36
0.11093504507227432,0.03878556250959214,9.771849821861531,-0.00414151439880883,0.008940526403591753,0.004749766131785594,5.37
0.01683166296531006,-0.07417461870376552,9.758094929222421,0.0014352459170658602,0.00066920083506231,-0.004767522868854336,5.38
-0.04441025664753702,0.03868858476326408,9.864903362674255,0.006698758147148765,-0.004522591798506435,0.001155452097064242,5.39
-0.06270739898473822,-0.18082930350806337,9.789710909976344,-0.0034943125956683227,0.015754435550987125,-0.004596302789168983,5.4
-0.295018692031907,0.16513125654227756,10.087430555718447,0.021650280114229106,0.004599325100401543,0.0017087807347957017,5.41
-0.02967546174799329,-0.10634943409872454,9.775661859126968,0.00956619014238012,0.0004925731758823298,-0.009722797033883238,5.42
-0.06693274767541199,-0.06158222687629995,9.84676360457697,-0.000627066077515331,-0.014234343611647335,0.021556726872149427,5.43
0.1356086368439332,-0.1132560174479736,9.788370079019069,-0.004508366072464131,0.015103540218569621,0.007462595746974454,5.44
-0.0374496539207228,0.070855903907777,9.912977411868743,0.009316540816056556,-0.0027923320673314896,-0.01484909794049534,5.45
0.09505020649361255,-0.07204537779781123,9.822325760538027,-0.002298607041767208,0.0008771118964653483,0.0025133032155776175,5.46
0.06668699327346597,-0.1952602372303205,9.735899328439105,-0.005422886858460409,-0.0014413608750991254,0.002319117656016608,5.47
0.052335200580490265,0.06362631256362582,9.825807744383024,-0.0009567292729184554,0.002728766708773157,0.010638185105859161,5.48
-0.14918608642285716,0.011428447166764166,9.771499022380931,0.0034315667625490183,0.013683068902676447,-0.00120148759053442,5.49
-0.03650690411462542,-0.1493926494134292,9.626911934070568,0.01575651962034911,0.006254351785021246,0.011611850242838609,5.5
-0.05780345145931494,0.08805794904246395,9.849351597021995,-0.012058388552491599,0.0018708638816322682,0.008727991621721495,5.51
0.07265552900480292,0.08813121259592525,9.83717492251558,0.010872761960091048,0.00990371830661951,0.01768104258340941,5.5200000000000005
-0.116834151766951,0.07089188372862308,10.01706690386269,-0.0047525012445403655,-0.005576355724280302,-0.0010896238258830684,5.53
-0.00482142174214781,0.03305386310028091,9.701312677030161,0.012104923962545047,0.003946838203376082,-0.006247780548934091,5.54
0.1470229025371886,0.041230511801101384,9.812646880051792,0.002365993806744365,0.004517171696102675,-0.0013802156162162327,5.55
0.12215613952738269,0.10243916674403837,9.70798781505331,0.00018077461821063825,-0.0034790863972417947,-0.01359730814959243,5.5600000000000005
0.03765026979216586,-0.1058672020597691,9.926556795665757,-0.006348964864612844,-0.0035409112885515432,-0.005592644946516858,5.57
0.10550477910964338,0.018348333025243854,9.780227978394944,-0.00939067541716299,-0.002002541597701957,-0.010476048831991895,5.58
0.1255763163705317,0.10242303982101952,9.779495315073254,0.009660851007196618,-0.00801617088290544,0.00047966066276527666,5.59
0.04616417582152854,-0.07534650700985983,9.70246118108738,0.0027242943796660342,-0.006094961576906715,0.008979608996889502,5.6000000000000005
-0.10532857576609284,-0.06204433506664112,9.802180602371346,0.019979004469045377,0.008885713249048263,0.007593019471542732,5.61
-0.024125316027814293,-0.11725728249168983,9.79865694384162,-0.008287937809031821,0.0025351699792900053,0.008172045965274386,5.62
-0.08021505609385987,-0.012635780499657932,9.789456900160182,-5.48225369827446e-05,0.011146629134379487,-0.012250610817777195,5.63
0.24398604038236443,0.1372343473656884,9.82916159123129,-0.006556150095156801,0.010308960300965135,0.008367496623116004,5.64
-0.10667408613883188,0.11281522151793405,9.850556270474353,0.0006494486587484352,-0.006591600470083708,-0.0023627750001537808,5.65
-0.18654024635313732,-0.10851928856829028,9.804875929608716,0.003367878388443978,-0.004005592084406459,-0.004213076041468698,5.66
0.038654622453994425,0.05261813344420177,9.883994525424503,0.018004603441657135,0.0028408665072996416,0.0003875658141517277,5.67
0.03280888353285942,0.03339007890430997,9.684139723766208,-0.011937182737437602,0.0024826043339787832,0.016998386539210004,5.68
-0.02728362265135874,-0.01667493034389987,9.939812747309778,0.004687088947277348,0.012628204657484859,0.009824965255901385,5.69
0.21010586713599225,0.35412162126218166,9.885074744612961,-0.007037199785507967,0.005731819683908531,-0.002201767181477023,5.7
-0.07895692826343259,-0.06836147327435527,9.69456754800125,-0.017181485397375903,-0.020535646678908396,0.0072989902567151725,5.71
-0.009508058377832786,-0.04605436172354276,9.891803750614066,-0.004074868376880942,-0.014635940409472572,0.0011644241509790442,5.72
0.0944602643243935,0.11290865975213929,9.8509982115898,0.004194019398720844,-0.011252725292409402,0.008253111541169237,5.73
-0.07666478837069712,0.09945644691211815,9.997808613742398,-0.007946007983727936,0.004277571209000956,-0.004500795867575045,5.74
-0.06671340236459397,-0.023970862041306065,9.695209897698938,-0.006756340870892701,0.002081626293700498,-0.006652882893307875,5.75
-0.032519237678775445,0.045052756514972425,9.747667289125571,0.0055672637889771824,-0.006098985692354115,-0.00866090768013803,5.76
-0.03245730369396082,0.18632218884665974,9.844630280749787,0.00781246809778384,0.0014192034390322816,-0.004698171121392096,5.7700000000000005
0.005501379500520051,-0.13615856297827428,9.682737400263713,0.000820523764022698,0.00423285743239355,0.014950593861668804,5.78
0.04006066837527835,0.03492358761782096,9.722644959228798,-0.005975517261463855,-0.012204529462853688,-0.0003251453431710103,5.79
0.06288556658922204,0.09186222177040756,9.820751188917479,0.004258174927244769,0.001675929015801322,0.015680905791701238,5.8
-0.10818837005971005,0.0910340033371738,9.865615953391465,0.0035243960688478527,0.017437783183911697,0.007948040415400861,5.8100000000000005
-0.001665478455284547,0.18420154294415658,9.779024111198881,8.981478187604673e-05,-0.02341833477638593,0.0213935293267643,5.82
0.11497555934075064,0.003905540807557922,9.844525082225028,0.0004268333955940607,0.008251345917767015,0.0071558021102909935,5.83
-0.1485413000976828,0.08850676077194636,9.66796573056565,0.0075179599562659955,0.0036635592708199,-0.009587719876359825,5.84
-0.05147132106216306,0.07576016430760263,9.800674276613535,0.00686361081487688,-0.006376824488203036,-0.017185105990740676,5.8500000000000005
0.07502136533437294,-0.07324362112117348,9.755446086871778,-0.012832049353206863,0.007992200848050014,0.0030827683925223883,5.86
-0.04939757292886529,0.07264258778560116,9.916806437299321,-0.00034822036329586214,-0.009225499719992161,0.009472117407153527,5.87
0.11013111861231815,-0.002858062877539193,9.618718145631519,0.008856565862489075,0.015822870199531484,0.0014163468242276702,5.88
0.07092722739092047,0.005417138797116071,9.854133426324777,-0.007402764054794142,-0.006451608512972168,-0.0006594939200986791,5.89
-0.03481334755472415,-0.12296128421733349,9.86788141691152,0.012477203168460647,0.010775423520505431,0.0022454099675277167,5.9
0.0914900324778149,-0.03624902753040473,9.69145334315099,-0.009437640540803227,-0.005486644850629436,0.013315340139468057,5.91
-0.11595676107296443,0.06137103539086454,9.865809894543212,0.001865023174651127,-0.0006590463743583326,-0.009135875842814428,5.92
0.08223982891020226,-0.006732716922272598,9.731448246886302,0.008492622818552217,0.007945296016529829,-0.01748877187799938,5.93
0.11938996614048834,0.031013594895061877,9.835313130664074,0.006143667192050469,-0.00878088936021287,0.005832835937447933,5.94
-0.1407497653607179,-0.012936224656108653,9.696626101927027,-0.0067904798897031665,0.0026216886661574864,-0.02485609395841967,5.95
0.04617732828613083,0.02835160171643771,9.808460749212106,-0.020233975570221014,-0.006475609506058314,0.001737983079148766,5.96
-0.08317838914607396,-0.18196479269817203,9.87982539943631,0.007627220491465581,0.015563834055592914,0.004628470392606049,5.97
-0.1633868325112294,0.054656656500459214,9.877327254258452,-0.007862875149804915,0.009435919576834302,-0.0017834370260274475,5.98
0.03558816093689623,0.2168931460033334,9.888064241090461,-0.019855556786946206,0.012813533583558889,-0.01300861946515099,5.99
-0.0361723927451334,0.02980669015678223,9.907616254242486,0.014105911499016367,0.005351618451249239,0.006407443416697336,6.0
-0.07143018037838826,0.045527276518047444,9.83918436352831,0.0006002268340442886,-0.013381323278358255,0.004029537283690641,6.01
-0.10922005519058411,0.06453232764017268,9.87103367796387,-0.007518195310540582,0.00549438462178135,-0.0016184728648651287,6.0200000000000005
0.18616048039995142,-0.1036501825103199,9.759223030777592,0.011095041437301278,-0.011159047077842106,-0.007762921668803502,6.03
0.055983068653871385,-0.05544888165886246,9.839964547949622,0.0024311471421939075,0.002751677961927036,-0.0058837928933936235,6.04
-0.13928333018100988,-0.015164410927975212,9.808885256230232,-0.015067591360319084,-0.002817090184428645,-0.005798605258597654,6.05
0.013773654948079212,-0.12436648335744811,9.8542512423136,0.01360719558410341,0.004255446962539772,-0.0017840309978413033,6.0600000000000005
0.04477855963852483,-0.07732325771902711,9.826260008409625,0.008628856109230545,-0.0006836719684692362,0.006303164359891575,6.07
-0.07327751272822851,-0.022684037014311403,9.943051375143897,-0.0007199558645948569,-0.01626137321163108,-0.008070521545135488,6.08
-0.004306397686339581,0.005168353365590851,9.772473471078184,0.013814795432011955,-0.005110706759775412,-0.017361220835027575,6.09
0.02034861407116485,-0.034600000497551235,9.709854690390966,0.0034674499943651515,-0.005319172663343604,-0.03035120679514876,6.1000000000000005
0.12930267142381907,-0.10816169085687073,9.852923633109645,0.006367276949803456,-0.00151783596507284,0.011402863883825044,6.11
0.16105399167884932,0.01971397773428442,9.77994030639272,0.0004057062052078382,-0.013643927811188325,0.00809296673703581,6.12
-0.07041523548029822,-0.09740717615283305,9.762588916987525,-0.0005057306137481386,-0.004256103236544163,0.008287239221792699,6.13
0.12954094419054593,0.09072354596573833,9.626713761677061,-0.01645827291692365,0.0014542398219027461,0.0006815111204263725,6.140000000000001
-0.18391370493801668,0.14962753171096402,9.899685383073026,0.01715500204552821,0.0032222014007414817,0.010829352013608778,6.15
-0.038014683525294815,0.07058609228471972,9.812550143035628,-0.00911524923754496,0.01144283134096974,-0.02032026967128319,6.16
-0.1193205917933779,-0.09031073846116804,9.8213229262641,0.008899635025455132,0.012454903752721631,-0.004716118544265711,6.17
0.14930071910593948,0.15062921431251708,9.901453930274283,-0.0034692785255706665,-0.020127286807197362,0.0018525289067871378,6.18
-0.011443685614742495,-0.05167684739843412,9.79507399233521,-0.013297971499908658,-0.008668381561038847,0.010035320526504868,6.19
0.07683144888989002,-0.1399734378081146,9.924618062243793,-0.008614954872250205,-0.013321476652330364,0.010879992414009778,6.2
0.13963869447294028,-0.10255595425403552,9.815220054966279,0.011466284560288155,-3.4039397749026285e-05,-0.004464808672803255,6.21
0.03582577004923507,0.004089650798011144,9.75655440489646,0.008386900757179544,-0.004288392773988009,-0.0053105246074334304,6.22
0.18408925905029244,0.13163029668679713,9.64953977768547,-0.0072884935021581545,-0.0001921397639822984,-0.0024845571369792774,6.23
0.002925843314501096,0.059834212034660876,9.695919744318848,0.004982888829902559,0.009374259508277498,-0.0034269029348326803,6.24
-0.045595661568330816,0.1309683646956725,9.687357538618333,0.00954982030356361,-0.010399201479871554,-0.0077821560249433,6.25
0.10821555306754503,0.19002020638768435,9.877096922363043,-0.0018661892646222903,-0.001729801620989787,0.0068697557233797606,6.26
0.008104678872145905,-0.013442736781062524,9.876406661798917,0.016450461358346206,0.009499597061730826,0.003111164826218736,6.2700000000000005
0.3063116376360699,0.12731789119458514,9.902953135944658,-0.006440828777461544,0.0026098441441384556,-0.010019468300657988,6.28
0.08084148815348836,0.0579385458172345,9.902775447600112,-0.004175013071060381,-0.023583027573852295,-0.0015046395097740941,6.29
-0.09452494703302898,0.05756829734138961,9.835811189123797,-0.004279020723650467,0.017801476329499518,-0.005234778440791114,6.3
0.09013548741359446,0.14334879630266303,9.654483577464767,0.0006242264483322668,-0.009344227930132063,0.002349765736548511,6.3100000000000005
-0.08228522910771044,-0.14484628508112465,9.859753163924838,0.0046243049792962084,0.027458928189840415,0.010188592637448417,6.32
0.07080330961142485,-0.18875361491134335,9.778642987800808,0.005929280245951387,0.004249286198025052,-0.0025520201742226358,6.33
-0.04167344621140402,-0.17185578385005906,9.842023172635232,-0.01137446836395001,-0.0023310185703496774,0.005765681115176677,6.34
0.0287771503880202,-0.046256986889863023,9.877234666907945,0.008962839723387897,0.0059800059209801125,-0.00870659238186152,6.3500000000000005
0.034579181467238006,0.11396426243951428,9.71811661330986,0.003625152697103096,-0.008259987671968928,-0.0022433824277439157,6.36
0.04280692019475266,0.15395713821498958,9.757963510359131,-0.023393898180604982,0.014583386658255966,0.007822780841477101,6.37
0.19472555647592257,0.05042636817321421,9.731980979260046,-0.005246059166722338,-0.006785686566431007,-0.001150452889384816,6.38
-0.04165109463756506,-0.12033343322005995,9.848542719770673,0.00911865834568013,-0.01670601807651865,0.01464857107884593,6.390000000000001
-0.12658541978816462,-0.18445801080103919,9.784603244544236,0.00020056744754365127,0.009718234236129915,-0.0021498136633044183,6.4
-0.06075637278388253,-0.12871027730936277,9.712810661871494,0.016299756535921722,0.0061498936956002614,0.008325134412883637,6.41
0.06806371697186377,0.051485444730146074,9.821943390628423,0.00825007978976956,-0.014835388666751353,-0.009101295949635373,6.42
-0.0579672807907405,0.10487166344549265,9.799564496398908,0.01075534740029448,0.01649220179580817,0.003890788018276858,6.43
-0.07588744725864183,0.035424825815639695,9.75041988750166,0.00994770870329661,0.004857198960219052,-0.002248988950651057,6.44
-0.10054026597072717,-0.10433861577823707,9.637781289687913,-0.002985662192184253,-0.0017715287482775526,-0.009037538271015217,6.45
-0.011619378647128024,-0.1381042812368194,9.828477651378476,-0.004993358737712298,-0.01481962437013072,0.007220844597566853,6.46
0.17743450684302073,0.10881753530861936,9.919489888673127,0.01873473112729631,0.015973721724134138,0.0015302437497184862,6.47
0.019630834685160498,0.014022722043770653,9.757828701400303,0.0014708348815351464,-0.0033883690105568397,-0.006195677438674511,6.48
-0.023714891264466954,-0.03593274025023487,9.859223512418987,0.001374727905915789,-0.009122791643423422,-0.005703440835177498,6.49
-0.196980487404121,-0.011654755462074784,9.754224887558777,0.001001209214967217,4.439194718249183e-05,0.007278037631761095,6.5
-0.18230940066465368,0.1801722740073989,9.770240890530093,-0.01415028068869532,0.012513034662436001,0.023317716873382306,6.51
0.021111352756449576,-0.029445169094055586,9.83484860315729,0.01839668984108061,-0.005654613101296196,0.0007736003495316118,6.5200000000000005
-0.1350884625496801,0.1089402655082651,9.700244471926368,-0.005922534416680958,0.0035961196450869587,-0.0072901821960104154,6.53
-0.007972997410892876,0.19541992646775153,10.00536215103621,-0.013794365544537706,-0.01429861074165701,0.006039403457278087,6.54
0.12008903935767082,0.01655491377974824,9.93498848069694,0.0004543636262502605,-0.003147710562744119,-0.00043075054266438005,6.55
-0.025928705348340016,-0.045373470166218004,9.928816349780307,-0.009070436153774203,0.00434167726925446,-0.0207758481286496,6.5600000000000005
-0.05795255827282008,0.04884559056157655,9.78831416092699,0.013508523659057244,-0.005177251108641894,-0.01181934413539998,6.57
0.05023375036083862,0.03304466947505214,9.666987430031945,-0.005593525061639054,-0.008295128956536387,0.003187975155100338,6.58
0.013303903881889376,-0.03346676178053643,9.567601307850572,-0.016385239569910514,0.009654248987293819,-0.008301975849273517,6.59
-0.1637055507195293,-0.13605624725440962,9.92098404726628,0.011015459534369063,-0.00569385349342827,0.0011463669997029695,6.6000000000000005
0.023147596164874898,-0.037983226555047746,9.730510185205231,-0.005284799794613484,-0.011822187613758382,0.0006071593385991307,6.61
-0.15337112358979,0.13214701465757292,9.919714809531477,-0.009536159368374784,-0.014356913951560704,0.004574837189413668,6.62
-0.08299240381973341,-0.0013820552994763472,9.963080663178676,-0.015883579667195363,-0.012780872519121488,0.00633734849358986,6.63
0.15432836525488042,0.0010071195516950997,9.805306356331796,-0.0019526021035862718,-0.005791481928010989,0.00013984760128824987,6.640000000000001
-0.10173532533949203,-0.10001834482172288,9.671752089059556,-0.011895565796529147,0.016658720734480076,-0.009518733394238855,6.65
-0.012082122718932782,0.1140614314695881,9.798969827311922,-0.002919816666177662,-0.020475453880700253,-0.015456194915974148,6.66
0.12578225643854754,-0.11078859171239892,9.776433735397111,-0.014202766585275731,-0.011004978487770403,0.010952638244824042,6.67
-0.014469753436000533,0.09210454308064352,9.78296975923947,0.009468867871816736,0.013792919791722945,0.008915027472692192,6.68
0.11925060602840272,-0.0021038575586383294,9.865884532954821,-0.003684399803389627,0.00958597935663615,-0.0022333691442671137,6.69
0.061991037045523736,0.03885459185092919,9.855838464009013,0.0014455642583094518,-0.019504291720166638,0.008540198564730253,6.7
0.03791525682400197,-0.012190385480352721,9.912830367834431,-0.0004353614366195402,-0.002553824424931192,-0.013631061119457943,6.71
-0.16643869961027014,0.13365471975354978,9.969187465751476,0.013685399067455847,-0.0061747363428579375,0.01786120598022593,6.72
-0.10575468896752074,-0.16934354630675982,9.812946270293908,0.009082201217620892,-0.012094533600216457,0.010585963842371185,6.73
-0.016742046374968827,-0.22370162272764646,9.90268078221209,0.012781792240385548,0.0015082128900422323,-0.007742939135493363,6.74
0.05807660739347608,0.011814162408739986,9.858619456539865,-0.008747870376545263,-0.01172975528251154,-0.009967159910219339,6.75
-0.08359691201815128,-0.05579529460190047,9.78482175504267,0.01764687905736173,0.0033850169006154006,-0.008141503736970274,6.76
0.00013248261509528296,-0.10572025052975641,9.882066196500737,-0.003312233093991552,0.0011962743714973253,0.0013922310507447485,6.7700000000000005
-0.03675366693586742,0.011357959718981086,10.008693694975637,0.0032254128384186643,0.0009396529757644399,0.006528513225373196,6.78
0.1785764479697778,-0.06812545990975796,9.7345122654771,0.003970665839970992,0.0025088799900582557,-0.006806316385861758,6.79
0.0049376447343821885,-0.0390138506593082,9.734581011747883,-0.00997167470183744,0.016487193017233167,-0.011892445468539264,6.8
0.05613499377008058,-0.02505632155460216,9.807931679230288,0.010272065805416187,0.016746121423955897,-0.016225942666622743,6.8100000000000005
0.06844218853748912,-0.08799443738744703,9.772002421269702,-0.004829091091010378,-0.011306036730314576,0.0217560631620688,6.82
-0.0164588912658345,-0.1087417253760006,9.97615253206489,-0.008224870608028624,-0.006084468982635346,0.011060333049506115,6.83
0.05397187735282866,-0.07597350927517427,9.882315695592695,0.0030550659365685233,-0.008872761093387551,0.0005288630272214456,6.84
0.03624671441962571,-0.17083603118651464,9.749764548664341,0.0013908113546257828,-7.312965538478776e-06,-0.001329340844243938,6.8500000000000005
-0.027607364637077254,-0.0053952934035460965,9.720182504032374,-0.0009853153143020872,0.002461607307371549,0.005642302145838197,6.86
-0.03399149218225449,-0.14432836134004684,9.966485206490207,0.013040874304423978,0.013934172027355907,-0.022467831513899732,6.87
0.046837894615562266,0.0037313818282743425,9.717606167906688,-0.016778455845735712,0.003687482667078937,-0.005362085127862014,6.88
-0.08361018253222778,0.11680857823005729,9.817997163941097,0.023277949691121243,0.012711085765885534,0.010309101325363994,6.890000000000001
0.0963564690288651,-0.12060272272807462,9.681547555919582,-0.0004255071851760814,-0.006999843439145852,-0.0019089745958712468,6.9
0.13838178648407815,0.12883812134374506,9.652648263215257,0.0011499317348568922,-0.010323578231128623,-0.0247178140891256,6.91
-0.09417809878532843,-0.0034225980907486154,9.778174426890411,0.0015414115785809665,0.0077255507365079044,0.00771957267273655,6.92
-0.12470407709097996,0.09770383661236953,9.764542612580845,-0.010636808339662088,0.0036448249814733475,-0.017194498405962565,6.93
0.024965155576310454,-0.08937953627315776,9.935918358611863,0.0059557065296544235,-0.019700207215430383,0.012397186088387009,6.94
-0.05554829754743656,-0.14572372796139385,9.829254587066268,0.003348774595240948,-0.0029142785819991864,-0.007547966638712711,6.95
0.0954772506667016,0.055543286300927155,9.714912277203105,-0.011072330321801332,-0.004227660431687377,0.0011917333290630116,6.96
-0.19533648813741916,-0.134375746386236,9.889191165440794,-0.0016665995370747126,-4.5356844196237794e-05,-0.006373835442595582,6.97
0.1911315330630324,-0.07490511678543002,9.801842313768848,0.007732147558647013,0.000913539330432223,-0.011253763674816184,6.98
-0.04326293502052328,-0.03134457312632139,9.750633823985902,-0.007138931784827316,0.0062604599386390895,0.005071077879312872,6.99
-0.024966767257018588,-0.05934869046312729,9.838310448624863,-0.00016641996919789724,0.008043181047369301,0.01037189832928466,7.0
0.031829326227880164,0.20620187340723134,9.808311196208297,0.019724416464632934,-0.022492156426153227,-0.0028749420973494867,7.01
0.035593718811419074,0.11535639124258677,9.782630961721264,-0.004795781300178725,0.005170006787264116,0.00578834430108205,7.0200000000000005
0.1295489759197944,-0.19799301584253465,9.65668611131468,0.0078814862394769,-0.000324788871650289,-0.009361010765548385,7.03
-0.039949062964177634,0.08975660718927632,9.857729359355378,0.006868719342157848,0.010062731825054806,-0.006152074574351638,7.04
-0.11476838332593381,-0.16748321881150452,9.822754119485019,-0.005543081114825208,-0.005628047915215189,-0.011552815978819516,7.05
0.051407413524938717,0.09648132583557517,9.851909414333202,0.0050046295617620605,-0.0022139897112964436,-0.008106434698225312,7.0600000000000005
0.019121611220269848,0.026014446111353274,9.728376560321017,-0.005505300684710136,-0.00581679926248772,-0.00087538780856845,7.07
-0.1314929332739749,0.09041141833050828,9.881153037542346,-0.014454241795227998,-0.006058522520659039,-0.004406302611028936,7.08
0.14397540029767084,0.09458468229507175,9.773981545636097,0.003507081740138006,0.010869852023801321,0.01734027640333882,7.09
0.024657872778892722,-0.01770237689652345,9.694536813021239,-0.004429877155729136,-0.00014503992559393016,-0.006153345288179219,7.1000000000000005
-0.07200732305229456,-0.011343402748919556,9.828122606393574,0.0005526646983645087,-0.007398330417268832,0.014542368474934637,7.11
0.037491888104543,0.06435060581274366,9.871838839555343,0.008773569320671377,-0.005344792751142849,0.010213457276539797,7.12
-0.14384165524106146,0.07884207246299273,9.730722147590862,-0.011975595123675839,-0.0031760770125153653,-0.007977398380125601,7.13
-0.09241742308233912,0.056345694716506294,9.776874788501749,-0.0022098085696931353,0.0027841456072179712,-0.0040871412767713965,7.140000000000001
-0.024214797753463243,0.0936654822239778,9.870281960456122,0.00113397840717032,-0.006429803619968444,-0.0034455787095332363,7.15
0.10025650309778514,0.11745332341353379,9.718122886369647,0.006086673839924534,-0.011856327087893321,-0.008659622226257222,7.16
0.13684048965158105,0.013399390173254692,9.766254364948365,-0.00042235989543273,-0.001015541408301772,0.021758161345325117,7.17
0.10558032841478587,-0.14158987859670813,9.931348384773266,-0.005749434818460134,-0.003429739165689086,-0.01719998995785068,7.18
-0.039391038423158664,-0.009597320952153078,9.769775656931085,-0.014615938313977325,-0.011539271418208345,0.0020661526341190046,7.19
0.035971544884057474,-0.01761163144408192,9.980537799275325,0.01221447242431697,0.004957290916642532,0.003711942157007583,7.2
-0.03264552323093712,0.005278928456681032,9.852081243797462,0.0025040385644888954,0.0023048046142402083,0.013065601373787683,7.21
0.049937804502140165,0.01140216317931654,9.640586593333545,0.004912909604843861,0.009624918449936539,-0.006095236637584854,7.22
-0.10257078416334922,-0.03604025438415581,9.746793536078151,0.004640715131559554,-0.011195352115603614,0.015208579785822645,7.23
-0.03212532198912404,-0.02662886149567716,9.684439256959564,0.01099772752942079,0.008086025337055429,0.011855235897148292,7.24
-0.1645033368837093,-0.05354903165441826,9.991603652184956,0.00709741459472573,0.0017454003088526015,-0.004580463435696739,7.25
0.05215797748576741,0.13499296128682634,9.779682935845408,-0.009312202198179227,0.005376364583497508,0.0005921750286793306,7.26
0.1303266907521896,0.34497320171214585,9.877881246308146,0.006241225325088714,-0.0017073638488970568,0.005506494525385547,7.2700000000000005
-0.06554805073465146,-0.010333428317300553,9.56107741216897,-0.002526509490857611,-0.014522318666989324,0.014509933235079289,7.28
-0.052757543022877496,-0.07600377022559907,9.621981056601415,-0.0004683318680120164,-0.008634524260128878,0.002383882973583524,7.29
0.20919704612580114,0.11585985231063495,9.937699000057444,0.007033502737625514,0.010979933512767038,-0.006413642996265007,7.3
0.04189766933261211,0.23325023991429578,9.711374278876782,0.025830181295631742,-0.00889298220117464,0.001947070755878983,7.3100000000000005
-0.015619704298379595,-0.04314311726828614,9.849341792787703,-0.016674250898701823,0.0020028656534841443,0.004750485857863474,7.32
0.005128874604724606,-0.07333597460621731,9.754170198873597,-0.013612500534715024,0.001231572135658806,0.003627574351639157,7.33
0.1133326443488662,0.10932633358122279,9.827830584563861,-0.00395275244592453,-0.005582212384131427,-0.011603379754912505,7.34
-0.1607080647519411,0.0014627284123143443,9.7904560478724,0.0004607050753138377,-0.013163475924209488,-0.010238058336440075,7.3500000000000005
-0.01778789617933906,0.12346177607717013,9.842753094716295,-0.015387971904448157,0.017489302878212275,0.003701149637712873,7.36
-0.034312900643654824,-0.12418233122933908,9.893793258411955,-0.006681829192687854,0.010394205844649925,-0.010890322939293514,7.37
-0.048329558643028424,0.029419434425720148,9.729122913436374,0.0024805254915917763,-0.011936256622016757,0.004216586024418957,7.38
0.08796832819474501,-0.016951301802269902,10.051502298142285,0.011175229537542311,0.008028380492273623,0.01061131078157486,7.390000000000001
-0.007192716887347884,0.007563427901379105,9.831298430991021,0.0038048634476599086,-0.011422620537032474,0.005355420988764858,7.4
-0.09145018360708967,-0.20687103003904186,10.041368160478505,0.011273332248775723,-0.011331902768226368,-0.00790620896854495,7.41
0.03422923835102628,0.061284319205845345,9.798904488669637,-0.0016710172348819309,-0.006920137238567992,0.009821645609080833,7.42
0.2222234555635474,0.14628888891943337,9.863624738378064,0.009521108991583111,0.0022676978118509076,-0.013277556396717759,7.43
0.016119215939560522,0.031003374216280105,9.719623565606073,0.00042994209395013066,0.0011613378549153836,0.005335606998986373,7.44
0.04682833127784836,-0.009960992404174958,9.815697713809486,0.008052101124394044,-0.002225649184503076,-0.015489150056354378,7.45
-0.15028825614249958,0.06908254959634573,9.940267453589765,-0.015603011524235355,-0.00011805854453496035,-0.004816689872657641,7.46
0.1606613093578064,-0.09153441707082652,9.852948077679544,0.01816178956162811,0.006135648185901701,0.008684499302336534,7.47
-0.10969841148410686,0.020932299732946004,9.869428088275843,-0.006008626717087258,0.001214084547595618,-0.0001531480493487329,7.48
-0.047579296158165536,-0.018458518481596863,9.689772052371818,0.007683119258471284,0.014541219923482281,0.01634613716981723,7.49
0.019646555535884697,-0.1677336003134124,10.001606032247533,0.00404116306421479,0.010978128127728262,-0.02080924166091355,7.5
0.13282845425477244,-0.05037019077883738,9.645600633263651,0.024731152012023437,-0.004970211804745791,-0.0016753113016418695,7.51
-0.14610999328474267,0.007092529340142097,9.789265957430423,-0.009963012428099055,0.008591789528856699,-0.006360655379322981,7.5200000000000005
0.1128409452991051,-0.1692714371090499,9.788887594652303,-0.018683978705574117,0.016154590902555707,0.005295504770108872,7.53
0.08122559444332625,0.0025675528438489446,9.730653035440236,-0.0002131391890246412,-0.011115291624846898,0.0012906525775638834,7.54
0.060533818299900594,0.19707236186449043,9.638851890716538,0.015327151735610323,0.0021620689357432633,0.0005462286846797963,7.55
-0.04897949578527166,-0.059480720838117555,9.832477825420296,-0.006400456420811236,-0.0018210126749038406,0.009356412753361942,7.5600000000000005
-0.1240609319860103,0.12467864257273975,9.775172225808554,0.008784868270239853,-0.008541914561184794,-0.015478538409764011,7.57
-0.09467283736100268,0.00031693918242262754,9.75993840634141,-0.01830489929558947,-0.005643087583472792,-0.008337873124972929,7.58
-0.09823649389288652,0.11189182564077645,9.811326625636127,0.01576004669733506,0.0009669727022651035,-0.007982985944451616,7.59
0.04287889793604322,-0.10534673243004207,9.756147967064257,-0.004813440376093461,0.009229581429397645,0.004807933256172318,7.6000000000000005
0.10447239295986893,-0.0037065819267497247,10.004328921934329,-0.003863235914122514,0.0056878647980020845,0.029673127478337558,7.61
-0.08451203046533258,0.03216390381460246,9.655453332282422,-0.02293413289971117,0.0001039688682490914,-0.007814093489351987,7.62
-0.05880724341549304,-0.20734698849147506,9.506966619225796,0.009217648891005339,0.016492961229931078,-0.01285558989070059,7.63
0.10220782453387477,0.0162703097393339,9.746762008835486,0.0003269407582474376,-0.009138119117966316,0.007658158794641466,7.640000000000001
-0.10942002064445058,-0.02664114231862661,9.99260857215274,0.008568701608851526,-0.006495582094099568,-0.01785423504361505,7.65
-0.018363170908811097,0.02830773187673066,10.037407229548375,-0.02962069777762805,-0.006747104367280067,0.0002188425750787788,7.66
0.046661533086908104,0.12816905190747452,9.737702770850325,0.017923918813008425,-0.008321888092899148,0.005968068489856074,7.67
0.04187069010378034,0.05772673680238272,9.85892806644242,-0.011669856263695407,-0.01265721772310275,-0.008292457078208176,7.68
0.14323737020110663,-0.04347977067604697,9.828568263167611,0.007092745042930297,0.02033972374918406,-0.006599755998700305,7.69
-0.012553235254159198,0.03840824312039309,9.957123367207032,0.0025476316415187113,-0.019175637412078294,-0.014540593446377034,7.7
0.10945881161409302,0.019065182102074602,9.74919228658138,-0.018481676332800356,0.03185205368637868,0.007344948643589983,7.71
-0.02713409528622109,0.06865960520298013,9.70312577884264,0.0015761445051676434,-0.0004926536282177972,0.00346156639825557,7.72
-0.16361560357618674,0.010375272928251739,9.964337704580103,0.017885552636605646,0.023470795214817528,-0.008111065992756197,7.73
-0.038659747014314606,-0.1977808419205108,9.74329266068661,-0.009210016783859113,-0.006589732213743108,-0.011495898978059686,7.74
0.14399639584966722,0.020987869077606153,9.945079179045715,-0.009073432603607304,0.0004474410235006885,-0.0005608867498923477,7.75
0.0007414843825346142,0.002997652498007944,9.713219043438787,-0.006224086140808493,0.003001192891866682,-0.023043253061230756,7.76
0.03398040526249,0.10223156398010876,9.84765141865252,0.01641549692476925,0.0027724238764791176,0.007432701027142194,7.7700000000000005
-0.02420238042656285,-0.012480501037355372,9.872036241550864,-0.0038903980760355114,0.01268828958038589,0.015718246339199982,7.78
-0.08137721447685309,0.16111354576296574,9.73333005854364,-0.009849268664710992,-0.007871822577467323,0.01101426145146378,7.79
-0.04953339847015609,-0.09135966776833895,9.80062486201532,-0.005289742060660323,-0.009811305381167468,-0.013802290949792422,7.8
0.18538108977063075,-0.1523115075329318,9.50105954470309,0.009398770169479497,0.0006599068105289971,-0.0016200308017886003,7.8100000000000005
0.049902353398643316,-0.011876012372792098,9.942012471094525,-0.004491582027303864,0.002025796168364445,0.015779196041901623,7.82
0.05398379523368402,-0.022725496876443693,9.914747897464798,-0.005980956440442571,1.3943077033557254e-05,-2.8493243019186294e-05,7.83
0.0397806881098058,-0.14396122447549914,9.738033577072342,-0.011405504599434171,-0.00046579391542514713,0.005200281481085088,7.84
-0.10921359890396237,-0.05300021220984008,9.909875935101011,-0.0017401086263385214,0.004779926450432966,-0.003058961474974321,7.8500000000000005
-0.008667469724176854,-0.1539053774452644,9.648877357565542,-0.0016322428061474321,-0.007892406001339388,-0.008644819933332205,7.86
-0.022217077458650616,0.0865290981125781,9.90068950853266,-0.012612221149782122,0.016469776112370448,-0.0023446128912414264,7.87
0.02096229488490328,-0.06346146722117667,9.729772398484688,-0.006349632480699717,-0.013613619475523885,-0.005971013343720565,7.88
-0.07623326722443355,-0.16151382707296985,9.693032662553389,0.00024247391117482282,0.01414052345204448,-0.009028215398332262,7.890000000000001
-0.035907425528771006,0.002013332146833315,9.76793979768215,0.014422950550823075,0.003494003296933899,0.011092746073893711,7.9
-0.01354772916439575,0.018564430725393637,9.810069418161829,-0.0055735875959459094,-0.007672492143791331,-0.0050778710825419284,7.91
-0.15007716090925521,0.023780625095819338,9.866709590135518,0.005031458655125498,0.007929043172911937,-0.0055989364511703985,7.92
0.06358468426206455,-0.018107291934347607,9.903929698161992,-0.016845105549637206,0.005022922274465756,-0.016687018983341306,7.930000000000001
0.22341448635296768,-0.01708537007383613,9.808721970139993,0.01044866488896913,0.011872925582611216,0.00024264068962537733,7.94
-0.09581933508435253,0.09794542947261306,9.797398917618548,-0.004514066704594716,0.004146840613713646,0.004568370916172866,7.95
-0.05593827796524242,-0.24402523626650022,9.765729333467494,-0.013197670792424515,0.0032271178135406136,0.01193012442086274,7.96
0.11424017867292678,-0.03949834601864488,9.941599313805279,0.007858134088971387,0.006666444885204059,0.004948355220564976,7.97
-0.11537277711958374,-0.10491557683163073,9.914912149631245,-9.169621802656902e-05,-0.0016951377037464938,0.017821156412199668,7.98
-0.03655719293312284,0.034372812249925215,9.836626305578513,0.00021170845800507602,-0.01637289218727096,0.01439806672564143,7.99
0.007516632039893546,0.06947626578867246,9.819806866868756,-0.006559210091212245,-0.005789407765304583,-0.003512006679396702,8.0
-0.05056509680438445,-0.01054595264453783,9.892140598250116,-0.0010898361478145246,0.013267297588838134,0.0147035456761563,8.01
0.07261428540228057,-0.19205055198464993,9.624490809824488,-0.000235344407538997,-0.012898431547969831,0.005041630934350786,8.02
0.07453172652932352,-0.23619502895432898,9.749498383466978,-0.006711722096514884,-0.0030246326786251354,-0.0023034727860223097,8.03
-0.1833538738571978,-0.02176607636235427,9.74152580747894,-0.007744242567405238,-0.009144389085058154,-0.012126160403216226,8.040000000000001
0.05313257982810463,-0.016733069101474866,9.84500435561571,0.005106609190148221,0.011691985050925554,-0.005378771195605508,8.05
0.02128390896080596,-0.18902077388105656,9.832268234028627,0.004408785691366153,-0.022390727277371965,0.0030189118412333577,8.06
0.03164624184603847,-0.08538461075003594,9.687574666364846,-0.0012710605658673882,0.00998900376146934,0.008514729488134391,8.07
-0.05608359734762541,-0.09610982651640514,9.848120374127197,-0.0007251903807898917,-0.0074156720491225046,0.028328579528556413,8.08
0.16604847206105672,0.03595530006084712,9.719382686016683,0.0036671911116031657,-0.0023913735945535635,-0.0032541114185814595,8.09
-0.04775599140344397,-0.13040612663384707,10.012111066470316,-0.0007640079725744608,-0.008979948721585891,0.0258491595736698,8.1
-0.020486260250673342,-0.025724836411742565,9.790348693630808,-0.013226128342321761,0.005035937979651009,-0.0028752386318624834,8.11
0.02350922812470569,0.02783931685708459,9.733436239507496,0.011497258489764987,-0.0014284232357315802,-0.0031566428132249512,8.120000000000001
0.055476584978496474,0.006347368320832459,9.868079469886077,0.011335107101541606,0.0031257766303817215,-0.012051970293506993,8.13
0.181842271631237,-0.08775272321977733,9.626821985083147,0.015230945363061327,-0.0048343657131266595,-0.010749044842758935,8.14
0.014922729187905479,0.060551098788535145,10.086314626857144,-0.017820471703540668,0.0025671851197582645,0.002910977859561231,8.15
-0.09254658446322203,-0.012623166582118168,9.835082200228952,0.003480129200402776,0.014284045500094478,0.0019233789335858544,8.16
-0.001692594753484296,-0.04056098262167329,9.908728545124323,-0.008817180691992658,-0.005374477112911237,0.0010256184302381767,8.17
-0.09887035823476903,0.0942459311171443,9.817578421688237,-0.01551919579158238,0.0004349699014532095,0.006030471689809428,8.18
-0.03823858152807609,-0.06896648250035779,9.81195031234,0.013576434860174711,0.01293139706273872,0.011355223541711177,8.19
-0.05352907799669618,0.04820238963048591,10.015341168145063,-0.010031940583874004,0.009676233360648271,-0.004052327254865974,8.2
0.08304749900560356,-0.14260250520397666,9.752349608822106,-0.006368300346769673,0.010530049971638545,0.005613547862388598,8.21
-0.30011244209146415,-0.0422280219515993,9.899744287349069,-0.0033454479933706727,0.0037998697325649458,-0.008113375632792763,8.22
0.04874898820169628,-0.11115783652986831,9.637285664768077,0.01796965663357244,0.0031370645652022446,0.008656280241420405,8.23
-0.14663406486074335,0.15943536640546757,9.830935829635767,-0.016173653878906572,-0.010247374335619102,0.007581227389194153,8.24
-0.08312532527088429,-0.11368967702792261,9.716452459374793,0.015912011299282772,0.007312478256931333,0.012104186450751304,8.25
0.18566657150985444,-0.011752451917993198,9.730079507852297,0.012480429470837912,0.0019941195885535474,-0.0004642298625307946,8.26
-0.05915475826664658,0.05215783298768526,9.729013825549332,-0.009302185572484084,0.0035337093012106574,-0.010055727470656313,8.27
-0.16881816391713067,0.1267567896713023,9.878011296829944,0.014520963031982324,-0.004381881195046339,0.028631861765349036,8.28
-0.08254399693288994,0.07923084071500654,9.730767943296136,0.012579913672457862,-0.01044277418983148,0.007541541095933722,8.290000000000001
-0.01518890401534859,-0.034050417138384935,9.588583709972747,0.0062632365294979925,-0.009204020621753371,0.011063410160219882,8.3
0.054839229653828106,-0.030081376653024988,9.824957034441368,0.0036071291968328917,-0.0012156774658335073,0.003174953682848557,8.31
-0.03272740224709305,-0.11468297028556262,9.787464972685763,-0.0003931159278321427,0.008565190474206561,0.01431434141821923,8.32
-0.026818448110320504,0.07368392687261756,9.976702307181519,0.008507372721144527,0.012414587521215421,0.001590827677608653,8.33
0.01961269458792293,-0.06625726664852198,9.880752047483009,0.0003009503441034422,0.0008761801849979809,-0.01439315177662324,8.34
0.024464743570241393,-0.043348689621805624,9.783263225584067,-0.0015160603530247885,-0.02187147622292365,-0.0052462713007589,8.35
0.0035848627242705644,0.15803398262767876,10.017241251972838,0.002696405412839045,0.011942257843998107,-0.0094273428548284,8.36
0.12679939937027462,-0.029781462820678978,9.984319795532839,-0.002088193576324886,-0.0031313574646541454,0.008273977115666464,8.370000000000001
-0.00866619411631236,-0.06714420481882587,9.900412912736131,0.016037855926078773,0.00945383685821424,-0.004723671672443271,8.38
-0.030273307390894396,-0.057346140899654875,9.812705987214265,-0.0179544974759625,0.002660815000809293,0.003086576862352588,8.39
-0.0612007028463947,-0.05951277455748866,9.786819648942695,0.009172699647186321,0.01753024018945601,-0.011372835650421473,8.4
0.09674351260349717,-0.01176190616939345,9.69961126931842,-0.006148311211485018,0.012350300654485218,0.006910920682079597,8.41
0.038764979266384114,-0.16902946145418565,9.74045990183666,-0.002170683277753497,-0.008137308335053554,0.007882880309316475,8.42
0.017689421560079712,0.05879654875538829,9.985916688598515,0.007591494462338062,0.006437004284415799,0.013876731750903249,8.43
-0.02032272614126443,0.07654868428570272,9.948759088430952,0.027034389004742098,-0.011822469950888882,-0.0168736235562162,8.44
0.01451114042289637,-0.03703155520157892,9.871971547789054,0.007343196031596203,0.01038597281945038,0.0076138687763117165,8.45
-0.03173037137984433,0.042097094347379044,9.89266871270265,-0.0063839382698871365,0.0005612341706575994,0.0034611034428237214,8.46
-0.02197842739365044,-0.11734131067191181,9.864945242373764,0.005780196537816292,-0.014068529459937707,0.00587522777406662,8.47
-0.2082441012029709,0.009548582809070349,9.738898220880344,-0.013515730914031973,-0.0059470581766839035,-0.0064555839922553135,8.48
0.031344173045897976,-0.059653129213989124,9.791454184428805,-0.00806802822257956,0.003926794243785399,-0.002349755950737813,8.49
0.05235931628518175,0.12727477031827847,9.897263756408938,-0.020622302363897393,0.012519068306758233,-0.012732791275932217,8.5
0.05786534348326275,0.0161011855562297,9.71966270442128,0.017073905640011617,0.006964995343282532,0.009938845257040432,8.51
-0.1609439072690403,0.10200386032924565,9.599476181722965,0.014703662776092379,-0.007311387225970527,0.007526205827451924,8.52
0.1315561414426052,-0.008993501095508291,9.578891677244078,-0.008792657723697684,0.008269024967183576,0.003222950934218598,8.53
-0.11188436253217493,0.00520355817867091,9.727220863851494,0.0007710889751053406,0.004440678898390781,0.015558342350876752,8.540000000000001
0.22411532292548447,0.06879471907408657,9.764762526545269,-0.0027724910397208965,-0.006332854076349096,0.005141823323662753,8.55
0.07862552688032406,-0.12035768173896969,10.006874303673044,0.0019585532638222596,0.0004548458071710905,-0.011043016242023756,8.56
-0.10419697728125431,-0.021692967652111785,9.843504225224526,-0.011252688578711676,-0.006751978364073048,0.005798943915754489,8.57
-0.05838807914935171,-0.008150190351688676,9.824247536897657,0.0125291115308053,0.007672689710235217,0.0012054788890842572,8.58
-0.03889139821208181,0.13811262533048102,9.76625938667449,-0.002103377623767603,0.005876583499429237,0.0017330319016190061,8.59
0.0034595678658131835,-0.05626727108248154,9.790804334402498,0.009127844623451117,0.01324349058897373,-0.004869780719060369,8.6
-0.15766171602230383,0.06089123438721327,9.810868260784082,-0.0006465448840138699,-0.02203902832597697,0.0023820511740840836,8.61
0.06202084931799232,0.0315256509254985,9.894628327896356,-0.014620233726910665,-0.023920743789718504,-0.003929053541330593,8.620000000000001
0.04542043524646384,-0.09333313375319455,9.82104280193607,-0.018935637018349754,-0.003129881437125416,0.00480223166337628,8.63
-0.10472674109361324,0.0158648774429279,9.810727563317814,-0.005117703465120214,-0.018162212544945388,-0.009271259402292764,8.64
0.4057491925146656,0.007258458980327598,9.830033551865872,-0.007274770655374057,0.002621337646992935,0.020395288692511244,8.65
0.017238171416638692,0.1570993302892757,9.90003683444273,-0.005973016114522723,-0.008650909044929642,0.010141423419230059,8.66
-0.004675703775240572,-0.18981432414763788,9.738260691167055,-0.021237782880277188,0.011172940736001238,0.012826493926749923,8.67
-0.15082151376170624,0.0025273030202134167,9.753295981585046,0.009863772077919105,0.019795652239859202,-0.0007165336793403315,8.68
-0.013482310864813399,-0.15573915180631007,9.956250419968578,-0.0028509530535543513,0.01801642934332871,-0.009661873923810767,8.69
-0.0613966724929742,-0.09422122878619339,9.828639273114419,-0.01288277368280997,0.011073761957862565,-0.009574017276941108,8.700000000000001
-0.0211740554878197,0.03928954754315659,9.813279966072619,-3.280720574162089e-05,-0.010920570146626977,0.0023208815932449175,8.71
-0.11997833104119658,0.01651567742138686,9.802154115457805,0.024999741090481337,0.024034531177839904,0.008560950804913299,8.72
-0.01869445800827737,0.06504518490536915,9.938369040861533,0.005263617289035156,-0.012119984765509998,0.009829582356128247,8.73
0.06488096152876374,0.11757545161423351,9.822002640161427,0.0039582442099861835,0.0014490392692692213,-0.007826763942221742,8.74
-0.04610255948666028,-0.0010741626480482403,9.999254392758527,-0.005503087214046005,-0.008723375549403244,-0.010666655954638518,8.75
-0.028306686411982102,0.0008983024479711099,9.86402000205428,0.03598551962713125,-0.005904934556336469,-0.008323620797595186,8.76
-0.1468031270102874,0.14165460648365186,9.75545348288277,-0.005440343291536245,0.0030647677204629826,-0.013370375087799383,8.77
0.043058495588695435,0.10541999421753497,9.767022347295873,-0.005577050713952627,0.008553618241622606,0.024542999316404517,8.78
-0.16502339941473818,-0.005982474431892829,9.835778517110132,-0.008114916781941893,0.0031739316449552425,-0.015809172731790246,8.790000000000001
-0.12268739999583106,0.12502868842900725,9.832778195306368,-0.009647657056731537,0.007965537005042822,0.0029941423266844603,8.8
-0.1256240907450568,0.07847788935696724,9.81949510677292,-0.009428235745360527,-0.03160899380917737,-0.011826969386498895,8.81
0.14905805996359964,-0.14270591094970725,9.763397787621056,0.008601229029151659,-0.020345221651074278,-0.003556827232299747,8.82
0.07766611339204985,-0.08818688630632097,9.917492380676943,-0.012610262156919207,-0.014744444123654069,0.010894645046134412,8.83
-0.05201338237834494,-0.2900698275709833,9.738193378858792,-0.01511489734584311,-0.00494726242374974,-0.0011177798525326323,8.84
0.07923657734026,0.021186628393679352,9.785314457331673,-0.021401946749139474,0.007460252404585674,-0.016921893188042866,8.85
-0.03367472705486944,0.1622317289060644,9.917299125285922,-0.01601104150553923,0.010171128320870533,-0.0005927003305069078,8.86
0.09353812437006231,-0.06150373632690649,9.812649693892919,-0.017594556252052928,-0.003302842509122876,0.0019893284828885168,8.870000000000001
-0.20934209209258117,-0.07320391051808896,9.824423747046342,-0.0014795018898187942,0.0014301233310703562,0.002580819717524625,8.88
-0.1205615158310176,0.08921807406945559,9.66095988278808,-0.0062909048205773005,0.00012136932304723261,0.014139532478461572,8.89
-0.1841106086423023,0.11983934934692775,9.897797998377381,-0.014927273704434425,-0.01176872883855443,-0.0025349186459259583,8.9
-0.05937566980013007,-0.15039792203492486,9.86313408378076,0.011198623511510805,0.01206388674964548,-0.00645408266116336,8.91
-0.19902675691324712,-0.20536728389916004,10.022356443558126,0.023272985022470234,0.002851045399341409,0.006347685182696237,8.92
-0.08158484828571248,0.037807332671966766,9.886817632609153,0.0035817683920808764,-0.004752650895487454,0.0072293915405852865,8.93
0.13995839496879633,-0.011435684243925302,9.716651687630208,-0.0144615788620303,0.004812216621658973,0.01664473792954737,8.94
-0.1502276099312624,0.05696368282514164,9.721333502826052,-0.014110367881479685,0.012286092754938551,-0.01452657894013645,8.950000000000001
0.11810817465512964,-0.0285506466478398,9.719991479953311,-0.019008186265880668,-0.008068715308697042,-0.0015689213308216748,8.96
0.062295220390774037,0.11348963176352755,9.70088246789358,-0.008195501564329888,-0.005990982302707425,0.019024117501756727,8.97
0.26658731152072657,0.09932743374724838,9.815238194239932,0.016965712154925067,-0.002944652815380125,-0.010756120418992581,8.98
-0.036636725620208935,-0.09376299256399119,9.806663689221702,-0.0002134593468562406,-0.01646423565159841,-0.0025796296146798907,8.99
0.10463236612806187,-0.02348106452144182,9.70769585916254,-0.007294257887400541,0.011577583088193724,0.008989501168780082,9.0
-0.28526980480787834,0.02244279153999212,9.859554366450183,0.005361415271475893,0.011271144411468134,0.017714203646306163,9.01
-0.037804210059294366,-0.0538187881352197,10.034831143776325,0.005041426911489228,0.0013702384339166745,0.011867398536847727,9.02
0.07659454156087636,-0.01243682143751937,9.749973356459114,0.015850076388714544,-0.01359940741299345,0.006699083890896685,9.03
-0.08285134375284592,-0.06922787035624707,9.758917539875863,-0.008624801418284169,0.0070853525458164915,0.014644174412207068,9.040000000000001
-0.11399261806320399,0.11281565567613505,9.942901917716268,-0.0003460292595973455,0.0020149894841061805,-0.009074831716791111,9.05
-0.2399686824907112,0.025109408874042605,9.874979895630977,-0.0005154686964305732,0.009515867566795315,-0.013217138029938688,9.06
0.01760471219147684,-0.11234780583085924,9.797066875471543,0.018983154923085645,0.009385889762542423,0.0046643023911215895,9.07
-0.10314564303200834,0.06741532710620682,9.79453242217605,0.003672896694720795,-0.002100323192184172,0.008274111048417812,9.08
-0.04071952274987277,-0.011432855204478846,9.763562534204315,0.0030757284543196754,-0.005612729618829526,0.01751565761636076,9.09
0.013439236522546683,0.06517202538292341,9.924892695624331,-0.00039123108201634144,-0.00043333841796937153,0.0008496392782958745,9.1
0.07166694833669389,-0.0782374339814848,9.832880246578197,0.005960132873183731,0.009050708959796405,-0.003731074434561492,9.11
0.12306672692281295,-0.0013744619610138828,9.897834417553737,-0.0025172625539544207,-0.0022295537775210163,0.008941795475682524,9.120000000000001
-0.19005691137763997,-0.049314939288539784,9.788345263321004,0.0020547332715622067,-0.017407517663758035,-0.005746049692807479,9.13
0.0681175000592136,0.09040474498478066,9.680285730058895,0.0030840297506981823,0.012536336414633635,-0.002194119232407931,9.14
0.07710035784663151,-0.1284557746526751,9.707072500904259,0.004240342409884401,0.005257767664087829,-0.005156323058780418,9.15
-0.06447913767060151,0.06533051010659176,9.605487163351173,-0.0011240514788286755,-0.0043090235550767375,0.015009201129043994,9.16
0.011660976554818299,0.1437326464630568,9.58957557205433,-0.0011462246634283944,0.011401086511907615,-0.0012367179885718722,9.17
