ax,ay,az,gx,gy,gz,timestamp
-0.03804750797823934,0.0652547806570298,9.769073989258649,-0.0074817216477866735,-0.004432171780429025,-0.003415287597245299,0.0
-0.21702477810498358,0.032843603424928786,9.717756311124546,-0.002668294276779172,0.01473474539194265,-0.0028148644626469314,0.01
0.17218744806287264,-0.07481514634745916,9.77121516330416,-0.0031821685807241376,0.022766643775917562,0.006144437699729369,0.02
0.21319468059129623,0.09125961314477436,9.858697198367564,0.011490879484257387,-0.005090234258503543,0.011434464725204894,0.03
0.055694727163276725,0.16488497498334334,9.684484340014869,0.021530172320849403,-0.02252221340153421,-0.0006929420280189338,0.04
-0.08073891802107261,0.12223916964539383,9.750963472388378,-0.004437000841263476,-0.007838204396633451,0.0019421113596584977,0.05
0.13451029126371347,0.08996592045726806,9.717147577479214,-0.006032904982940971,-0.008022691312578855,-0.0019170329255728444,0.06
-0.012528739675788167,0.08837302090825161,9.84245067779057,0.0003897687626470664,0.003073653040888363,0.0023806972604846857,0.07
-0.05008581137930507,0.04904280395968216,9.941238536167615,-0.012084212896760762,0.01875449619087535,-0.004502868788048281,0.08
-0.004958279122134493,0.14268980711541182,9.803750742240155,0.007115998228547611,-0.021355858522497155,-0.02296821871099728,0.09
-0.11374187671011755,-0.012426116925777211,9.706639309297246,-0.0072520980595347714,0.0027653674616214137,0.01590142982945471,0.1
0.12212171102008756,-0.01883818680255001,9.757471110883854,-0.003188902132502995,-0.00860453385930206,-0.006232512192822892,0.11
0.005567086522895328,-0.03845417471495664,9.916414036078995,0.011331753368412774,-0.004896043882925117,0.00661589926430452,0.12
-0.11486861056017028,0.044591146705825674,9.794649431135102,0.016926310969881352,0.002211052693733396,-0.010875436609881836,0.13
0.01729245773621729,-0.06883170033413663,9.764080590941528,-0.01838458568451645,-0.014077963177948887,0.008286458878569086,0.14
-0.101976791417497,0.010291691273556294,9.826559859151336,-0.0113612632657174,-0.014856682882271053,0.007976129377144248,0.15
0.07555717518336066,0.027706997723000684,9.912226127527004,-0.010363398343340047,0.006289991820775706,-0.0009056203062558776,0.16
0.07682295077873434,0.1511616229666923,9.696910403938201,0.0007742850459306039,0.010354509392263452,-0.0044263403700890245,0.17
0.05242717172952243,0.030106308626449824,9.771605570112468,-0.011939987512411843,-0.006877788567471975,0.00819282455655913,0.18
0.08833293746417395,0.016661894484931817,9.815772561752134,0.01162901489822115,0.00040680359164158123,-0.015325445892782839,0.19
-0.09716950427650001,-0.007138246687244139,9.848601996070272,0.018196979235941463,0.00324549952814052,-0.0009421076576332821,0.2
-0.12093222136800302,-0.040852111816860895,9.891848037295228,-0.0030151870201170486,-0.007716357291327438,-0.00044469233146314806,0.21
0.024591161806207212,-0.05530446771657197,9.58334912188948,0.0010342153739891999,-0.014156776589198145,-0.00953379675517064,0.22
0.1708616840924926,0.10399415785212472,9.644472179036423,6.849310688425292e-05,-0.0007618498607844199,-0.0004033211522340799,0.23
-0.18012175175961737,0.15067670503468017,9.635015069302227,-0.013458562926851887,-0.0089537388557441,0.0005019496047543977,0.24
-0.01117837619412524,-0.06525827385115195,9.873352419663643,0.002531557341885912,0.0038888112671201965,0.00042520226936494806,0.25
-0.05533442299355096,0.19094154422877935,9.768229251247025,0.011991961512532191,0.00015759770033192875,0.012258337582314444,0.26
0.046385194603770524,-0.16131235993568194,9.887744905913173,-0.01643422787036328,0.0033532567155419484,0.004852697321242055,0.27
0.016394415197890398,0.05079487512237879,9.893811733381229,0.009794604426869935,-0.0032787021710052894,0.0021977982334757114,0.28
-0.04616226197895235,0.03922067757524452,9.796666753470111,-0.01177901190051415,0.008373067861842115,0.01329967469462901,0.29
0.01610106562326534,-0.03825421793322176,9.872083083972836,0.002657601653071854,-0.007136795549307829,0.0049325602336555896,0.3
-0.03329231277418555,0.011215997889436084,9.920988315876398,0.0030319089606619487,0.015939590185409278,-0.002293203960677774,0.31
0.11002345793815155,0.049819467159214544,9.772182813251831,0.0019819527951473403,-0.012178774849489362,0.010938050719372419,0.32
-0.08136817772288733,0.09758626042817391,10.006124009905257,0.009528402715481454,0.007821117871891211,0.009462583994237469,0.33
0.07960455574853215,-0.041401798162303174,9.842720560718147,-0.022523365719438814,-0.01368427196894086,-0.0024098242317916654,0.34
0.03504832760786319,-0.0639725747224727,9.799366300111911,-0.004888701248978877,-0.001010371003531919,-0.003123033734235537,0.35000000000000003
0.006889668598685662,0.050259745483828056,9.75073752862995,-0.008689001894795458,-0.004659345657858489,0.025898768316142597,0.36
-0.14629086491492604,-0.09163733966082496,9.731488708492975,0.01126989098507908,-0.005158897047076363,-0.0039538281759318,0.37
0.03184988297975355,0.23484641554623922,9.658955800324668,-0.0015016460758487285,0.009368954878799516,0.000262285340005598,0.38
-0.00895576020013593,0.0774647917395406,9.889869201789047,-0.004016751904187578,-0.006651215157761359,0.01687387857746719,0.39
-0.05695757807322754,0.05146020223867007,9.709095342189903,0.012953418203267713,-0.010474173975790908,0.010554687001838155,0.4
0.09375215328366572,0.07187549805115433,10.002810940137483,-0.003846793172973797,0.0009696178298906968,-0.006417642761426541,0.41000000000000003
0.09150372099256658,0.07101789708147106,9.780433728691523,-0.015808571183691653,-0.0056607790393243965,0.00031847092612763645,0.42
-0.056101236046872886,-0.09595826744372538,9.648594988976232,-0.005116890245412053,0.0028314300551841314,0.0032281578761678997,0.43
0.014930586202093424,0.13252197119228398,9.676714829068715,0.005510012803578689,-0.002011363793234426,-0.00040197333793206685,0.44
0.1188582479517437,-0.18844395890202167,9.903615207850716,0.00019830994742017766,0.013208069490193534,0.004891957237730225,0.45
-0.21197473072349307,-0.05363894406661923,9.670082448204191,-0.0030216378211740708,-0.0011190017423261935,0.016037544200217264,0.46
0.04997021341786198,0.00013850606751938203,9.665819014709525,-0.020797732520217358,0.013189623610393162,0.004105630201537267,0.47000000000000003
0.0007929551919550811,-0.04477766142429217,10.02445320595769,0.0002218918635490675,-0.007283078191278294,0.02055483813445516,0.48
0.06729751019680999,-0.03568470021667184,9.865226712894627,-0.0033911240873696364,-0.011821392212498465,0.0001543318755889466,0.49
0.04150243470219304,-0.011185437579754431,9.771378815237387,0.011474122812513156,0.000205389820949533,0.01084071059452811,0.5
-0.12547540000928725,-0.0002820813183649601,9.967611911364095,-0.010845956733249578,0.000793851472450453,0.0006493032629802226,0.51
0.1723587464326355,0.10308427352408021,9.872046146894846,-0.0011623054375074688,0.0003052607874065188,-4.5825345849185454e-05,0.52
0.17948562470668317,0.10721698162856777,9.762693168381944,0.0014134513410371291,-0.00876514264983634,-0.01528054161088375,0.53
-0.002751912916345082,0.13286291183425955,9.669924303722663,0.015171838356701694,0.01361038551772688,0.01044246569226148,0.54
-0.028275139229444076,-0.018555135272143523,9.801028089848435,-0.003609817344930448,0.017228136651883927,0.004688851870743907,0.55
-0.06994253479666326,-0.08113432956233467,9.773100607358687,-0.020953333167057216,0.004355517973054684,-0.0024490166283224414,0.56
0.09732754021784948,0.057749417111729484,9.733304287684934,0.010671301637069506,0.0002347370255623462,-0.008252356874924868,0.5700000000000001
0.16154855255099587,-0.0639363598403241,9.78245973730652,-0.006318043422829265,0.013726617458560906,0.006051565690688297,0.58
-0.0027497365216364376,0.12544454073167488,9.712586960332015,-0.0057403624747378755,0.009156574027997029,-0.010159739232856907,0.59
0.08994594722215421,-0.22792764270867427,9.913889451424202,-0.0010465123176562766,0.0010964180238988027,0.009346955543529099,0.6
0.05450898217260124,-0.13774533682646076,9.784358568233772,0.001617336169155357,-0.00287387594043667,0.009130451075287416,0.61
-0.14535364287269734,-0.16260784913705273,9.651573209796734,0.010288115661633842,-4.4661810007942066e-05,0.008195127932362847,0.62
0.02188511766392492,0.08858305131354559,9.931322369547726,0.012585312624360889,0.008207905759769357,0.007142377893463291,0.63
-0.012702763864165101,-0.08926709607735384,9.788949833849552,-0.0068387173207896425,0.0028912844674309672,0.0029376241289685917,0.64
-0.18952020296467242,0.006052918981184057,9.795635420892284,0.005974029592626723,0.012286768724295478,0.0018484266383689324,0.65
0.05541482143863527,-0.15331443287156626,9.689932821650158,0.008041565869647436,-0.0024884008014514807,0.0010062088643542652,0.66
0.009156038996729557,0.05197879341425075,9.905489474407483,0.013180544988644152,0.007081771688618307,-0.003278935664965283,0.67
0.10908222368530718,-0.22834177600539796,9.984661072355848,-0.008042920798375968,0.020031504445241554,0.01929555833994141,0.68
0.11879982251862807,0.15240125927728904,9.62916133594769,0.0026483337823528957,0.015607019901005674,-0.02037199582671752,0.6900000000000001
0.11145096981962065,0.10363110488510892,9.775462811361047,-0.0013696581027804336,-0.011561632259753164,0.006315407086073902,0.7000000000000001
0.015532201281161949,-0.10187803381878686,9.870889248786302,0.00895307755783657,-0.0020326997247129574,-0.0019505734011503529,0.71
-0.0015877780334186465,0.016924810377441455,9.958402372288075,-0.0004382049927873429,-0.007775086157591633,-0.005627240645990842,0.72
0.1718279568222447,-0.23148915495892075,9.854535046490454,0.003591666966694517,0.006592651387500678,0.02256607683920994,0.73
-0.022101111326324144,0.0865246735754968,9.675598311084324,0.004268439691320227,-0.004140899783778859,-0.023422632848399207,0.74
0.03166791686036578,0.026310232172868733,9.803251486877219,0.0014604603935923308,0.0013741946255565352,0.02077751941863187,0.75
0.028821233991968766,-0.06254695129691833,9.72962138006015,-0.010128900207459109,-0.003040548489053863,0.006071765934495389,0.76
0.0991571870023086,-0.014434374643397106,9.756102962778794,-0.006135812253572951,0.006913197952280986,0.004902371883644226,0.77
-0.11403191586208512,-0.03439814254233288,9.855404395309685,0.0012962225209699773,0.017527804830593127,0.007940823708160943,0.78
-0.04424546395563646,-0.010699611384473662,9.876922195718414,0.0021428331139429,-0.009517117256618687,0.011021607672280127,0.79
0.019755363053252022,-0.004880165813570245,9.840180481266101,0.015400533005162214,0.0028398534639890237,0.0105630802611348,0.8
-0.09858146189198813,-0.12916859580789397,9.945180313750583,-0.0019604119392365085,0.021871630317999893,0.02218474091551784,0.81
0.003961056686583082,0.19088491687443884,9.7415982188512,-0.008322832019501932,0.007951160622101045,0.004679999640836767,0.8200000000000001
0.19443026242534364,0.039489228899894695,9.753017559685857,0.0019414418217925632,-0.005226559846011097,-0.0037237048795766853,0.8300000000000001
-0.10818018979247133,0.10242845327371795,9.758147463310262,0.002058196204970813,-0.006995335334527665,-0.002902329842451675,0.84
0.1186077982811562,0.1239759830333813,9.634342013223609,0.009182339486615655,0.00465030053634368,-0.00037086755677718483,0.85
0.0929187794956865,-0.04028129578575212,9.826679162537824,0.0009059107178059375,-0.022621503909709986,-0.006684524958583253,0.86
0.07669975984196968,-0.1058534379521357,9.803416189463432,-0.0007314726156914251,0.018233057574646612,0.010409976513660804,0.87
-0.03467767305544697,0.040588819133672654,9.813879334357754,-0.009197507955076753,-0.013566327041095744,0.004189310174782148,0.88
0.09762498125914498,-0.056220873353229166,9.8185726911483,0.007313815292998757,0.0047510788758575,-0.0008178528682546902,0.89
0.055752861658855304,0.07262111362079424,9.876752886636744,-0.009343707161824519,0.005321111407813975,0.014068341563084499,0.9
0.06931374317506132,0.12280320356834967,9.687396128201215,-0.0073241047712281305,-0.01290687037131105,-0.005989860398712763,0.91
0.08739634488999572,-0.18089937224401414,9.76878656114697,0.016813463267378006,0.005013263961230918,0.011239518683344382,0.92
-0.07820583232364434,0.12356052042224407,9.920811864715816,0.0046236709560345335,-0.004906341351656238,-0.0027439443348595007,0.93
-0.06907144912351677,-0.09632046976593765,9.954412072720414,-0.0017451029932285217,0.01224631663214403,-0.0011160096250483439,0.9400000000000001
0.09035969597805076,0.06351389458273544,9.781743448952234,0.01872659256796244,-0.00022371423843280398,-0.01638554131174857,0.9500000000000001
-0.0027868284359174496,-0.08473408807977088,9.698752657437902,0.012802413203125997,0.006686038687566524,-0.005946217504473546,0.96
-0.1079257372823441,0.16427610538232426,9.645610245158451,-0.012943333252421824,-0.005042780266275827,-0.008324283771399512,0.97
-0.2177235781630047,0.0376527047453331,9.752410631749742,-0.005775126295128008,0.01151731440011123,0.00044521202904360796,0.98
0.0664316380426382,0.00885019256919387,9.73781381861815,-0.008549311498036801,0.0004650707757211843,-0.001364070348599638,0.99
-0.09756227498598696,-0.15927066828179848,9.686908706540427,-0.009417618684530608,-0.001719919505514119,-0.007065882272077436,1.0
-0.1241627160632257,-0.08300157679998701,9.766699000422692,-0.006395394853771571,0.0010360926485697675,-0.006082146903176563,1.01
0.026655477754314767,-0.10146541213447745,9.674301067846091,-0.01860263460742528,0.0016825217542895538,-0.0026039104830011266,1.02
9.128696328945247e-05,-0.012860131859148036,9.785770780877048,0.004793234244985503,-0.016142820529783514,0.007747451883693179,1.03
-0.05026131671367704,-0.015827667180557108,9.91363549139115,-0.004543635517690536,0.010815082983089249,-0.010554223408386158,1.04
-0.05265382169647698,-0.028327801179688583,9.846553110945155,-0.01980876239162158,-0.012218326279193795,-0.0031644141180166823,1.05
0.03949157721290289,-0.021847247687675157,9.885235447048139,-0.0005081014879715502,0.006621006318313642,-0.008820293003176487,1.06
0.12715742488023593,-0.1683318568380959,9.642011992719995,0.0035517529184654535,0.0022248957853153737,-0.009259076067644886,1.07
0.06891943445530128,-0.13584289571100802,9.659396804268722,-0.0008683057625315029,0.0061149210008061864,-0.0007797858956264421,1.08
0.08768465463546757,-0.06290887275702434,9.780570224423238,0.008117728243288373,-0.003045306618624098,-0.011566352978246715,1.09
0.0793497438592565,-0.06785235062283149,9.91976070056347,-0.0008229173286522719,-0.005348972075306823,0.004317527775699336,1.1
-0.02312789768256295,0.006466384419326446,9.824563810573773,-0.0021203381193077853,0.006656420640216332,0.006597177813099846,1.11
0.009936978281067287,0.08034352371159474,9.733040605384863,0.006673898989254731,0.015171623308444777,0.017856929075174954,1.12
-0.05184381168122945,0.037844758700603984,9.786366209556641,0.009678753243714642,0.005374218948905617,-0.01518841504303069,1.1300000000000001
0.27627150547005924,0.04552324148599255,9.816189352453994,-0.015463950721702223,-0.014562432263689225,-0.0037282316707070297,1.1400000000000001
0.0031511383887212713,-0.02440595929292304,9.835698786191948,-0.00772579059293143,0.020782359512865983,-0.0008772108508873354,1.1500000000000001
0.03804256406297288,-0.004910824738142951,9.806534646897058,0.01247925857739804,-0.01022561997286652,-0.01163171894501688,1.16
0.03510674570014764,0.08745370233612479,9.775598893002257,-0.028282366762156758,-0.008301805626967862,-0.0012633807581579593,1.17
0.05479780170503933,-0.047115179652915416,9.73623247661021,-0.001935155596700453,0.018582981668268567,0.004056658142667306,1.18
-0.010081020833791417,0.023694129530966335,9.706823195985809,-0.006684608357204021,0.0008874893197747391,0.0006051069669376455,1.19
-0.03203049653130258,0.1227645887861484,9.893046947021492,0.0007109597886448845,-0.005979673368012013,-0.00525578838739157,1.2
0.017690805693619853,0.010025299870073731,9.617446406563925,-0.0020273314764408207,0.0011230754026319905,-0.002665513622038229,1.21
-0.045869266191489046,0.06419078831741926,9.750008603087416,-0.006456212832008312,0.005247327043139317,0.004655993961825091,1.22
0.029437984704651657,-0.013533727206443106,9.674812998370307,-0.00954363986150695,0.009826018301377106,-0.0010100394051605435,1.23
0.030031225905763834,0.17382827184250452,9.714895035192445,0.009155356811601692,-0.012039752138538553,0.00941643693197482,1.24
-0.042824260268086806,-0.16607412935055357,9.83498554748728,0.01360095130495379,0.004792542134435611,0.0011726849603137328,1.25
-0.23494131065651605,-0.05113101752862899,9.871032875409622,0.0010583617518705132,0.0036200189515639934,-0.001883061748491851,1.26
-0.04358326640372347,0.06142003721185423,9.723540174029806,3.583516008138274e-05,-0.01606735673126033,0.00657294495541827,1.27
-0.1494530928534001,-0.14991461519365432,9.764006636520572,-0.011759686286574542,0.0003213633567983318,0.012314274238795626,1.28
0.029762978333361452,0.03616290041655703,10.02616250603339,-0.006677615045586444,0.01157774622568174,0.027691340013109755,1.29
0.002999203192730746,-0.015861333309187153,9.767200927166545,0.01773280719422126,0.008592990475301992,0.005580891012995738,1.3
-0.1345934284383879,-0.0037857621428899306,9.790269282879555,0.010541456267183738,-0.003878005270563415,0.0006970675454132762,1.31
-0.03463609983648438,-0.08311472501576024,9.692927932364997,-0.008103421710348061,0.008053897781233436,0.006867029177549206,1.32
-0.0383188994361058,0.06817622836798787,9.935916909055914,0.009429990200622764,-0.014606315077633124,0.0044692237090068355,1.33
-0.09764563263442595,0.15542196823478305,9.957765838237163,0.010517125772083077,0.0066407333672860586,-0.00411769414325852,1.34
0.07969122836502734,0.01630584999324051,9.862974362307297,0.014266879858174987,-0.009368894440789638,-0.007452466439962731,1.35
0.04700143957292869,-0.12228946700904858,10.01772677873907,-0.0150060471569741,0.00863948816830911,0.0026225129254254017,1.36
-0.06716872875147246,0.003964909726305202,9.713129931851007,0.004548849323937617,0.006354326246471935,0.007681240501891884,1.37
0.1264719556093277,-0.034623166416391536,9.913704217389645,-0.014600149476124234,-0.002499021102005127,0.0034913338536654826,1.3800000000000001
-0.10072186925201053,0.12982185725296178,9.79162200761424,0.0025937640646505793,-0.007635749915661673,-0.015989446342989894,1.3900000000000001
-0.030154666820643373,-0.06637635901126875,9.715945515502037,-0.00288353424558454,0.002485120380282817,0.01431026242994447,1.4000000000000001
0.06207924427610352,0.05628395166800281,9.844061394551582,0.02089806403158678,-0.008377306809549335,-0.004229044122482925,1.41
-0.1291177113531852,0.035277842506438034,9.86196032088835,0.010291482504244475,-0.017384543348694822,0.013841750970928024,1.42
0.13832312957702433,0.052322005831994284,9.85678280901273,0.0060809296239670895,-0.005718313016433292,0.01077955539293987,1.43
-0.11509065705143731,0.09737121444904029,9.979926047888874,0.012086529581871109,0.01711612377676687,-0.0011448974707058287,1.44
-0.0017302927006340914,-0.06545208388590124,9.8958118240262,-0.01033264071249302,-0.0035739429219387294,0.017519690037912216,1.45
-0.08257356303418842,-0.10966596405700807,9.761632848695163,-0.002566911750703423,-0.013632819571291048,-0.022162752842334835,1.46
0.18239047398328567,0.05041599338211583,9.85673313775489,-0.001543596085145927,0.0008860985743393685,0.004773226504773289,1.47
0.11047405860671347,0.22314035966477333,9.76098666966006,0.026379257937182016,-0.008299502618682252,-0.01112352675748278,1.48
0.12292961780998556,0.1193233918228154,9.698439277428811,-0.012191630122706992,0.0030434495882490464,0.02168973443726888,1.49
-0.05790586844061379,0.0739106623416921,9.856460438259052,-0.01926579607724476,0.0018468312365492005,-0.007819571163963665,1.5
0.30773187472783786,-0.014345169767973162,9.786869627792546,-0.007538328069963643,-0.0007436250320720769,-0.0005508547399165182,1.51
0.11629317044336736,-0.037902255560219034,9.658485311164386,0.01691999155355299,-0.007111944970487384,0.013344687764972104,1.52
0.22908690384557842,-0.029932724905436338,9.919244672275646,0.010279910964840601,-0.010160803428953993,-0.004351537276718497,1.53
-0.2214130293299363,-0.07764427493928938,9.922378977968629,-0.017485966578671713,-0.0046705909173611814,-0.00023584500090541392,1.54
0.026011503182606446,0.01741285285244795,9.799430535289083,-0.009783464092941375,0.00043505697277973786,0.014573257592879824,1.55
0.03245599374587762,-0.028853124068331334,9.744564481089641,-0.01394287714570458,-0.004684657423396385,-0.01106120447767728,1.56
-0.03734339527227295,-0.17873036234445464,9.6685455118208,-0.012143500764723866,0.0003103206099497221,-0.013143065507897313,1.57
-0.04677244913055592,0.06892915930423339,9.600101501500552,-0.016274353515051142,-0.009317617755192643,0.0064196085702166355,1.58
0.027111571872496035,-0.09608227499490843,9.686494460407461,-0.0032519882526261703,-0.011860250283685267,0.004104820241048123,1.59
-0.12762251580272052,-0.04518375069728124,9.693339422282138,-0.0035154901266642043,0.0013689538640321514,0.011002606841473363,1.6
-0.08304944673314069,-0.11561389500018993,9.703904175317287,-0.00783484556215806,0.003332328058268114,-0.004421864828401653,1.61
0.2014585645990329,0.17996671228730135,9.8024830234942,-0.015791640433763236,0.004100452211063392,0.0038777918077308373,1.62
-0.03564778154467848,-0.059709136640623064,9.943525185303328,0.010177388484694997,-0.0021443134096081726,0.014163572381524952,1.6300000000000001
-0.016760054065708366,0.10368200545180169,9.958739647662012,-0.007997733233958198,-0.00015658863575869229,0.005767040303429424,1.6400000000000001
-0.06651329969821063,-0.0627234770889311,9.843701063503634,-0.00020598314597321116,0.012192914921631342,-0.0016738494596530162,1.6500000000000001
0.11701952308057025,0.1508652642632261,9.92751614910653,-0.012868567012205024,-0.0022158834971606318,0.004468330473940987,1.6600000000000001
0.027363358703743592,-0.04927093688540567,9.741153568979517,0.013624206550008804,0.009672813607058631,-0.014428708209031525,1.67
-0.016796038110657892,0.12469933248585839,9.830215231064535,0.009797018467783398,-0.005527186123821284,-0.0007912710461536683,1.68
-0.10328627350969298,0.07342317526994437,9.756634162689076,0.015688680638858137,0.01768805131543313,-0.00025695339190619465,1.69
0.01214577791210807,0.09386536329559525,9.917251886326214,-0.014807377104912927,0.004841857948235616,-0.012392889964364533,1.7
0.043433202949300365,-0.16766206974926792,9.913400931228125,0.015257414844240248,0.005060051653587122,0.0077877300359157344,1.71
0.10175900216804659,-0.09390787524933442,10.017137499755716,-0.005417793708254434,-0.0023284706249072553,0.00048732098070976726,1.72
0.2682867539756992,0.027842688527990562,9.898169204806441,-0.0034587605573450572,0.008975765981513733,0.006497013198709899,1.73
-0.0773007536369884,-0.026295835089193798,9.693300540139205,0.0058946960505814015,0.010521103262305662,-0.011864074900695005,1.74
0.16286228776225253,0.010191383730443695,9.841353214502721,0.00319244331954542,-0.006676759605066424,-0.008368053108896344,1.75
-0.13585148667208735,-0.06548690238085249,9.850098983417244,-0.0026370396661934744,-0.007084850029364912,0.005610635926143962,1.76
0.004873211321872652,0.16201242456962145,9.939215213800544,0.0028411862806291418,0.0051319357965433675,-0.00726270046704822,1.77
0.1419141752751508,0.08535366075317298,9.877317196478021,-0.002932205882226919,-0.003079439113129548,-0.007730271721374878,1.78
0.029869601154767368,-0.09378001396518182,9.873392269804206,0.01705575052289779,-0.0022752402081209033,0.0014987101545238697,1.79
0.2927452755232363,0.19520953119067344,9.74746407610984,0.003920022951590511,0.006876776074142353,-0.006420007956432079,1.8
0.0010732107657226923,0.13713532321170252,10.019418202071552,0.012472360591293797,-0.023072551016052812,-0.011969494234263125,1.81
-0.05438102589069095,-0.027433270946465638,9.726219940186246,0.008219125207145798,0.0020936304089932286,-0.013769441583798288,1.82
-0.008306288349974766,0.04221653890479945,9.997580613294645,-0.015245812080085012,-0.0022235877451440267,0.006006052312051007,1.83
-0.0028021003633062207,0.18260581664671405,9.92282651083806,-0.008135609255621045,0.0033395065122883987,0.01273456280978197,1.84
0.0038313719125271195,-0.09799769919579554,9.626882058050269,0.010890408439443363,0.031931527564438025,0.015047616397348886,1.85
-0.13685039878475497,-0.07324254079427105,9.777465148957694,-0.017158128334166793,-0.00764035961327348,-0.0024786854110257005,1.86
0.04084410328598761,0.15791342859982926,9.689845480939562,-0.02062707754116105,0.0034382981173695995,0.004709333080970416,1.87
-0.03627228792899933,0.010149612595880594,9.835495339127084,0.022843503668302116,0.013479792632180264,-0.005529571980639572,1.8800000000000001
-0.04264782353251292,0.014089815954003618,9.73092522698442,-0.00817927023682905,0.003337654193230806,-0.007174140280415127,1.8900000000000001
-0.010688484699121224,0.17141661116965914,9.90496461445495,0.014030921835474289,0.014463246954888875,0.02162834872471004,1.9000000000000001
-0.01571661238027947,-0.15961743911954465,9.838019019829845,0.003347682467576634,-0.012539543129518325,0.0025282022257057447,1.9100000000000001
0.032313353421578664,-0.02691820690142059,9.816235026402968,-0.003264311907347533,-0.008711968177078588,-0.0037533719145052716,1.92
-0.12222834275824322,0.14292611229178662,9.712528321765914,-0.011007736807681787,0.0021484508120497813,-0.013998343453413475,1.93
0.038800680669101736,0.25172588534301177,9.744558532610368,-0.0022886994085055895,-0.0021803129427661492,-0.00789695464747854,1.94
-0.09683108006176247,0.13281757805923705,9.741069529300713,0.004269231540418985,0.013824732418004264,0.006591453681034151,1.95
-0.05548082890736777,-0.044424500022720005,9.955671600098485,0.005259228042265635,0.006358506775375602,-0.008878724770943867,1.96
-0.05894384559912824,0.15787829739358283,9.789577210930272,-0.01975129602763195,-0.0030510120833014747,-0.00981556218377819,1.97
-0.07428896265633063,-0.01365194914639133,9.825227320614266,0.0015428537926747297,0.0007063259137007548,0.0037874981707843804,1.98
-0.011839850243796515,0.042226509156252395,9.682593266383101,-0.008641898924726471,0.005091936903160505,-0.0019080662160713443,1.99
-0.04596251342627183,-0.09739292652729359,9.89055100320177,0.004208691487623474,0.010549671334466808,-0.020304534255512263,2.0
-0.1891095944334822,0.09172059445914804,9.617135801424503,0.007701498017172293,0.026335196451059018,0.02412936177929379,2.0100000000000002
-0.08595439767705129,-0.061738667153659145,9.700819074082267,-0.008006836398748256,0.0007444335698099408,-0.010502892455457392,2.02
0.13294951691153675,-0.013413472872508088,10.004005119374247,0.011174011860538098,-0.005075141519902086,-0.004394442307035971,2.0300000000000002
-0.12670039550214873,-0.04773502703284652,9.7320316482135,0.0005365356808364917,0.0007176410909995131,-0.00036177940207773304,2.04
0.11321561865134076,0.08400613181391972,9.757140551531878,-0.02113347058231468,-0.004899976823693742,0.014529696678572108,2.05
-0.05876916816528967,-0.07540862484033091,9.811943140886738,-0.0027744688668162516,0.0016450034490450463,-0.012145263694826346,2.06
0.07163302415842547,-0.12711149271985053,9.765575863845227,0.00542912311676742,0.0016745183384219975,-0.01253997035114319,2.07
-0.10869293159880665,-0.014225879759760649,9.944110383953117,-0.003145182927816346,-0.007785287428646707,0.007992983247522565,2.08
-0.1337942566998168,0.014855011368621246,9.647847531738572,0.006816519328814797,-0.011167726085597964,0.0026324688414321533,2.09
0.11456632638284547,0.011798048955624127,9.869303531536072,-0.01569941003862874,0.016595967017239345,-0.004578385766793491,2.1
0.08479122342302485,-0.05914752522934803,9.858234567549184,-0.0027939404152379217,-0.0013932703376074963,-0.0012306037750854145,2.11
0.07041573321819167,0.03948019329109409,10.020838200891466,-0.0033498003899270034,0.00959817952395167,0.01280819711461616,2.12
-0.0414431152102054,0.014379857316995115,10.124005136564358,-0.018035079996087177,-0.017331871689310104,-0.004962180293639538,2.13
-0.18430388522930383,0.10943433274210929,9.788745135665641,0.008292527204205702,-0.0099073053423652,-0.0057029203606746145,2.14
-0.027162365266383156,0.043632678333692165,9.996477072257445,0.009573282893229796,0.003451225878484519,0.005603688132566527,2.15
0.11655197385629071,0.061071354563427785,9.772566943897143,-0.004407401306657071,-0.004424127776421745,0.0061377685227559,2.16
0.16006774352150413,-0.013615876778377826,9.827885081965873,-0.015025069157227611,-0.019676672756051426,0.002235087736795215,2.17
-0.08659208367208278,0.05743608892866653,9.838779674311606,0.023051809563363147,-0.012030929433531403,0.004836730429647605,2.18
0.19456113936112213,-0.2160020265067214,9.765924697970396,-0.001681538945985087,0.012593857978041998,-0.01075709187444536,2.19
0.13695110200948896,-0.08257420268392192,9.997556151085606,0.006030569061542384,-0.007364110041816403,-0.023862459114384428,2.2
-0.06456227550925696,-0.0167758767376582,9.901521335945748,0.0046919073595176304,0.012911723059903485,-0.00756231206083884,2.21
0.017925452554894472,-0.05214681400276139,9.84193191993719,0.0013505508906708327,0.010013692470097707,0.012935291640777955,2.22
0.06617796216358578,-0.0071048742140169055,9.757883360721982,0.012834045337362201,-0.0006870089840429611,0.009150778048122653,2.23
-0.07563929714569562,0.02181673131099097,9.880022240491341,-0.027035912837422838,0.002749275153614533,0.010022964645125124,2.24
-0.10624076254983408,0.11497216327962163,9.80952381414523,-0.017666840875072132,0.004496431547881082,0.0023416563687749777,2.25
0.17364996326073098,-0.048258226325380967,9.936549069721925,-0.004378203964612973,-0.0022078324254396846,-0.021112302463059326,2.2600000000000002
0.05811250249498562,-0.06997882036586955,9.826521773897884,-0.0040539353851331466,-0.006514721289476361,-0.009024223819393242,2.27
-0.015447758852996835,-0.07033754472742818,9.936897220701505,0.0008873562406434311,-0.0021793200758877212,-0.018878286988002632,2.2800000000000002
0.013813436519048861,-0.17796469499487308,9.924885084633981,-0.0021155562912418134,0.007887975892397899,-0.01682505196267486,2.29
0.0733137890331677,0.009288278358911743,9.732225525887989,0.004061409001268765,-0.01475828995744945,0.009410508465433043,2.3000000000000003
-0.05652093406917326,-0.01983967273607157,9.676795213313818,0.004375026258807451,0.013145822220953327,-0.023843119692886727,2.31
0.03631389480578546,0.19361035794053558,9.627428722898964,0.006727671154535848,-0.006245431109154975,-0.015534109988801103,2.32
-0.07276056987972394,0.03054468207517651,9.580116683132974,0.011605082724467376,-0.011020465543777858,0.0031173670554685636,2.33
-0.0945700695760648,0.0757129600771366,9.45158736529237,0.0005171519805914033,0.00013132684521484803,0.0031771343103150647,2.34
0.013882363990652312,0.005223033157453913,9.584583855825167,-0.010791441767149862,-0.004626546962570719,0.01916529201264664,2.35
0.21687640195447663,0.07185778072620293,9.842734651713572,-0.00962950903873946,0.0018806233501593148,0.008673649075143132,2.36
-0.05249654388302919,-0.12990039285136745,9.865137983914094,0.0006579724312226241,0.0001568373259460475,0.014348375884082137,2.37
0.010023079881344881,-0.01870188978986012,9.79061486681726,-0.00788545005065653,0.006326825676511183,0.012675409162774065,2.38
0.052899121941033536,0.03860104863757371,9.872545411984746,-0.006130483345828512,-0.0019455225308911404,-0.004255904579878563,2.39
-0.04339633467403725,0.07797130363410458,9.622935810847974,0.012546689860619655,0.01933641380583601,-0.0038660007006391718,2.4
-0.04895041893313293,-0.06336191790671235,9.854830369186523,-0.008391219079192002,0.018430735601905227,0.001270094710952688,2.41
0.17978770593161864,-0.05858490723848875,9.751429669271289,-0.009235333111932,-0.0044746743671597,0.000339700778963141,2.42
0.018491252444552325,-0.029200723840381495,9.878099519642314,-0.012582698722176565,0.0012994501626317125,-0.004270862396688161,2.43
-0.035411663525492916,-0.16771462805330548,9.744407177853,0.005388255813292152,0.000577150440293768,-0.011327608051208159,2.44
-0.0152289487002296,-0.057416871907756455,9.88125445518801,-0.0063897342499795295,-0.006771115312516012,-0.003275216530821854,2.45
0.037860685343477925,-0.04270040636297421,9.836398542479824,-0.002473999902588272,0.00785267954687065,-0.0081163493245874,2.46
-0.1128219542414256,0.10724248712909408,9.573661214699067,-0.002442104760558742,-0.013070903951805737,-0.012801259618169579,2.47
-0.15547140434793585,-0.030483834173918107,9.819548357921109,0.0001839750016880319,-0.005340201130080636,0.0005671908158977349,2.48
0.12542309384224745,0.018960936832035688,9.776217853476563,0.006487805951871841,-0.015004495541391827,0.0008964261974063106,2.49
-0.02333639443971959,-0.0012502930411346473,9.777108078220321,-0.008871709142732928,0.0022592054606378345,-0.015268181417958406,2.5
0.1058951648634525,0.11321911461304127,9.742752491631387,0.011153337330104552,-0.004142661285329473,0.006741705774968283,2.5100000000000002
0.18312348105609833,0.12239775741040491,9.961807471864518,-0.006685853489878292,-0.013102816653236515,0.001452346541282932,2.52
-0.02076264873538938,0.13834854643694786,9.821680065742976,0.004919179849359359,-0.009457399689059577,-0.006662959058573308,2.5300000000000002
-0.09844064519501626,-0.03323728950071658,9.734305681156494,-0.013480159019865537,0.004659853482929519,0.006633915034860405,2.54
0.022550820278858505,0.2294529622709205,9.843793227074894,0.010341225250389411,-0.008300216118674038,-0.011612121553937418,2.5500000000000003
-0.09203045985392466,0.14386357431047733,9.74977507017307,-0.009054162752901433,-0.007621589395605546,-0.011980889119219644,2.56
0.1288201434652326,-0.11838504990072299,9.657197360896168,-0.0025352917804207543,0.0008047351806125033,-0.017470356458673234,2.57
0.1627386043070822,-0.14090573358982347,9.901522902608129,0.0005269875360822194,0.002037442614909594,0.004750025172736172,2.58
0.19735448549798007,0.18100474804702477,9.930944549274415,0.015999802862396183,0.004926923288533465,0.017857923158621093,2.59
-0.06344922911618738,0.08516810673965719,9.800129232425135,-0.024983871750228613,-0.005569537154376726,0.0055504981901788545,2.6
-0.06327441075826319,0.008826125014452268,9.664621683180657,0.013692634737234387,-0.009121085680154205,0.006208294412837168,2.61
0.06713129432338262,-0.13648841832677783,9.677360752165065,7.39314872241437e-05,-0.007058308051860518,0.0019109243741382259,2.62
0.08520068938257463,0.08388527628966713,9.907624126100592,-0.0009440282317000336,0.0010271508843558317,0.01143318964713883,2.63
-0.12104169121063493,0.022422025249552238,9.721956395051466,-0.00325942049839531,0.012385154393165959,-0.019961595359114542,2.64
0.21189055784472585,0.034564896509648974,9.800833471818695,-0.005751470218226485,-0.007103640197081927,-0.002139708867308364,2.65
-0.02833518358500329,-0.055628369528757805,10.006388177488112,0.010659792886723926,0.005695530121234685,0.0018958854856303468,2.66
-0.11397940450869315,0.06131895706612411,9.77651265615808,-0.01175498160323288,-0.00906853755961394,0.013400525253495122,2.67
-0.09351608958560403,-0.011558051562563901,9.74302126235535,0.011196068425730963,0.006399511493203428,0.0029145983128538665,2.68
-0.02292903371279837,-0.22925364370254311,9.848408736503085,0.016149775480095108,0.011715267341056853,0.0037472094075187367,2.69
0.01796266757414576,-0.04741727132384818,9.884113408596333,0.003326996254785889,-0.00107318143606682,0.005937860538010929,2.7
0.13383261646183772,0.1226572409851765,9.784864043742555,0.007069921471124512,-0.005289682691310463,-0.0025860000725776745,2.71
-0.0876554145879509,-0.06104295304374457,9.697584331315966,-0.0005209995271207736,-0.012736734321515938,-0.02021887039695306,2.72
-0.04996577823917137,-0.04065208547544883,9.657225949953954,-0.00722405020406069,0.008618795464574234,-0.0019477222819121731,2.73
-0.12459487980401406,0.12442255273438214,9.530505431847242,0.008890312283751417,0.00047948264231193583,0.001742420974162603,2.74
0.03608458244672385,-0.1636944464071007,9.885579887863553,-0.006882582015768153,0.004893098952606838,0.010388270832382637,2.75
-0.24715751489187482,0.061890034261414976,9.8363865865525,0.019781927698163226,-0.006050695266942297,0.00019411114524788806,2.7600000000000002
-0.22234593580881473,0.020263906320917024,9.799747309063989,-0.005521911561234778,-0.004235089132983202,0.004022693720364914,2.77
0.1291748019451898,-0.0699004722778881,9.64924431035792,-0.006655423573670835,-0.024636279834373644,-0.0024547173234025325,2.7800000000000002
0.12185978280881138,0.049169790141844354,9.74434093152014,0.010914378970342253,-0.013433207555888905,-0.007026709130836532,2.79
0.019184530516730927,0.3127163867381328,9.816242033469695,0.011435277692212387,-0.006048409657083487,0.013612298280645727,2.8000000000000003
-0.03195856176689612,-0.04906251682268223,9.90668801717519,-0.005209313929559915,0.007238371504701049,-0.010076805696086445,2.81
0.0496107949414281,0.0641825137897642,9.780029149057096,0.0060715228254477425,0.010754973529776637,-0.0036563831924715435,2.82
-0.01966164002232343,-0.02761886650679704,9.78462307491218,-0.0009475978550988538,0.0049943442253126595,0.0173619741782387,2.83
0.012889562530797037,0.12644657593146766,9.84687700817199,0.009729403752497498,-0.011752155416682362,-0.013224077111667074,2.84
0.13671997572581046,-0.13961042985439462,9.938392194627529,-0.006860644144715127,0.007615846247196323,0.01369392575893361,2.85
-0.05246400272393558,-0.07457131564270769,9.826217746345481,0.0017652519097478897,0.022514150843368174,-0.008859522378177729,2.86
-0.02355167436840802,0.024839391845199465,9.825986018188484,-0.01348064003315429,0.012537944091120655,0.007683118777181297,2.87
0.1009496160738128,0.023563864704420345,9.761948455999278,-0.002148026157332915,-0.006071298981002925,0.0049747557321707745,2.88
-0.02180899646795863,0.05206249530715221,9.673812620183273,0.0017279793263906358,-0.0020771061160098016,-0.0008395772101100679,2.89
-0.0162008219492704,-0.027166192893740195,9.982534939874878,-0.0011348680737359596,-0.00860315906654941,-0.010765227583079063,2.9
0.04305152099781087,0.12997769230627096,10.060131595309464,-0.009306462051897103,-0.02734884592677877,0.003506803936445495,2.91
0.014332147170926525,0.08641933022735503,9.906988549159967,0.01290580474503346,0.012632258030284248,0.0018860226497534364,2.92
0.10765481610466676,-0.007232928200127545,9.642007683466227,0.0015447790463393532,0.008174604435036177,-0.0003992086683021033,2.93
-0.004282830675121272,0.040627911446766286,9.814481889674722,-0.003670170596748309,-0.004088153322662077,-0.01254053577442418,2.94
-0.05875534722652457,0.010465808437512596,9.794401831471063,0.003507866237102845,0.00598796416331598,0.014618748278779377,2.95
0.005579722577335335,0.07755977610427722,9.952100866848017,-0.009726094365922113,-0.00078657627628522,-0.0053306413437361685,2.96
-0.043535879136553914,0.12765718925618444,9.887667410608653,-0.014761372334591865,-0.004660906735071778,0.010588089683294227,2.97
-0.11165470662357779,0.000660673185605456,9.885451375959196,0.014760637332854742,-0.01215991219151774,0.010426194165177947,2.98
-0.019535559511445148,0.050991223636846494,9.995501561661621,0.00039313461505185353,-0.031280392527804526,0.010803991217751583,2.99
-0.03435037318008642,-0.11777039026422016,9.661993663816268,0.010545026439165503,0.0008849800071799085,0.009795602245540803,3.0
0.07985346007252701,0.039018217371966486,10.00672253718914,-0.002360466883761029,0.008166331244553047,-0.007319339163598487,3.0100000000000002
0.3092073751914983,0.02388297953937805,9.765773784945685,0.016372872428344995,0.0026053778521938535,-0.009614891501223811,3.02
-0.022228743365177106,0.05434903132899458,9.849764403034376,-0.007396079048989126,0.0002299698614167854,0.006416336882205073,3.0300000000000002
0.029260090477223773,-0.08234761258344453,9.881529501146138,0.0015906730513944017,-0.013915315953242817,0.009585441430086017,3.04
-0.01456811772162171,-0.06126116247135345,9.75085206626646,0.016575636128327468,0.01787999093875259,0.006412552396969755,3.0500000000000003
-0.2630416076482917,0.1758954776226922,9.723952860178265,-0.013403919323357607,0.008793816043549575,0.0024059849876056226,3.06
-0.013060025685235156,0.004933472520122009,9.798685778232288,0.008219940380860045,-0.014356039180678973,-0.0022325117043902024,3.0700000000000003
0.0025285424097622636,0.07363538592126374,9.570777155646313,0.009437940498708965,-0.014481288051561821,0.01141275987996062,3.08
-0.1754321412602894,0.03939617317121408,9.971465236281826,0.007079258693440828,0.009737234710613586,0.00898372343750603,3.09
0.14069865184656657,0.024016670667542955,9.973494480944504,0.0005731608537895828,-0.005925615307944071,0.0008116093113707192,3.1
-0.08692769791536434,-0.22288715703115403,9.636762347417786,0.012479827778318056,-0.0012740322194990583,-0.005187344521627596,3.11
-0.01511044752551252,0.029295790448382566,9.764651814392257,-0.0022646241657600296,0.00455883147561354,-0.0014435721777695493,3.12
0.06260038906072934,-0.07143075459921858,9.842235171936752,0.0009691299985456481,0.0034449022571882044,-0.0009864350664676174,3.13
-0.05610652514696512,0.03980633550947705,9.927484105163561,0.0018410538928920449,-0.0011543496702201696,-0.01837293539333767,3.14
-0.0676187432760806,-0.11417936369140008,9.67412612564113,-0.02006016485898727,-0.004346886626259546,-0.0002783970441031399,3.15
0.10794133085074181,-0.10585736957070889,9.749570396602499,0.007303146022773495,0.009213882434524536,0.0007963716617965629,3.16
0.10635937284359334,0.03731932731778559,9.894029772614411,-0.00706712274624025,0.006048335106031572,-0.006767866155710478,3.17
-0.013901097518918782,-0.3244420755897038,9.771853117446456,0.006841379084043448,0.0057666350052312555,0.0020901098614014807,3.18
-0.057625262140067746,-0.1061028059647121,9.711105615535827,-0.0020300044050047673,-0.004649495911521454,-0.001420081111818999,3.19
0.038422178700080176,-0.15907323996769396,9.872147196612175,0.007228941704146617,-0.00027589207719955563,0.009840633484553971,3.2
-0.15766288964315767,-0.16032308320903327,9.78832149090318,-0.00034676173350910335,-0.017671914632119416,-0.0006398545374976472,3.21
-0.04244624964546682,-0.010215489250142202,9.756527063794133,-0.004108143077573614,-0.010686859668055451,0.008168060806890405,3.22
-0.02910483598455837,-0.012319819480544402,9.810743839040947,0.0031455985357445888,0.0034741551187390863,0.005701220168365743,3.23
0.15792568700945797,-0.08925883816481184,9.884106078255401,0.0006776999499041452,0.009952781625214525,0.014253487356767238,3.24
0.07081728835407368,0.056675789186595674,9.841439677073952,0.00939770477438674,-0.012023408780672405,0.0159095606056916,3.25
0.06186929181383351,0.022595537179428107,9.90704724878624,0.004541117664603364,-0.00038758302830176945,0.01520008530669761,3.2600000000000002
0.030470334238275644,0.013555892220738136,9.967065384802904,0.005679848014657885,0.006213798874553413,0.01863249380618846,3.27
0.027373541640692636,0.07818973494896067,9.738221234824097,0.00907516804975154,0.008736252877592039,-0.00951909537365435,3.2800000000000002
0.1390789038265434,0.07983759289890534,9.915967926189824,0.004097112726246277,-0.016209640022628386,0.01466190194144006,3.29
0.013529530576491325,-0.08504478672912122,9.805860404734485,-0.010114072507395053,0.006403505762587333,-0.0008673087544020958,3.3000000000000003
-0.07209210505838064,0.03190430372622356,9.830101349362666,-0.011231713135204689,0.006051199632789394,0.0016726781171150556,3.31
0.05298381591156757,-0.10876137858296714,9.978262897548426,0.018870953550780264,0.00863704599490731,-0.014893682684457295,3.3200000000000003
-0.022075459556869376,-0.08663130163533371,9.770274548968683,0.008405268884688047,-0.011853457543266686,-0.0065405979641592425,3.33
-0.2315065962299377,0.003957056504063824,9.810634000603837,-0.0025783945095823567,-0.004877434892109903,-0.0004009489068049408,3.34
-0.08746771564381306,-0.000932464635361243,9.938727332258921,-0.002838770219885233,0.0022229681861867727,0.006902181106891851,3.35
-0.021565743104510107,0.045998639470896385,9.703631560155554,0.008632869756333995,-0.010014615995784881,-0.020756390629644784,3.36
0.05897089349694619,0.13148783103112438,9.775344952595358,0.00043927382618659815,0.011067333687284799,0.02889980133097104,3.37
-0.09904324605206735,0.058149127202848185,9.85634109081532,-0.0013840491238100148,0.0033408726888561504,0.0212851181859011,3.38
0.07557356445929427,0.27241647304924477,9.784725587783718,-0.012979040103559956,0.0018327751474046478,-0.010677524096575805,3.39
-0.07432323864957456,0.3082660364401502,9.752696992558342,0.006517576213605214,0.006473450696789233,-0.008725998408446524,3.4
-0.01919406608984049,0.04481800485227791,9.56305564559527,-0.004634965826795774,0.004011867924622949,-0.004302494223273722,3.41
0.09050341299264356,0.032353514490504096,9.744938054623184,0.013039564877007737,-0.006967787945028922,0.004651441368019582,3.42
0.0596242227111086,0.11485809987938106,9.899565282044131,-0.00015765919796170672,-0.015525882707067463,0.010414163205396603,3.43
-0.027959301147529717,-0.052231417609738866,9.738796158395614,-0.004285199248503509,0.005926390093044424,-0.012790843277852553,3.44
0.07305727095884318,0.15481163855207242,9.791039756632108,-0.010852252724403948,0.003975589457448586,-0.0024928220196741165,3.45
0.12790380126015152,0.004183239980679136,9.823052928931368,-0.016755447086540042,0.023522305835166762,-8.837878906296605e-05,3.46
-0.2573942034412039,0.05814685307896572,9.97235785828264,0.0016487657760210412,0.0033106398043665805,0.0008686086667007342,3.47
0.10677245283124642,-0.1452118527399623,9.66844895267425,0.026378899842192036,0.006160014097243627,0.018253835496353576,3.48
-0.14406024061060527,-0.05413969554234256,9.852449091717983,-0.013954533241441467,0.016874105898830063,0.005571736562740975,3.49
-0.0071436996831347275,-0.03497330057830672,9.744184985451497,0.0017332490216855436,0.0015031918443483131,-0.0031176690390802408,3.5
0.15629225853750373,-0.07507240504024955,9.971822786051673,-0.010643075863396556,0.008760339663506235,-0.01032095607711107,3.5100000000000002
0.10571221596618335,0.07190084449423532,9.874303145253194,-0.0029173921622804946,-0.008878454643674275,-0.005939256771838909,3.52
0.19070504754339265,-0.018877220866223683,9.888192918987007,0.005058279824812396,0.00094013117503398,0.0026510062869115813,3.5300000000000002
0.12362565935721231,-0.09806627823854253,9.913222293119121,-0.010507121272231856,-0.0007874717796222965,-0.0023619816333700313,3.54
-0.10231417147990851,0.018195124435456435,9.764251951337098,-0.0079605841506144,0.014595160818369556,-0.0037020427284143727,3.5500000000000003
0.08713755060618146,0.08942824836768726,9.626614807430704,-0.007596885640911576,-0.002789630962532131,0.008523010607697225,3.56
-0.0031221073528356204,0.012760473320481601,9.743761867126638,0.009209749529886456,0.0008829845903641795,-0.00581530433748733,3.5700000000000003
-0.03914000413882618,0.09572337344785375,9.858644251708592,-0.00225206843300607,-0.008425154489845895,-0.005968992473125371,3.58
-0.07206213341404837,-0.0462430212841076,9.782442021159316,-0.01945118283581103,-0.016644730304303967,0.018695457051195803,3.59
-0.08054281231681348,0.033721005261601066,9.749543659917167,-0.013956315207455963,-0.005444398684483351,0.006494970693412481,3.6
-0.2101143171753452,-0.14677087537337274,9.726818082211569,-0.016503425966932984,-0.010785062634486389,-0.001993712665258854,3.61
0.18852697884358668,0.06343050754763961,9.913730114408004,0.0045960565346845296,-0.01235135973229441,-0.00729047260411646,3.62
-0.09093820751099801,0.07532486501887582,9.952264360609506,-0.0012617168279419131,-0.016341325954101097,0.004295566152574908,3.63
-0.11967501346818427,0.11628213383410996,9.755012069409343,0.020729332374515123,0.007192244484511266,0.009543353440912646,3.64
-0.11794691022010945,0.19849043918142897,9.825805994060424,-0.011462696466260955,0.011898880667393155,0.00793423632409864,3.65
-0.09302165280972535,0.18099613298894549,9.625670668809603,-0.005027988189212474,-0.011236550222859132,0.010724100978266935,3.66
-0.13659676770342177,-0.13827536284334394,9.963516958179978,-0.002237769874486955,0.021956059619878582,-0.003807720250477709,3.67
-0.04776461315363903,-0.043968909246401094,9.752336553751809,-0.014558102705986198,0.009468198395681507,0.012462621809307352,3.68
-0.10548902982389247,-0.03522389451828746,9.900557446011094,0.0009354085790395692,0.02120163826728268,-0.008092550055164627,3.69
-0.06393259617528642,0.048296554598688556,9.750968135039779,0.0032173674778139196,0.016761410483560116,-0.013617797243666883,3.7
-0.030108000082460347,0.023634019238059932,9.997583266575173,-0.005723172573359887,-0.003008576354580851,0.010181564647144117,3.71
-0.03852023706788735,-0.06522268880270492,9.797861372989017,0.015391731212648781,-0.009294579595658912,0.0038081273426180963,3.72
-0.106868748132316,0.1368597313077251,9.830250891007205,0.0056788283395870845,0.016710934737179096,0.010717494739429663,3.73
0.019617697337030567,-0.08209137205740827,9.69806992127764,0.005585966578868602,-0.0037962413880950337,-0.004648508940331925,3.74
0.10795314555061582,0.006466076613303416,9.911351196328527,0.0036519127213975105,0.006054757720539287,-0.009868039055256236,3.75
-0.04305243718839978,0.1628159853221022,9.863054649727493,-0.000690713724417556,0.018300326975922244,-0.0020013263733570166,3.7600000000000002
0.07848351991341013,0.16618308135230903,9.700590050539986,0.016350242648999504,-0.0019099316524999047,-0.00824751902714209,3.77
-0.021960853115229887,-0.06171849277194278,9.919324233805742,-0.0005775364612910341,0.003705998973853694,0.0027266030050411873,3.7800000000000002
-0.03575066677125236,-0.041754039007328526,9.831305420396015,0.008316260945500406,-0.001648870757161037,-0.0020081832484694596,3.79
-0.0967324895663979,0.21309690183509566,9.832132629193335,-0.008844506873571786,-0.0010425649602415713,0.005711779310777395,3.8000000000000003
0.04714602578628952,0.050002767376772075,9.671184513382233,-0.015906734471988936,0.005166477710198303,0.012847375082328773,3.81
-0.020578561797859874,0.24085380325589886,9.815863510733351,-0.006784786710046903,-0.0051294952300014775,-0.013327579014114518,3.8200000000000003
0.04753576216508094,0.1503813412095101,9.800424136174444,-0.008392628161580852,-0.008927650640256782,0.006656304014285384,3.83
0.07665691018179127,-0.07979171760976049,9.80080051198439,-0.013834205696157722,-0.009024072624924084,0.01147532129111853,3.84
-0.040596295793649526,0.06593039009671352,9.846261506871185,-0.00029174813490386026,-0.004100157056287231,-0.005037491411579986,3.85
-0.10335584754447472,0.015025438787697252,9.764688896612064,-0.012045185850554934,0.0034296736645003994,-0.012327804392674812,3.86
-0.06888781026910952,-0.1199091062428426,9.801407933219759,-0.0028023329971377186,0.01271921887196839,0.015666631381901712,3.87
0.14103425322998134,-0.19362098340890527,9.836647571914556,-0.002081556640138845,0.004111484291824078,-0.003593522307607816,3.88
0.1175906961815751,0.04270337429076504,9.795254733149845,-0.006949250752672302,-0.00741823704634577,-0.009573739432512354,3.89
0.00958585407802118,0.06915915107134192,9.714537715963061,-0.006461105687450654,-0.02007879900115474,0.013616419422276569,3.9
-0.13060595369987926,-0.04648959523340687,9.627692602646434,0.005613518018468113,0.01351182217347351,0.005666000614997802,3.91
0.053625333779181744,0.016952069415137754,9.574373269593359,0.014952882589957694,0.0012790178301350912,-0.008642620126281354,3.92
-0.04522872927979028,-0.1065137013894125,9.894626577015952,-0.011030720722760054,0.010317044231273003,0.00413433790066273,3.93
-0.08870601574223062,-0.07646895224529163,9.895106970488829,0.0021592062141478725,-0.00039415683584225614,0.005446035523651713,3.94
-0.05870926466977636,9.801594563603918e-05,9.801192327100177,-0.002518561068208243,-0.010736259725948353,-0.000845563939115702,3.95
-0.01672353209022147,-0.027107404076489722,9.821115089360086,0.003400562404934778,-0.014976880346417157,-0.003924250686726998,3.96
0.07917370738557111,-0.08483819788283121,9.708895347313032,0.0028065079729911774,-0.008536421564163064,0.008347849844726047,3.97
0.08697194372248633,-0.11702424516834896,9.885475053069007,0.000262651261004754,-0.010613939837115418,0.00573884121042499,3.98
0.06026841570403792,-0.016635071661464225,9.825998405745835,-0.007907795788688214,-0.007016127925555407,-0.010182544920368828,3.99
-0.14858915260578795,0.08443641090105536,9.880659848024408,0.006833179461707238,-0.007505666022806945,-0.005822360608453227,4.0
0.04087648590410895,-0.07313543994163028,9.882889296283357,-0.014432238633006852,-0.0033556712227563418,-0.0049053335006302,4.01
0.12929598276178342,-0.0023246377714771366,9.990289871441828,-0.014455990054974261,0.015596519957568321,0.0026463078917977906,4.0200000000000005
-0.0340598486135374,0.021430886453739976,9.72241742681041,-0.016936739461586036,-0.002141063992651773,-0.00714613041579338,4.03
-0.04113817318157162,0.0262992334780778,9.698459323554923,-0.006686902419895875,0.016503469925591305,-0.001957560769012738,4.04
0.01296184888575766,-0.21194606431074992,9.71338285536947,0.004151208963869502,-0.0021648316201781687,3.868387087063412e-05,4.05
0.15455196234279434,0.0746222519479675,9.801651562830518,-0.01443181089729893,-0.005191975446191961,0.0023121679711415252,4.0600000000000005
0.00939374835787922,-0.11051246183361374,9.782323873354862,0.005020054983471493,0.003989364932024231,0.007246784544434668,4.07
0.04197622313127835,-0.05029842875404085,9.979238299929166,-0.004849468464709017,-0.011707927171141939,0.004341726865861847,4.08
0.03743602223446018,-0.0028732395272640003,9.82256888312149,0.01245836937616827,-0.0006719487936005971,-0.010095872790991956,4.09
0.1358425065914542,-0.1725608153758035,9.899372312910371,0.0011586643768849605,-0.003703215992950892,0.007397783012003192,4.1
-0.13786012781766574,0.13313404240633092,9.607731057473028,-0.001389322895681093,0.01628610930043089,-0.0001329833125806165,4.11
0.05537279792939723,-0.1287261670557122,9.904335977476196,0.0068281032532189504,-0.010255794314460767,-0.001964545583032522,4.12
0.1471446985804554,0.03123329871432165,9.83342254134059,0.008209751892212631,0.00192220256727539,-0.005651122015828474,4.13
-0.07386189971414524,-0.04520224050946392,9.881927694938572,-0.013295642011623516,0.001080174996841223,-0.013057150304407336,4.14
0.11974279077792904,-0.17311461078226445,9.853778096696399,-0.014091890305822476,-0.0034622239604648964,0.013567172565017802,4.15
0.29578864757844986,-0.11851531063601967,9.883367374329236,-0.001893628778555292,0.004411712842884456,-0.00034850725846851283,4.16
-0.0017162040912521313,0.06525028419657725,9.831307121988077,-0.007668376365458799,0.013844746993059698,0.01150621238475116,4.17
-0.1141648946455945,-0.0019408947157161143,9.968084868173367,0.00713162219492405,-0.004118130394176536,-0.0031576363705380158,4.18
-0.09863046156727497,-0.04562568388811081,9.944662959113819,-0.009066064144360458,0.00299634736962672,0.00023285468641821454,4.19
-0.03305414937840402,-0.05547583392334357,9.886259294715169,-0.00620055157099327,0.019916230713729215,0.011299612125773007,4.2
0.05238900508096416,0.004663136468583336,9.667243115852596,0.010277724604885389,-0.019046604895175775,0.0029604560068164144,4.21
0.07548959307487828,0.04956199543543138,9.612369384403626,-0.0006607406314611149,0.011426781810988164,0.0012442663377445332,4.22
-0.006790117183047117,0.035024062454708335,9.837592989607463,-0.014954605455251489,0.005061345529220187,0.0017698644755795687,4.23
0.08315105180783439,-0.019760645027236554,9.740974528199006,-0.00923595337166788,-0.01397534721863183,-0.004972304693367708,4.24
0.03315326250126842,-0.06472796081691624,9.899489276861667,-0.003253565295208649,0.0034882005159550594,0.004121211695423658,4.25
-0.08768753697306428,-0.03776253398848339,9.844665058361477,-0.011078756254381292,-0.009957349687426448,0.007736059233418273,4.26
-0.011340478068310005,-0.04038405723129964,9.78400521354992,0.0024309724863498553,-0.011624976655987425,0.014868472059987542,4.2700000000000005
0.18546004244484635,-0.021620500602592505,9.700156981047774,0.016341326560479832,0.001069234272702047,-0.0026297516708689295,4.28
-0.08180881504553557,0.26730136952214506,9.844389153833118,0.0034445210779564524,0.004628923736341264,0.0036635437645087176,4.29
-0.015360467764894851,0.027989987273457636,9.8501345833081,0.003800636990415916,0.00013090098224807998,-0.006945007751220371,4.3
-0.006325313082895992,-0.016082236148745353,9.657553336238184,0.0009252501940129513,-0.00722304001160812,-0.006201008196541286,4.3100000000000005
-0.1728186115301756,-0.1065716820419332,9.779961634970068,0.012752384760278955,0.013821564828846866,0.00246042045719809,4.32
0.14722145983085372,0.10990400982167102,10.056734078665519,0.0013911886717820749,-0.01485987933735153,-0.00045978394945439343,4.33
0.07366092652848788,0.028504215527146833,9.82064166847322,-0.016999760282898967,0.01707251276741913,0.019242273926748703,4.34
0.020204150924410358,0.03078149433949287,9.772192798274538,-0.001775472333562941,0.004503307129260421,0.01091820321396968,4.3500000000000005
-0.10150353274705165,0.1514922805142356,9.963108124686318,0.006723602222632396,-0.010192010394623615,0.007560989193395017,4.36
0.06604415675684416,0.12160645774647305,9.765134539676588,0.00703735643460941,-0.01973144107624897,-0.001971542856055885,4.37
-0.008298178734897516,0.06765864951991837,9.963466261527374,0.015923828963441175,-0.007835825225450012,0.007331146236860756,4.38
0.04860058945050699,-0.078780951435122,9.874907016883512,0.016635709205109414,-0.007181057312287511,0.008043252894049372,4.39
0.12438901559055467,-1.7756479368001878e-05,9.801479072023298,0.028101537517079715,-0.01739515270764292,0.004026912100867417,4.4
-0.05370791933238418,0.12976763433273847,9.790955741834097,0.021341730853360125,-0.024583217753521472,0.005435795966668959,4.41
0.1607475842109165,0.11939527768198839,9.852714182528217,-0.022258976666785602,0.0009000966121406255,0.008023603902586605,4.42
0.1943163229784336,0.18030738536581564,9.779037622583385,0.013441003047293638,0.015225442528054694,-0.0016000653162701666,4.43
-0.017778035671980327,-0.1541900927050711,9.847635983876001,0.001187967405807206,-0.0063667894490191425,-0.01873086190602181,4.44
-0.010837847777943428,-0.04665809918730823,9.77046257074047,0.0059655346070213704,0.02089091579244825,-0.0011544071596621872,4.45
-0.07098477011687235,0.012708664011168685,9.637088136094329,-0.008699364403627001,0.013065246910515011,-0.02166625416742743,4.46
0.1613398569654289,0.06345698079150226,9.944486146834414,0.013132709271717447,0.00997730314657664,-0.015412963554380123,4.47
0.1515481821711545,-0.13316366878353175,9.681095588934717,0.0010008892008240666,-0.001473378498959131,0.0019160197144281483,4.48
-0.17174666824649865,0.08914850413672114,9.818269992207274,0.010101955656745725,0.017648122032658087,0.015041811770192471,4.49
0.1898517798539332,0.044693363155983525,9.829917733789168,0.004268961693860944,-0.012121714619192623,0.008093738746933152,4.5
-0.039220385495898465,0.00550281533427858,9.828167905142779,-0.004048241867740738,0.0024638886466964373,-0.01943004846167309,4.51
-0.0800586354344241,-0.08165837797210834,10.002372270420812,7.885924347671108e-05,0.008252378753777245,0.012621387497354522,4.5200000000000005
0.11266115745375307,-0.020272876110317667,9.979613602991742,-0.012339777057437227,-0.0009701165184224053,-0.004604031431289769,4.53
-0.12894366801303034,0.06711003997778635,9.898424234176526,-0.0051205509743090525,0.0011353455520915312,-0.00972369493395593,4.54
0.029097857230365343,-0.24215067563095102,9.6889668073199,0.009709348093608747,0.003201148257137863,0.008884881793442264,4.55
0.030094549765810375,0.07597910194339733,9.720692524641562,-0.00025721053607303835,-0.004458311509109829,0.002680142886713419,4.5600000000000005
-0.18734501571396736,0.006910917628710918,9.782476110657713,-0.010607880623003427,-0.0022407733933230453,0.01724462967534054,4.57
0.018003413897197406,-0.17476640377434335,10.003631723921062,0.011122238837196886,-0.01603236838083346,0.007315943753328066,4.58
0.006827313383021083,-0.20177155517476408,9.922461979131628,0.009880805428377276,-0.0073795828313053605,0.0028661704787001467,4.59
0.01511426398729007,0.010701577354297526,9.784246159826067,-0.011536995805264476,0.0016753108388921452,0.007231366501990583,4.6000000000000005
-0.08205962552461073,-0.13411772258088914,9.836195348273568,0.003222770391098036,0.010159216274741197,0.004344654973149075,4.61
0.1110675391412242,-0.05217125900016049,9.921980894939965,-0.002511003463174803,0.013236950021752427,-0.013833385785875075,4.62
-0.15145755552781703,0.12908214345695213,9.73923799135748,-0.009377697639252804,-0.0019306113734125403,-0.007713320093454138,4.63
-0.11178362555843638,0.015207888624704978,9.896336922218772,-0.006501049033398614,-0.01971214013186105,0.009225853159618694,4.64
0.021471680006638107,-0.15425151189741096,9.939222887859211,0.017411022120368876,-0.0013040946276442807,0.0021398769842880484,4.65
0.08075838536672267,-0.14860337496094644,10.040576157766532,0.014177133290226733,-0.004875704888877392,-6.852562454319467e-05,4.66
-0.05031313551059783,-0.06540984099488761,9.828837188709558,0.01991015731973348,-0.0074325007368804905,0.010465006740137126,4.67
0.02649819754995457,0.03226750052532338,9.786917987285042,0.011058130068381909,0.0015687960067707362,-0.00291037074508742,4.68
-0.1099679700259743,0.02510048224214296,9.869131490623017,-0.012586970095299079,0.016733374088580732,-0.023648562758278913,4.69
0.20559066408266427,-0.1437873909684673,9.789407475885056,-0.02014774689145236,-0.004849528747317924,0.013620577389998398,4.7
-0.021099662506302238,-0.06497470938135555,9.580227149161901,-0.006483943711179889,-0.005746697660054925,-0.01523916786191005,4.71
0.12391213150535625,-0.02225067345789293,9.872315043826713,-0.00919627020726879,0.0102976246674329,-0.009984731315392206,4.72
0.03577217439000186,-0.10932776518620375,9.921710145421597,-0.01608199871168969,-0.001647846466317037,0.004151900849925454,4.73
-0.04936182209624343,-0.12400741033228016,9.578167484107283,0.005853880063161835,-0.009840287655502013,-0.003660138581421931,4.74
-0.06141765589992776,-0.009840538104165736,9.727114197125728,-0.011225998012798385,0.019715918437599126,-0.0016362101524286412,4.75
0.05524421192182947,0.08134147544365056,10.001620592304052,-0.0016918124630229865,0.007973703717666905,0.008868833193135488,4.76
0.014448320516532172,0.07384805429050892,9.77811466131381,0.0059647124430701895,-0.0009519676016161478,0.0052962684399599945,4.7700000000000005
-0.14381198471869586,-0.19485165955513745,9.911556761594827,-0.020955557464729227,-0.01452207675327577,-0.005030158275484458,4.78
0.09379526577737259,0.024259549262157076,10.01893552969849,-0.013828736898524494,0.004863017063424947,-0.007595367545947195,4.79
-0.31230814302760107,0.005243447203129915,9.881130648031888,-0.016835490629614452,-0.0032198632438938373,0.009512448422492412,4.8
-0.16764772979787668,-0.03480206843479141,9.972929935212557,-0.0062784708004129785,0.003506572579907453,0.00782210992160338,4.8100000000000005
0.0881062249046944,-0.05325368485946516,9.786672607461625,-0.0068278708247905195,0.00597250780186568,-0.015933654538855625,4.82
0.08093049220862165,-0.22715352920622506,9.682368732318679,0.0017796859677223311,-0.013747939272449713,-0.010931611863262422,4.83
0.1455033809055661,0.048911941779397505,9.805215672883483,-0.0019446445288803813,-0.006331509370077564,-0.0023414576478317747,4.84
-0.08765413664171595,-0.0614358347828898,9.802058472232348,-0.014122335619734696,-0.006373664930779054,0.0072479041470247954,4.8500000000000005
-0.04200988485163201,0.0015630470594583574,9.736557201969957,0.0027797664832733947,-0.008390580989256255,0.008105536773526491,4.86
-0.06734216957467164,0.1600363988576882,9.845150687408807,-0.005029854511781625,0.0024134481768108423,0.007945125772830046,4.87
0.056063898531455214,-0.26330935881845824,9.765423660978495,0.010152037155652341,0.0036435412279225477,0.020164723974898307,4.88
-0.024776726823405135,-0.18507976159120088,9.612615436752218,0.013249421445022764,0.011866625816028242,0.002516500770516256,4.89
0.1166711999617714,-0.11869839261851378,9.93915223161858,-0.009136962910853695,-0.0014855457312029537,-0.010669282413064345,4.9
-0.14837756220471504,-0.1151931132988304,9.609855343451676,-0.013087236842936206,0.014284967595784133,0.008652074985861846,4.91
-0.07395246716120249,-0.011656473578246562,9.823373739071034,-0.02272720526778065,-0.009687882395830601,-0.004522535273824129,4.92
0.05403661198497929,-0.03639162967368334,9.73988021472391,-0.014757388259125275,0.0016351500033067825,-0.008763106899172864,4.93
0.012344145251564924,0.021339165535806018,9.723706810471606,0.012369974372960573,-0.006775993538976663,-0.01151827337833511,4.94
0.11082711948313051,0.05374503616653523,9.826901347253893,0.0014311883594147396,-0.004824958055433241,-0.021939596117326626,4.95
0.24975714310282077,0.10483031210370784,9.85919297721138,-0.016577127040217937,-0.0023013975338600228,0.0024298256416594825,4.96
-0.004982801134228392,-0.22103576400914135,9.724350797808203,0.0025113270946433923,-0.009934114915519302,0.022015596142685508,4.97
0.1832375012405888,0.22399166815210433,9.780034469452149,-0.006472489637133629,0.004933418557005469,-0.004255479722048891,4.98
-0.17843469207695278,-0.056323817097531675,9.87804802808091,0.015006532942628315,0.005763879556756032,-0.0011798585756415513,4.99
-0.080551699434721,-0.001056969033537083,9.899027234322823,0.005594001721269142,-0.010602283016259595,0.005849717181083533,5.0
-0.13123575537866478,0.13453286491687996,9.618319672430617,0.006950419519645728,0.011331641785222018,0.007663539397897492,5.01
-0.03437859970576854,-0.05444473364599422,9.719464419471569,-0.013130402271243718,0.00023111501619955122,-0.0034103125613882193,5.0200000000000005
-0.045981099256268754,-0.06271258638099415,9.845442812836819,-6.564699019897125e-05,0.010786085084862378,-0.007250794325538664,5.03
-0.007016495464327953,-0.03323109224871803,9.836290870571496,-0.009417438767412124,0.022216684490687307,0.006326596708623924,5.04
-0.05243470816667192,0.11380114678651505,9.68230970888956,-0.005464937781577899,-0.003455733149942122,-0.00196936899167935,5.05
-0.1077128983126545,0.05232767736191571,9.940943000638576,0.014014540379434448,0.0028370673997772044,0.007055266126204244,5.0600000000000005
0.0938065044659971,0.11675846173917726,9.630983964698109,0.007716510142117592,-0.00805975429124413,0.0001761399359675982,5.07
-0.15142176298528431,-0.038942712972165235,9.727563711793865,-0.004091194358564456,0.0005907093558881848,-0.00426951137859612,5.08
0.14755077333664077,-0.010644289602538382,9.694879942001693,0.015302316279396589,-0.011929553314754808,0.010303045059935644,5.09
0.16969334757897647,0.036112198007786984,9.827781266564465,0.0017094343254573932,-0.0022498145838008403,-0.008835032922300918,5.1000000000000005
-0.04877566453057607,0.06947104970305788,9.846341519048433,0.009100123865679127,-0.0042591518613083156,-0.00010714133466574399,5.11
-0.13765220306487758,0.0527385777716369,9.763273042404643,-0.01589849376130241,0.012810851897767253,-0.004524111112653861,5.12
-0.00526744517160143,0.002235236715976152,9.838563239046218,-0.006991171247110639,0.01265659046390081,-0.0065831601874410065,5.13
-0.09421161690294616,0.10099944132904833,9.905553361604161,-0.00916342964274157,-0.0028579931518595563,0.0008557352300060298,5.14
-0.08443259585081969,-0.02706471360233408,9.69073646609648,-0.0007911500983589851,0.0022020786930598926,0.006750439970989539,5.15
-0.0569265734495765,-0.013263902275652868,9.664703108094098,0.0015273194730046713,-0.0007942714688170625,0.00047227414378115925,5.16
0.09238681200904789,-0.06837919904963344,9.929113487762725,-0.01347072905422074,-0.003720507205055225,0.015803877390596244,5.17
-0.00819439687727195,0.0678820537785165,9.759764881689543,-0.01723352748083729,-0.003060938062830012,-0.012623942393463386,5.18
-0.09539237695582058,-0.01977240487264838,9.980420558466905,-0.001594016756199899,0.01026111404110036,0.010682190865114507,5.19
-0.01917374893158025,-0.11044073056593372,9.984342192607508,0.03226459809928411,0.00418479733675264,-0.0040217300558833295,5.2
0.1821064944942334,0.052927152864608286,10.070389466253415,0.014240311894418529,-0.01030717214087866,-0.021576016013389578,5.21
0.0345854641608132,0.05557923862181966,9.858295936767371,0.011304741711404354,-0.01450956408519505,-0.005481863231850307,5.22
0.055786729664525074,0.03585166917488806,9.783966134100332,0.006326260642083691,0.0064231253517364655,-0.004932094465463189,5.23
-0.193728264884423,0.010898128591452456,9.771303010162258,0.00936314879792777,-0.0035659406080414797,0.0013256620658675942,5.24
0.02251681721498672,-0.03416472814788283,9.888638058597495,0.013406919294735043,0.004270488521491665,-0.015957790131329468,5.25
0.17298598976575252,0.10333731624441905,9.838117847303584,0.005365060209379747,0.004275954530339721,-0.013454992652658222,5.26
0.10688108184646666,0.05017862771142472,9.810774968921349,0.009014679373758317,-0.0037553964207599345,0.003942604890007708,5.2700000000000005
0.11247157912688098,-0.06143189055085868,9.853782453715908,0.0009012931597831389,-0.003524464008877614,-0.006472299136479234,5.28
-0.08470303439351254,-0.08690983124098908,9.754758619162306,0.0030222029212315957,-0.016864485126142362,-0.007113867115808923,5.29
-0.08194158954748841,-0.23896572531740518,9.691057660086077,-0.004343297739377427,-0.01111843608515987,0.009181783500449658,5.3
0.05228385135392959,-0.03506740763077331,9.775847040056398,0.008874481386115974,-0.005466394919909995,0.0016432543422173396,5.3100000000000005
0.11754276252215985,0.09527811442151324,9.76108670098122,0.009139771882527074,0.003920043814591249,0.007567986454624871,5.32
0.07248400926209868,-0.04892105589844208,9.859226751831407,-0.01293369885227992,-0.008029820437404517,0.017506443647625897,5.33
0.01747832425376392,0.05558311240724141,9.80575865323246,0.0050290979070849754,-0.008650308456818275,0.01798684273915804,5.34
0.07984501038333934,0.012674063309764375,9.79857499002854,-0.01964971010880895,-0.005465397872897149,0.006109138449989769,5.3500000000000005
0.03888341068466339,-0.003849106409241833,9.737279714428619,0.0018436108575535218,0.016070161547051345,0.00822128589430988,5.36
-0.01610072484243428,0.12106571839541701,9.880977050480622,-0.0006983900471077533,0.010092704287581009,0.0015788318592223098,5.37
0.016993547480611576,-0.1951418467959376,9.82452409827368,0.007140482567368797,0.00647074265485443,-0.009861954409031435,5.38
-0.05369997957909446,-0.010238927342986053,9.721482893530444,0.01220729285350149,-0.0013845434127583256,0.020430573567397366,5.39
0.03962576095679146,-0.03184231841818395,9.814883851696793,0.0012626839094912444,-0.003338857362624384,-0.013021842409868934,5.4
0.08665833272156526,0.013891581322192863,9.794137871341444,-0.001691527816666177,0.010777371240831559,0.002245776627185844,5.41
-0.0038715609240190622,-0.03439265467665924,9.902731426344081,-0.0017732818789636814,0.003886974353878989,-0.008501902929168543,5.42
-0.02127354849916851,0.19068111769318055,9.5897334107411,-0.013796536245891845,-0.002418664338957663,-0.005755840136134184,5.43
0.1083750812226278,-0.016777673138134552,9.83914755610791,0.0006416771492996912,0.029350362962860352,-0.002449978594160119,5.44
-0.03561832027319065,0.04816194755752846,9.649596156631452,0.000220872645467648,-0.004758389238627151,-0.016516222695552776,5.45
-0.06973560185719324,-0.0889362458070093,9.749131695736978,-0.014838244769202702,0.011900827894432118,0.003098751444824077,5.46
0.2401655169955666,0.020803542591602355,9.97412074495764,0.0021394168301083257,-0.005761130442032382,0.012258370256230132,5.47
0.06475113785529413,-0.023969955812307344,9.772049257391393,0.003173679634616724,-0.0007695478659467517,0.008505428219742787,5.48
0.1345830160726433,0.008392234880982815,9.711141933895497,0.01569358198182781,0.0018459876492047207,-0.001890110698031573,5.49
-0.08673421270667517,-0.037982145604088205,9.72354958149549,0.013018824822790523,0.0070364842144851475,0.0021667714147810013,5.5
-0.04760226422854728,0.03204311792067629,9.859099673989668,-0.007603102790212633,-0.010385623910677662,-0.00233375936891924,5.51
0.0531304572004926,0.0317650095932626,9.752871922534835,-0.0006221935873562928,0.0018115571459142658,0.0030878080753702093,5.5200000000000005
0.2183020730573403,-0.013682257827865862,9.837532401226351,-0.020285147480364234,-0.0026153800721381033,-0.010886743677478414,5.53
0.1077874433564054,-0.016007936160541237,9.908251111678801,-0.00640560641487556,0.010836406906052002,0.014953487772254886,5.54
-0.015933389014261265,-0.11163865434668568,9.60899449351723,0.012934047467603167,0.013816743724772514,0.0010295469009268725,5.55
-0.15120316691674326,0.024654573333240802,9.794887354740732,-0.0032707562056536895,0.00864406889132477,-0.006548710121530406,5.5600000000000005
0.051874207058344425,-0.10797823454740912,9.93600607491995,-0.001915933141105717,-0.013842947325631474,-0.006373690805780397,5.57
0.1869780785293348,-0.10920682496363432,9.7339546237828,-0.005593327354016857,-0.012505774970571234,-0.005499729837401221,5.58
0.07731454707633095,0.16964607354951655,9.914522515293742,0.00761033332452832,-0.013684267978591078,-0.01510255366753461,5.59
0.1465952150323928,0.12196762628402885,9.945394639757378,-0.015224064185685234,0.006162453083630444,-0.015551968880220042,5.6000000000000005
0.014447835212838931,-0.15552351388902547,9.871249734647876,-0.012403930083155624,0.00016480827199574622,-0.009483843838884733,5.61
-0.046483870764654656,-0.020020189012664353,9.713012442630674,-0.0022310951057559754,-0.004808586652330338,0.0036401205396692535,5.62
-0.08156273406721322,0.13945905614621504,9.698770820329967,-0.003997541166067656,-0.006398959851715187,0.010846320334615491,5.63
0.04078516270115767,0.10311567386892447,9.814989444342768,0.014788655566046362,0.0034508015937918463,-0.005593977642309309,5.64
-0.08487580742567669,-0.13146856518415126,9.886537716691581,-0.004182706089615904,0.0168920080506156,0.014065251269302984,5.65
-0.033007076426136865,0.17585849033769213,9.616200300993786,-0.009158667746751645,-0.009034285098989278,0.008406487468671758,5.66
0.12205110215815088,-0.09895462769721758,9.87057494366871,0.012105831106735137,-0.002921911931609907,0.006306368506219748,5.67
-0.034522679075498774,0.07113885132613251,9.718663920207122,-0.015359671985043982,0.006953584539170787,-0.012689604390797665,5.68
-0.05125588699781874,-0.004716735339380293,9.840939223911937,0.0034020576076215204,-0.013838620438982943,-0.006692690360437506,5.69
0.040893233587451644,0.06251572761338622,9.721967806391039,0.014377156379233291,-0.008380913648132138,-0.0015321223562895416,5.7
-0.07029603082458223,0.07521593922832127,9.83717683369146,0.006222134029393334,0.0027215476586526653,0.010953224949505928,5.71
-0.016570248652191193,0.06693692042313502,9.743062941040805,0.006399607249527121,0.009631247645878159,-0.018919129140331472,5.72
0.02900610698626223,0.04837243061899974,9.788489223492181,-0.0047499464976309535,-0.016970885526849246,-0.0023107579968679594,5.73
-0.05535633730255338,0.033107521625848665,9.806226107041097,-0.00938507257027412,-0.0013918000500577718,-0.01347713230858884,5.74
0.13778811769429783,0.17027436125130505,9.95265669675201,0.0018447669285652655,0.008365746966358223,-0.015540258443473445,5.75
-0.170896343623144,0.17908821095668181,9.643332601011437,0.007162121927184933,0.008788098379841807,0.0012804965031594266,5.76
0.11082160600887642,0.12183429012007703,9.802157728799958,-0.012599153145600296,-0.0045970596231166665,-0.0009779214760168397,5.7700000000000005
0.17226718678867992,0.06010227137019106,9.962815992120083,-0.009665059418131165,-0.006811499614539099,-0.012081080479249648,5.78
-0.10489514362777652,-0.02806784996936067,9.843074944719078,0.023557891360295204,0.006749978530382727,0.008953888410434097,5.79
0.015556634966132066,-0.11744145733312945,9.949399066472877,0.005401391299822428,-0.009884543877689375,-0.012290389863860145,5.8
0.06238955258670418,0.016086192369401783,9.774985537371922,-0.020972540439212657,0.00036722144851283396,-0.006284059509461813,5.8100000000000005
-0.009760888965890504,-0.06536051232681019,9.792664696081403,0.008616649812231661,-0.00280097947106905,-0.008064244614718274,5.82
0.11517994333048168,-0.1509346793212544,9.65181661704477,0.0013523196267817641,-0.015480773782569466,-0.008155361101648186,5.83
-0.07567461289901409,-0.034658445228340745,9.71900636141483,0.0004600591127422887,0.018207512958474607,-0.016600929038941552,5.84
-0.05053639937959825,0.0941385065026118,9.869144895749121,0.002706345106246073,0.0017230184144256722,-0.025468405102351432,5.8500000000000005
0.029682025434139215,0.016823792677844288,9.797133295342691,-0.007724248581554955,0.006367504930601536,-0.00045578328790477237,5.86
0.0396675214262423,0.009789453672157764,9.835330780615006,-0.003495220482452173,-0.006861252771290024,-0.003595104998380808,5.87
-0.10274743634756672,0.04827652934395231,9.730719900639318,0.008940637769974,0.0030796625136029518,-0.005763654206651204,5.88
-0.1944335691726531,0.09100772894728443,9.79282818759578,-0.0042122522699225414,0.017300220501079388,0.004314705250352929,5.89
0.0669677154282139,-0.04312075582153195,9.946728655976816,-0.028464009294241432,0.006924213389238962,-0.013921281493201132,5.9
-0.01666341614581863,-0.2236405389040023,9.826338435577975,-0.007558925690812753,-0.005503808067893231,0.008788649217438828,5.91
-0.08881865822069271,0.10473619633095099,10.036791919771582,0.014777620762278705,-0.006964254940590489,0.0031432884881266833,5.92
-0.09292892457226146,0.07873305408578664,9.784725804433243,-0.011616169779381827,-0.00016087036729756866,0.010536508780467739,5.93
-0.054909478299397387,-0.0019118323919751518,9.748591952373342,-0.0021019548490943483,-0.005009450493707867,-0.008067020946787986,5.94
0.02468671745272447,0.12054051109986433,9.758171008523275,0.013566274008515705,0.0007319912927589543,0.0010134132611084427,5.95
-0.11651623439879283,-0.15623619166651762,9.956836279805064,-0.00900380520475325,0.010670135778281376,-0.008971438665090679,5.96
-0.04970452849902084,0.05824061629237538,9.765369918627227,-0.010363749046188213,0.004324769731568996,-0.009876887932605974,5.97
0.010438996950469556,0.022283919664489157,9.825909926941259,0.007277866611456657,0.0037412573286971095,0.0048906161641378235,5.98
-0.0962168895405687,-0.01955540662390559,9.857826177364892,0.0026332234079524076,0.008714965778966792,-0.021456511266100774,5.99
-0.06531372566910278,-0.10946191321071615,9.694009442179276,-0.01965095049329566,0.013012662805557063,-0.0030452762568428417,6.0
-0.10506397520600136,0.1921547198681974,9.976307888970334,-0.008061182864583207,0.015361455853249476,-0.00288757362055251,6.01
-0.143161009971132,-0.11389492059321871,9.798100293007316,0.013285034763407118,-0.00983891681333114,-0.022278922816758168,6.0200000000000005
0.10411783044682321,0.032676848946876495,9.815355717446753,-0.003779443791935,0.00654664113918172,0.006605255097784416,6.03
-0.06735914094520505,0.061572105264307314,9.781335312924352,-0.001263204894724657,-0.0003673687727297869,0.00544418781980878,6.04
-0.1478684405710178,0.016640235908123635,9.690408425050615,-0.003290521791157341,-0.026299651900085312,0.017322843196961656,6.05
0.0837103164560774,-0.18416420955593796,9.5771757506209,-0.013106225838907548,-0.0005940045133001097,-0.0011231002154276316,6.0600000000000005
0.052261674038330166,-0.015120582994859355,9.861480040762498,-0.01158707494048566,-0.0026157035612103747,-0.007065926796430012,6.07
-0.12732502346678695,-0.12972509633385,9.796012802162037,0.015529973237268265,-0.01804364016289058,0.002154130069968254,6.08
0.014460196239174418,0.16961991062791493,9.80113168662514,-0.0037312428866337344,-0.010484960371190224,-0.006682707839594046,6.09
0.016694484007077983,-0.032091891050198655,9.81956707607171,-0.00016053854063055893,-0.0007265103210494054,0.011109246003675891,6.1000000000000005
-0.010281287985453831,0.07166782328921392,9.875388249717783,0.003458658238910377,-0.007439106838442787,0.014454371402146213,6.11
-0.05594138438631702,0.05904272625049687,9.987992203951631,0.010807298572507363,-0.025344894755751954,-0.006944721017967522,6.12
-0.07836447889277304,0.14550551220956495,10.06897876397089,-0.002634935097920162,-0.010721273151294883,0.00315732812840103,6.13
0.09620870467561914,0.08954363465010559,9.686395264199746,0.006420797670578752,0.002582027636717045,0.00417750151034994,6.140000000000001
-0.03740888054616938,-0.1810429276825703,9.746860940377944,0.00829892526676964,0.0006197692126094772,0.004332831431732219,6.15
0.0040193863029472825,-0.16566839958515048,9.879221200773046,0.010294736196788794,-0.0013175609279883055,0.011196559751593584,6.16
0.01521445013030312,-0.16723053058648632,9.715181290809523,-0.018413631275917934,-0.02620200181008231,0.00963107222153169,6.17
0.12349544639992543,-0.12311794497822758,9.890900493335895,-0.023850818746842313,0.012475418406572503,-0.0029856580894912044,6.18
-0.1812342479029834,0.09950568069810872,9.856739014843425,-0.011724064977699898,0.0032955243093002145,-0.025221553961288414,6.19
0.07405402333827904,0.14441764896792367,9.809572262664574,-0.007143188038773085,0.0003915222042407162,0.0008883051746629325,6.2
-0.0438711113051905,0.10048462396940674,9.879898956600648,-0.007495726782982501,-0.0014540076999486748,-0.012972801590706224,6.21
-0.1677345225767308,-0.09305240909923178,9.875648138385063,0.008180257817124722,-0.03126936905665918,0.014280429506094419,6.22
0.06530046812344069,0.10572161895784281,9.549825929850751,-0.01785382339639446,0.01250154444058202,-0.007541745748691996,6.23
-0.06768941447956614,-0.19262648600231508,9.876954049994511,0.006942911580410283,0.018113219952434523,-0.0029727389546039848,6.24
-0.02578147620082071,0.1316490861777498,9.822220926339554,0.011475112765058384,-0.005494574276845779,-0.005057915286271146,6.25
0.021052918159566954,0.10106117558483307,9.83977976437802,-0.004583092051065638,0.005425169566985398,-0.002436184783990418,6.26
0.09288025125170389,0.02420335063719826,9.92619334174573,0.005595287769098586,-0.0007299965475370712,0.003297956963157412,6.2700000000000005
-0.029716345706235398,0.04630546807188202,9.673626532441395,0.0010962352700551905,-0.013415530642024718,0.021919540361070192,6.28
-0.07511904252964553,-0.14521826441596694,9.76987470789218,-0.006963207163106693,-3.100045118238647e-05,-0.010360668631994982,6.29
0.09085609170128965,-0.08897767239901955,10.055964251077576,-0.007605307639017943,-0.008956577337784466,0.008257341344674946,6.3
0.028655013076023417,0.06522243621488216,9.859798696132684,0.010400039243844299,-0.0064168014997041355,-0.0026656633074243837,6.3100000000000005
0.1099165740055566,0.07042443257514112,9.711605511139805,0.015105600981328017,-0.011989887122103677,-0.014115396029282854,6.32
0.19945058208716934,0.0727784826154399,9.65595564307927,0.016358795893396415,0.006334357355043416,0.014722883602116783,6.33
0.1145710803028238,-0.027046567730676697,9.585118565728502,-0.009602791107380005,0.008969515078294608,-0.021154248189363203,6.34
-0.0628433419554921,-0.1962028072518578,9.692899079519972,-0.014458957736973714,-0.005459851651720356,0.0021616430714804127,6.3500000000000005
0.0853229826461363,-0.1489433025023232,9.958911652673992,0.01482524402797113,-0.006697481324178244,-0.011300289249450531,6.36
0.09241358248068186,-0.018086776493683426,9.806407499587953,-0.008030738374228266,-0.004185010739041072,-0.015818009768798862,6.37
-0.13806197846586588,-0.1664722238251698,9.750650463561307,0.009729987444848051,-0.00021510133152951086,0.004808954281116347,6.38
0.06734608785189737,-0.037160778417284664,9.752842491486586,0.012922131499708323,-0.007526950497104417,0.0013438088684062037,6.390000000000001
-0.0644432925705818,-0.05983419323115258,9.823116398382938,0.0020710894015053736,-0.009793262780068647,0.004550076769533212,6.4
0.03597204267402967,0.08862642114615839,9.920188199440874,0.006164310417803148,-0.004613739906084249,0.01051124221274018,6.41
0.014079686822331922,-0.028273385207125325,9.723562169090348,-0.00099722849997306,0.002760832036388898,-0.016417608795277882,6.42
-0.026448235167695757,0.1213396515683761,9.851865325743955,0.007077788259422072,-0.0040200718591044075,-0.0012779320519008205,6.43
0.033870405383487893,-0.14569023491784622,9.822898236548099,-0.004617498186841488,-0.009571487462387075,0.007917593646599939,6.44
0.14256170974345364,0.18176825954843712,9.931098275207042,0.0023671696345142143,-0.010276428779474142,-0.006130203540481187,6.45
0.10635011521509885,0.022596043478064237,9.725792564681,-0.003073918110098784,-0.002830613980645929,-0.0007007059482164235,6.46
-0.07173038096566851,0.03376403298915167,9.835041047674569,0.015983221303595137,0.002237726041224864,0.002529614305584783,6.47
-0.1534609982140144,0.10953491786541306,9.717977128862797,0.014743638912626032,-0.004955590739939516,-0.004178040255932853,6.48
-0.06470269850157671,0.11164328404924223,9.812856055309084,-0.01795404000949284,0.0010503456558839178,-0.0009316828148231779,6.49
0.05888501481528413,0.07759013473328069,9.948495531979372,0.0024060910105911932,0.008593734083952228,-0.0015280198790320755,6.5
-0.01733399749112349,0.02785323677940764,9.72406132472584,-0.0009804885261284458,0.0028758516416181206,-0.005644616117310057,6.51
-0.05836684132011705,0.00447338658441942,9.60782147017049,0.0021697976623088235,0.0012803385993708288,0.011177424712132502,6.5200000000000005
0.11211371218758813,0.1950995466970527,9.770092854819922,-0.002367159946365652,-0.005538063898493332,0.0032749624966394823,6.53
0.005951770474548672,-0.006682066705465253,10.0146873490568,0.0030126637248005686,-0.010039763062421334,-0.013049584541520361,6.54
0.13117926573066338,0.015017787008220929,9.785661821626526,-0.0003849743096631681,-0.005881089354621676,-0.009908071215324905,6.55
0.03309761169718857,-0.08881212950675103,9.775945002974742,-0.01473998026569043,0.013063244345731846,-0.0046218174798096775,6.5600000000000005
0.0342800617403607,-0.048779355260665624,9.832539555533476,-0.013649624573691349,-0.015095183285998124,-0.014614592334862661,6.57
-0.020892544558738846,0.13143129412863339,9.681450393493636,0.009884057740292803,0.017164096817603045,-0.014121649861081803,6.58
0.009710312043526584,-0.21763580686643935,9.821179003253658,-0.007650735905647026,-0.01493846914658191,-0.007899445248206542,6.59
-0.10590668197600817,0.10422488085157905,9.918347609967158,-0.006801116963661056,0.008746159103523906,-0.0044046900280087795,6.6000000000000005
-0.15559189320823785,0.011428996161812975,9.840401979165309,0.015922068312563403,0.0020432449231143827,0.005833049485509479,6.61
0.044821102282185395,0.045069442081488185,9.868379418002418,0.007416618973865227,-0.008574843511568078,-0.0005710384878303073,6.62
0.007989786835486934,0.09188063027660684,9.800139462933528,0.0051089632796381,0.013764578049858199,0.005236744369026929,6.63
0.04638575799464533,0.05019323225636353,9.78738547026968,0.006182418224377603,-0.008222773601588039,0.005424090590354834,6.640000000000001
0.05442199598115093,-0.11155365869373501,9.781625762523877,-0.01307034963589013,0.009322113682650585,-0.008904031443570411,6.65
-0.09800922697549574,-0.020418524099056482,9.903156876355117,-0.003239368025641945,0.0029986897125900804,-0.0032904755239484525,6.66
0.005517711735938449,-0.04897082030347877,9.742561983263865,0.008422665834230418,0.010398478265786364,0.0025789694080734747,6.67
-0.06431679608863713,-0.010110192635457633,9.87001824045431,5.35840486889384e-06,-0.007954271412352746,0.0048475957436342025,6.68
0.07023534467805848,0.02147200577067966,9.885596032600201,-0.015538086976989756,-0.0031211085322593824,-0.0006156803306063255,6.69
0.013799975416265481,0.08367555188128467,9.9269727217198,-0.018991780880244415,0.0044531864704111974,-0.0005207646367283147,6.7
-0.24700027866915733,-0.10183064746720692,9.588365636429074,-0.01645476722454422,0.007834476237488756,0.009338009016958887,6.71
-0.13994133421047278,-0.11210011440007686,9.761003942311872,0.0033791474686335745,0.0008178505821923166,0.005405268953619978,6.72
0.04906275149286291,0.08276871007617326,9.761624575388844,0.00635935989527349,0.008352575700179046,-0.004500818848063265,6.73
0.12111095994273709,0.21008454388048392,9.630422912950577,-0.018924773843029288,-0.01086024881774791,-0.012356199640854451,6.74
-0.06600866141461756,0.06061406384005616,9.840694050914422,-0.010680986836090365,-0.00976694452649386,0.014769798805365058,6.75
-0.07841944014880911,-0.04043105497973363,9.63312145574592,0.013982938501728125,-0.0008839492103496541,-0.007473868134150538,6.76
-0.18854159587678732,-0.15446950878780494,9.786067473445602,0.005088662895288485,0.006291863376704343,-0.0015790064682607446,6.7700000000000005
0.09783490342179654,0.0690611257441146,9.726971897391435,-0.014031237054877781,-0.008948353964268142,-0.0013010092536889046,6.78
0.09527840247303046,-0.03186310055585662,9.718087224404643,-0.005910698527919359,-0.00017415459304986476,0.004236619504322314,6.79
0.009019341643230322,-0.06664453033608345,9.821031245253259,0.0031200690831001223,-0.0002639272952224657,-0.004029052705269718,6.8
-0.029787191332684978,-0.006495714688643701,9.822421840739144,0.007270610743285268,-0.009257904785450534,0.014720284659630883,6.8100000000000005
0.09705888447204782,-0.014005324072471221,9.716621455153495,-0.004018484120234364,0.008155289964178174,-0.0027192276463458864,6.82
0.09531081450842871,-0.1216026770305847,9.902873299405464,-0.0017734654794606419,-0.003451777039111841,0.003462399793043155,6.83
-0.1497084749876133,-0.07822185930134483,9.843961108876936,-0.008931491627506245,0.004714060118018911,-0.0042417531570836655,6.84
0.10347435873052631,0.049644904402524725,9.698898818696934,-0.0036115520846951234,0.01802795012804372,-0.0034960943955458126,6.8500000000000005
0.04002304559795309,-0.014991346932256176,9.923951254398997,-0.006110587174430149,-0.010808900533871506,-0.006197068960708723,6.86
0.15213992361454884,-0.07304738697033362,9.831034655184974,-0.003965725379575299,0.005832380355042549,-0.0006236142028144835,6.87
-0.025512324505935477,0.06849556146897356,9.74769935980113,0.005329289386335323,-0.005030665100811793,0.007559510974954065,6.88
-0.15037071051825657,0.09258828381909233,9.930991716002836,0.002447681907948265,0.008311382548196682,-0.007012040065220071,6.890000000000001
-0.15006015015338844,-0.16166476874306157,9.798030392877457,0.01182014033556264,0.009797008904119962,-0.0046322335665284885,6.9
-0.025696162917222834,0.11440044317437344,9.805496232601316,-0.002764666653386063,0.0007749767980170845,0.004691169179224563,6.91
0.1703305413400339,0.0975145787343171,9.792766927949078,0.018743315013796717,-0.0005049820644790934,-0.01647546085324897,6.92
0.13394974931113576,0.040775382405005084,9.825118444622076,-0.010640322278221185,0.007912227051263676,-0.012294171305488995,6.93
0.06275129095714385,-0.022532158809887258,9.66844586061833,-0.016291180745300074,-0.004351492072476183,-0.021170700468552416,6.94
-0.03887586428984331,0.026533580275193366,9.76172963000563,0.0034798644649134615,-0.0022662963408654163,-0.007238748939209429,6.95
0.037958705686348224,0.23865021841771053,9.687742774802993,-0.016575943580895952,-0.02594821360783618,0.0067295491283364695,6.96
-0.025282799444910155,-0.1979797639590197,9.800991887806202,-0.0005033048054276121,-0.008329675781605546,0.0075573964441891985,6.97
0.05305917269886032,0.056036837097726666,9.883438591978402,0.018343774320279994,-0.007479504161640775,0.004486483461644816,6.98
0.12497235649580596,-0.21832668494783328,9.77896765184894,0.015525844082902664,-0.006223997299246659,-0.009020879067109645,6.99
-0.1086467372249371,-0.00999123582460412,9.988348568277678,-0.0006584198348029782,0.0051954097923083255,0.006078371073196708,7.0
-0.13883159433933537,0.0898363483118208,9.58645889452967,-0.0034932691822337847,-0.013923183131896057,-0.00531582651936856,7.01
-0.018733062431191837,-0.09748141070519671,9.791349337275024,0.004308883245412683,0.008757793874758895,-0.02152673867886932,7.0200000000000005
-0.02366801655309847,-0.011443632586157411,9.855069684189749,-0.004391898759353077,-0.006973744329757139,0.002061364081935888,7.03
-0.12953332347134977,-0.01455311202600427,9.794264332178967,0.018610713818090374,-0.010496167684452972,0.008595895682892044,7.04
0.017522023952446272,0.03939667934196939,9.65475695988746,-0.0029793807532754527,0.009750545887787085,0.001282599182428619,7.05
0.05099724636826215,0.011954570158573279,9.789144205595196,0.03606238953629532,-0.00025183126750199483,-0.01637077795820746,7.0600000000000005
0.009838194625454806,0.02837880790042079,9.879278592297943,-0.000650118484223452,0.011659080944665452,-0.008378120910887696,7.07
-0.17086374598430043,-0.06654237629795781,9.78182739829633,0.008366318761622025,0.02112202738549093,0.007508883805006592,7.08
-0.047859263177653495,-0.023787177330318186,9.91077299604069,0.0005692110269214513,-0.005195849423431236,-0.00024130736497566355,7.09
-0.22644844153232807,0.0662450491619247,9.802613735196825,-0.011379681111478433,0.003986651362737685,-0.017701358561680067,7.1000000000000005
0.143878395828027,-0.17112297294955797,9.852818685421779,0.0002427029335909688,-0.004684627059996749,0.026155887657355565,7.11
-0.051572768939068994,-0.0400324278214836,9.782925047558626,-0.0024770793118580802,-0.004927073365278966,-0.0017231888449125295,7.12
-0.06364152014209098,-0.02021886311041811,9.830185690616672,0.00504013147847345,-0.003151955882738826,0.0021027887119883233,7.13
-0.010965000589350604,-0.14714572728796424,9.972895330427258,0.005466386136210363,0.023778238122116976,0.007131415879269487,7.140000000000001
0.13163680738708913,-0.04374868823392414,9.924987773145999,-0.000568651944633343,0.009145079672760032,-0.014049376466299751,7.15
-0.10139451580477164,-0.06170777251999335,9.98403144213542,0.009869896378140666,0.003427863620602635,0.010020295539255953,7.16
-0.083950049111836,0.011436477264890893,9.60271149214947,-0.004478975698153094,-0.017579314697737557,-0.003785623635186874,7.17
-0.01512825733389111,0.04317064937195226,9.864898725617852,-0.00936397560874808,-0.002278680761179138,-0.011933868636357287,7.18
-0.02538810295083471,0.0014476226403400496,9.996609385648545,0.01316498111792456,0.0074713943961835965,0.0038709059000485704,7.19
-0.05960550535981836,-0.07890077125068286,9.573691409800977,0.0103611507405698,-0.014879810840513475,0.0066507082886114455,7.2
0.06611511673465963,-0.1400373848374975,9.760965857490165,-0.0034981903985646474,-0.017132909397481008,0.005868651820370684,7.21
-0.002992109880002612,-0.10649416540749511,9.756728336615572,0.014770248984952966,-0.002259681499366987,-0.003606978682663109,7.22
0.014401346637479183,-0.025137724456094586,9.82942048615539,-0.00011187178761065271,-0.010492521260474777,-0.010623075536577643,7.23
0.005257391063782664,0.024467899535122423,9.913321105419271,-0.009755131356029548,-0.0025692165328149016,-0.024791349262113682,7.24
0.0003186730465845918,0.1007413239176531,10.093096688272984,-0.007052335343608901,0.013522926447360886,-0.005861811642459207,7.25
0.05597680671392968,0.01754960564849661,9.814738156260503,0.012367680831439461,-0.01880967009853643,0.002122647369219573,7.26
-0.019256699332285514,-0.13090568651329101,9.802893549568005,-0.01749850101211646,-8.993843473538858e-05,-0.002139435703813469,7.2700000000000005
0.11937034024888604,-0.10248578075236636,10.04130736470354,-0.0029314296391545237,0.0007930692280459084,0.002474279741843522,7.28
-0.10849783967049652,-0.0679159549178736,9.843220115593839,0.020114268839721047,-0.000810398145367128,0.005118154158713273,7.29
0.02609756672872515,-0.07954858487016334,9.621660312803872,-0.0005774729511690943,0.0049531236309411095,0.02006739061495962,7.3
-0.05890589983630019,-0.05100221730594928,9.704534793969,0.006060281622200696,0.011886546275759458,-0.011776599610524583,7.3100000000000005
0.028730102899563376,0.23047583655273218,9.85515027668962,0.019835410087647266,0.003574508196532609,-0.00020798861977197253,7.32
-0.10651023206936674,-0.06059230378987716,9.851510764613991,-0.0031347867828818575,0.0006098396726337759,0.0009548552926514065,7.33
0.0016842153220911317,0.030507024260764848,9.835308438728584,-0.012197369165437316,-0.012484554960625054,-0.010900548113431245,7.34
-0.0034517317031838614,-0.053294366018015765,10.014110671886058,-0.004225790850751087,0.020690553738587702,-0.013563484692880282,7.3500000000000005
0.0576858486502893,0.04874533574226243,9.621112434738048,0.0037767880037192915,-0.012190743829720924,-0.005429589792372711,7.36
0.027018075611991484,-0.05367171528399574,9.69527868064956,-0.011143980239013106,0.0029645871702925564,0.009666710836672124,7.37
0.04326945673923664,0.05018816961268923,9.79232682121315,-0.005534238386125377,-0.00020691224742113261,-0.007255940380486237,7.38
0.022429065089975487,-0.029899475915211512,9.81857010376167,0.004194408199395472,-0.0024357975613040366,0.006501214852868527,7.390000000000001
0.026029154106394045,0.020524929497990806,9.836397255791761,-0.004712846536464117,-0.002044425954814628,-0.012018117144931069,7.4
-0.0606150172151296,0.20714252323926413,9.71119948265804,0.006542494343818817,-0.02275021222362751,-0.021601235127941876,7.41
0.14025516082898518,0.037853193065368995,9.77533462549053,0.003567862167981778,-0.010401144739117399,0.00907157622178062,7.42
0.008141086938461427,-0.046466135734498204,9.774323566818708,0.01568833535440622,-0.017598857908695028,0.009721792098926787,7.43
0.012412723119157436,-0.03174528548339249,9.904126598358463,0.027281636141902852,-0.00328102618726066,-0.0003610275791129797,7.44
-0.157662223576308,-0.046411457414059776,9.962722939896825,-0.001986270713203634,-0.005181023303058389,0.017355739482424633,7.45
0.042376853041733185,-0.08531677719847353,9.588050113991605,0.011317652462264887,-0.0006796129697850335,0.004111731944874331,7.46
0.0280547684519607,-0.18860938886626166,9.943503466801586,-0.003878527806665554,0.004884034555211733,-0.005193802079065393,7.47
-0.13423956307130722,-0.07440842818130408,9.945661302093672,0.0029339314432662196,-0.016833657072031948,0.0025694222503958642,7.48
0.05131205328621377,-0.06144222467228508,9.86339828080643,0.001392731265930758,-0.0027878950097245244,0.013971092379954314,7.49
0.2386189895389483,0.13001724331437045,9.871914754049165,0.01048841787013441,0.015704421718450226,-0.013532047019688085,7.5
0.03620370719184798,-0.15172501271345323,9.80548290263571,0.010061003875005572,-0.02964301152959593,-0.0028276927444545862,7.51
-0.23717953329882813,-0.1299088379948983,9.906298661894336,0.0030905985185767947,-0.005703052070694542,0.003937215215679314,7.5200000000000005
0.025144937473128362,-0.056371620325653786,9.783676131670164,0.009050209452316132,-0.0026222716536989012,-0.020792914061985912,7.53
-0.12441083791862245,-0.06892891879180899,9.716517233750599,-0.006127819948040335,-0.008507710802721273,0.019135981629814856,7.54
0.007099201632819427,0.004498883442637227,9.885381722387967,0.020316934825658616,0.019774724901060615,-0.00325693407612696,7.55
0.18579668835073426,0.08845314843344797,9.898271319526803,-0.0027492759739549326,-0.0009768515316436782,0.005905590784294757,7.5600000000000005
0.03591247186983216,0.12283629588485712,9.882676900370745,-0.002738967805036151,-0.011267769048574842,0.015181573647428821,7.57
-0.08345617759427106,-0.06416553975721662,9.88498736813971,0.003027958270152311,-0.013679208393952882,-0.0008926652974510056,7.58
0.04372938270362261,-0.12684213636035324,9.554982839695109,0.00655716418534961,0.006058382951688024,0.01605647469447814,7.59
-0.04538989121957224,-0.09035569554591162,9.69521322908995,0.022647369571253947,-0.001628346337500557,-0.00738311743441367,7.6000000000000005
-0.22130272123006242,-0.1310752456281035,9.737859914464533,0.0130334223911369,-0.006238368042788154,-0.0098885262758719,7.61
-0.00035914360055757505,0.07556142003865063,9.84920372951975,-0.0019318870747386321,0.0009949557518206071,0.0025086466946485013,7.62
-0.1644245818879911,0.09863232848633512,9.689978912231219,-0.010054017886509217,0.006650183225034344,-0.004887070468083613,7.63
-0.2470886861998161,0.030583588122139356,9.738449604513319,0.004919540819101091,-0.015087392618859568,0.011047500409433633,7.640000000000001
-0.12209329443652434,0.0888343470960939,9.829751704759115,-0.0033399983586380193,0.013243343370976015,-0.0010186024738316837,7.65
-0.04838054207654533,0.025433961736806954,9.780332134470571,0.007253394704649426,-0.03343030059454665,-0.016635388784485228,7.66
0.11519245495300597,-0.007655810897055615,9.873276101429823,-0.004758493092279012,-0.010717648483226474,0.009605007590310913,7.67
-0.08569103502194209,-0.12083723374574447,9.723039509489503,0.009905778005558426,0.013663195678364812,-0.017018738450746567,7.68
-0.040469615848960486,0.0194801672055896,10.028810440260273,-0.00174300900779721,0.008083071587765145,0.009685598462031651,7.69
-0.12135562595385443,-0.16211263064201897,9.945715988878074,0.005700092431929031,-0.007960837244101982,0.017295916356544795,7.7
-0.12123241502797318,0.002414486377535264,9.95277103148794,-0.014621071490481983,-0.016422376376826045,0.013424544234895294,7.71
0.11478154965111578,-0.021442729112348857,9.850595974998155,0.0008935223246964179,-0.004366048495880566,-0.00277474486852771,7.72
0.15338222843805338,0.11845384852399075,9.996833165504599,0.0001890785720629021,0.0071684675679066084,-0.019230568846992018,7.73
0.0037322530074208483,-0.1374256774903116,9.902863925882876,-0.004222390331744579,0.006345554759406732,0.006147937518489924,7.74
0.08555725300330579,0.048079930210419695,9.922759891392293,0.007368322818220528,-0.0019240226598178096,0.0016430490454549993,7.75
0.03807516415476615,-0.05052453347975081,9.743322485755971,-0.012703711141298542,0.00420366973899933,0.022531013802950188,7.76
0.22192550285686938,0.13730150775409022,9.909297906456766,-0.002428687120711864,0.004961875818097761,0.005392255843930086,7.7700000000000005
0.06301825582302731,-0.08034024868806339,9.776077703900633,0.014597831048622866,-0.0014148654166981475,-0.008964433006306926,7.78
0.14980294068563466,0.04223233142238742,9.903872994105123,0.009479400820726284,-0.015056570779910537,0.0013787154933689873,7.79
0.02659138252178783,0.010586539134885792,9.942009159526926,0.001996705203424544,-0.03256108790861927,-0.002767165209273594,7.8
0.006297315962656916,0.08044012476431005,9.896133223274164,0.008911591748847822,-0.0022264503364777207,-0.004424725732586466,7.8100000000000005
-0.10841698357227679,-0.11484891603681674,9.81522773857224,-0.015212310064870858,0.0031429385738006035,0.0068935567848343775,7.82
-0.08574087315140289,0.01548316166396991,9.692134534676454,0.0067213177051244554,0.007707195064595428,0.013118139591392002,7.83
-0.0902415941702988,0.004045501321922317,9.62560706872749,-0.00981205212289069,0.0011291784472691297,-0.01086693796949942,7.84
0.10018711950019543,-0.14833623279285177,9.94120870650262,0.01568896694054364,-0.023155515703971598,-0.015182124829913367,7.8500000000000005
-0.00011324415279024717,0.05861197197852008,9.788719429778329,-0.006250079219227703,0.008392156176954041,0.015760819886327267,7.86
0.13259248240282728,0.04376853502650477,9.80307864342922,-0.003862185705340738,-0.009402484214148172,-0.02031357356340741,7.87
0.0685403665523494,0.00988823342595289,9.79143472577944,-0.0001809497617552568,0.01558242978143072,-0.007310008994916647,7.88
0.08669347491708601,0.05488603179966653,10.013009472624466,0.009236624499781644,0.02120688280895721,0.010514185934600791,7.890000000000001
0.21134613201898206,0.024265888450357823,9.828230443016794,-0.001411494552066088,-0.01941154190720223,0.00333015177490167,7.9
-0.0970718413590726,-0.002678387859298817,9.867135493986874,0.008249511415686996,0.010475153406548605,-0.0017618296244932832,7.91
0.06670505748254471,-0.012581783363082275,9.624461374411169,0.028315833378836072,-0.003406843955510146,0.010613010029045971,7.92
0.1373020417744488,0.1156299449865398,9.666356608354402,-0.004500555768003607,0.001133323880113981,-0.02276198987910446,7.930000000000001
-0.09096487731310897,-0.1409022245707791,9.90827896268435,-0.015235470079362821,-0.01009090881558722,-0.0004996328319529078,7.94
-0.07035833437175126,0.012073062995449177,9.95817050536458,-0.00694294510319005,-0.0051778932763080565,0.01453097751547189,7.95
-0.0912516213365754,0.15729640453874214,9.696475257637976,0.006099968008276871,-0.015130281157300925,-0.003729948109252025,7.96
-0.013865975988958754,0.03170128369128561,9.893552455560776,0.004032713414047815,-0.024176683374863492,0.0010000596191433312,7.97
0.055555670028416375,-0.051042505743074874,9.708768597058727,-0.020990805814516757,0.010277156920676194,-0.005194494477155968,7.98
-0.12382440964529096,-0.06198756298705126,9.790062526209006,-0.009745016108602338,0.0035100945703882276,-0.0031067672544991894,7.99
0.04635749423303178,-0.15778030931945597,9.844561444181029,-0.005088914720351753,-0.01369255682546495,0.007982341309843453,8.0
-0.02381346957338326,-0.04954548251861765,9.85057324029851,0.01097564796787827,-0.0021119851304483043,-0.0027526257440707988,8.01
0.05743928140499896,-0.10482235732109627,9.80774050700222,-0.002258197317475807,-0.00998157706512583,-0.0012913103359203455,8.02
-0.1134470460719445,0.12185255027168143,9.95544566482175,0.005888112232054916,0.01863563205681055,-0.002905225519891522,8.03
0.13228031663474646,0.02422827410578276,9.780941147148566,0.005357115890209241,-0.009658010534763234,0.0011629684088183855,8.040000000000001
0.0010602694939752294,-0.03827197634244,9.891158178914763,0.01916373804300914,-0.012870302117363288,0.011605644597182035,8.05
0.00444474426323764,-0.09760153132249424,9.889050880575716,0.009014318515571326,-0.003430787719516265,0.0035513720014519762,8.06
-0.05242048149437289,-0.0707798567853721,9.792100774962389,-0.007962222281132013,-0.00025373726060476983,-0.008701974374804959,8.07
0.05425455018938047,-0.10913631713517398,9.651188424524562,0.010380074955029938,0.005106358254114375,0.0007058980320014415,8.08
0.0065687191613704315,-0.0745345632961416,9.762898451777012,-0.006332355241207514,0.0073438754832852475,-0.004032074303479904,8.09
0.010696231967027176,-0.09601298318568292,9.87505342780506,0.009304621570140583,-0.00213518333455477,-0.012345127538559578,8.1
0.01486265505596452,0.33434979644912466,9.683096585334537,0.00909430341304261,-0.002006795864503461,-0.003086355932535203,8.11
0.039537072511505976,0.08031037346138512,9.758603806190248,-0.021373170264850635,-0.020190459230801032,0.017515243492954646,8.120000000000001
0.009861122181856356,0.05375672549489672,9.856681977385014,-0.00980705152333443,0.0025544025297157104,-0.025993452363550645,8.13
-0.00195984713585172,0.10951275192502714,9.948008194562311,0.01609926528834716,0.006012388827398689,0.000904573753580321,8.14
0.11268867559289193,-0.0470434933615056,9.64646609251682,0.009927980470480798,0.010040384434755847,0.017915196564174767,8.15
0.25180813196997454,0.009594240577056755,9.963796995998793,-0.0040021647052150494,0.0018872814558347423,0.0042665469896763465,8.16
0.12273607348220737,-0.03268395859736092,9.875545819706375,0.006738412789127286,-0.01025328793352402,-0.008735802427349818,8.17
0.06674366582150626,-0.05276944330084779,9.751926851403718,-0.010866263736993858,0.0024204696114876814,-0.011061740931275613,8.18
0.06943947978839071,0.030022213638971115,9.864445450487581,-0.014646075230983912,0.005559531547248938,-0.011973340268783652,8.19
-0.00983980057419773,-0.10808997727631256,9.856566363056578,0.003171395120601374,0.004642707145079039,0.008788258651756508,8.2
0.008070522263738547,0.02354219870993218,9.759712022174623,-0.0010443466651788367,0.004575175758122119,-0.0036409570838359558,8.21
-0.08872216165357097,0.18100177946259297,9.895240976926308,-0.0024746802481339807,0.003191293651443438,0.007875404015717269,8.22
0.026026595507288277,-0.09720852766202485,9.748130358775185,-0.008652766840092432,0.001213684796315681,-0.02640376184316241,8.23
-0.03513521297644885,0.08521770793842982,9.788003558465956,0.0037297573021795594,0.0039795018082661344,-0.018197411965144183,8.24
-0.011816724902299713,0.20143165114997627,9.86696985728569,0.008386152957620909,-0.0017872813592421802,0.001980415767602856,8.25
-0.035343961885992696,0.27007463802073733,9.760028081975124,0.012826778602234735,0.009706278687910023,0.0038850935471936112,8.26
-0.013228180275047892,0.19186448134424938,9.806373547859327,0.004154659887130147,-0.006727323112084911,-0.0017713670785621805,8.27
-0.026120196939388864,-0.048531318611969576,9.814894915668619,-0.008235640726867421,-0.0009594209384899544,-0.00979151544581227,8.28
-0.03186498317187044,-0.01208412240376696,9.862879423036558,-0.005482992043077552,-0.01661886530014193,0.009402495567748264,8.290000000000001
0.011021859577742422,0.17174396465043792,9.708758992594602,-0.004393459737588039,0.001879855558703003,-0.008190816299849423,8.3
0.005747082892568571,-0.09649888911647325,9.731982837647669,0.0003833305797931077,-0.009100551775637301,-0.00020658189226515576,8.31
0.0954843271665179,0.1585376446124335,9.844692490243084,0.004888850639734564,0.005908204650844747,-0.010403774016540902,8.32
-0.013890510051603617,-0.012017610342784634,9.535692711989014,0.014389092442148713,0.004723850448992247,0.0036092975895394286,8.33
-0.05734735848120229,0.1290099235841019,9.753207864048505,-0.010176140060296181,0.009688938459781395,-0.0004941544196785947,8.34
-0.028190111671843772,-0.07686152840272505,9.867186545220653,-0.0007597451552131164,-0.004830850872187731,0.006256549815785776,8.35
-0.0024611277678948953,0.004453201653112246,9.864103952946593,-0.000554036453869373,0.009092383955227963,-0.0027172379864072345,8.36
-0.014815345036627315,-0.2255489425456225,9.700390537904998,-0.010437662700196837,-0.002870443938608031,0.024999268588313677,8.370000000000001
0.06764274488735646,-0.1246113048189309,9.88441680349208,-0.008701553121562618,-0.010854557885060344,0.01227103323404613,8.38
0.031543801030705115,0.11530173050782014,9.915086477174189,-0.00195046338577965,-0.006147718385625745,0.006707754130160817,8.39
-0.010940161624204183,-0.015328954403509142,9.785037959099393,-0.005908146766547975,0.011304307367744076,-0.011670145418604252,8.4
0.06069008993974746,0.054848712953684035,9.740751341399772,0.025826572022822777,-0.013379204258189234,0.00852678254618819,8.41
0.021313979779765978,0.047416107516367906,9.742504036650784,0.017271544547972265,0.006599147030656,0.006243241605618725,8.42
-0.06519665711576914,-0.19549154382165956,9.85918875857371,-0.01422326884890554,-0.0032503985156501457,-0.004884504309967463,8.43
-0.08695038380279665,0.2982220803344078,9.857309072832516,0.006801934492002528,-0.015820744677225614,0.007193302208856852,8.44
-0.07229875179690846,0.02733773056286138,9.744008001225044,0.01277211497590748,0.0029536637544204697,0.0039585469537638815,8.45
-0.23514293551858795,0.055112609454484034,9.919354399952534,-0.010037137871263209,-0.018229864003291338,-0.015304572088357839,8.46
-0.11382848969376941,0.2412268636875631,9.934774019180134,-0.0018929704699024482,0.0030470018114059946,-0.023288519885252202,8.47
0.06007613798499124,-0.006610993657916341,9.664419280087339,0.012796042272528492,0.020758293193589766,0.0022506652898835887,8.48
0.08548949308364094,0.0023685118232765565,9.659133445438048,0.0031382216943727555,0.0027095122502222057,-0.0035285281649427114,8.49
-0.024391323548530595,0.050328557500777485,9.947933436229736,0.002443190444573313,-0.012496556137731327,-0.014918960724432773,8.5
0.19830625559064363,-0.1682483023779519,9.708468625042226,0.000881156646245366,-0.0011538265796131569,-0.016318930886820526,8.51
0.2724995280075944,-0.17424223793942908,9.740208061507929,-0.006199272861262416,0.006066086134082347,-0.007111134069409248,8.52
-0.0357676032303755,0.018475760327463554,9.78957099543709,0.01753691178803193,0.01080493759947598,0.003971949774101625,8.53
0.07612356437063345,-0.08283814975410937,9.832585141110432,-0.013249306862318105,-0.00955447833441553,-0.00570778083094602,8.540000000000001
-0.15331424195310808,-0.09811963961751154,9.682192345419278,0.004568726430620741,0.006807280910133938,-0.0039263482151361655,8.55
0.05556571136946867,-0.15432501961077963,9.654226701331009,0.00035131896184665114,0.006693942416133583,-0.01351872173583353,8.56
-0.032473842451956,-0.006350950715741906,9.857790442107259,0.008004476919532934,0.00984637685577972,-0.001631375821749037,8.57
-0.22115345288405203,0.06575901497041935,9.580598927470641,0.013938438365772687,-0.0007787782239303176,-0.011280934841099592,8.58
0.08478259872303959,0.059532533032784954,9.761844170917021,-0.02653320222269815,-0.00308410800889397,0.014141593032231057,8.59
-0.0027324595133076243,-0.07831729886548905,9.860840935164488,0.006467758259935645,0.002212257021964029,0.0037663177063747546,8.6
0.16453871286206087,-0.11566069281826932,9.537055513660912,0.0028119277384639377,0.0021279897128736675,-0.006694242870271933,8.61
0.07009633708507984,-0.16425240569701827,9.916459604044501,0.017543768212848,-0.020699392727637496,0.0032456351114907244,8.620000000000001
0.19261605571271784,0.1377040421964036,9.764040550526449,-0.005044860090168,0.014699225730615812,-0.009035215747127383,8.63
0.005699296359021813,-0.016417369019912493,9.771527876985592,-0.0077170461386655035,0.007076115789722229,0.002945406433307372,8.64
-0.07127445615747667,0.022570237653289218,9.68241591747943,0.012079129109940806,0.009066937561699349,0.00913901972985466,8.65
0.0258936613827661,0.04780274400736597,9.683531596330544,0.009661048059148455,-0.0079026144559892,-0.006314867702741732,8.66
0.1169549068439349,0.16137365083799732,9.777587117805426,0.0037017871570035267,0.012803001749022642,-0.01720091579608964,8.67
0.18372986194376276,0.04628929024498758,9.67278153313291,-0.006878601353074191,0.000742214345317713,0.00626218692689912,8.68
-0.15626756019110596,-0.0314576911163428,9.916755887519285,-0.0026797532422649533,0.01047279364088886,-0.0023231415044617375,8.69
0.22841644521329943,0.10056731429560213,9.850923258692935,-0.011898947674634156,-0.0033272419731790897,-0.008423586920092343,8.700000000000001
0.014366213674955648,-0.009469083252717662,9.76613223547066,0.009386446721448257,-0.01067371445016885,-0.005455526266051593,8.71
0.1122567179106526,0.0026741616165600283,9.957579417366881,-0.00032810483175867334,-0.0177096810622222,-0.016608167672538414,8.72
-0.05826827797221262,0.13397783349454082,9.801094250855497,0.009957089481323489,-0.0009861273737263034,-0.008302310491249557,8.73
-0.03621080429992681,0.09177559252633127,9.9392548776605,0.013842512564678973,0.00120318889098427,-0.012687939875754816,8.74
-0.10906430948375696,-0.13462185328891751,9.690288207398941,-0.01743368587459238,-0.014618260373344861,-0.016034963379992485,8.75
-0.008818784340126942,-0.08816464557860054,9.805109111312401,-0.015714912787743725,-0.0097084430114535,-0.029654262613378935,8.76
0.09945600813718422,-0.022957833871331892,9.738650675850918,0.005592562697583898,-0.006043426142839141,-0.0007370468383389456,8.77
-0.08715249483462705,0.11436090729650719,9.843401621215113,0.010909442094670629,0.020275096278941813,-0.005441620728916339,8.78
-0.08299662219004254,0.024499545618967066,9.739273840726808,0.002708501392458888,-0.02774644749469695,-0.009556080394174288,8.790000000000001
-0.060058393955509964,0.093785517387903,9.706574075909316,-4.5598999413212675e-08,0.00804754327200525,0.01336113979338511,8.8
-0.05315855198458831,0.08541679289912514,9.704872132977655,-0.0036342850565929032,-0.00030148724692686315,0.009182040691973703,8.81
-0.013714689642444003,-0.04233442820677461,9.910822496763096,0.0013999095581889835,-0.003243161610376377,-0.0017065026884856298,8.82
-0.19656292826515323,-0.20051441861404357,9.87058119787062,0.01066995717756982,0.003058530534920261,0.006882307001077055,8.83
-0.06607828445902168,-0.04837022133244091,9.885252051950415,-0.0002570558936571343,0.0039778116007961216,0.004332482507670367,8.84
0.07656260903309124,0.09038163756005385,9.672372243460611,-0.008632639493816678,-0.0009648995763195001,-0.026150667536366554,8.85
-0.10383944002655635,-0.09160734825159504,9.832747321814159,0.011005380181634366,0.0031803891416426104,0.013925585334320773,8.86
0.05716112995227858,0.1348801858538998,9.700491979669705,-0.02347772214406616,-0.008443824775414853,0.0075875912973085375,8.870000000000001
-0.09773452339919884,-0.10636174464492054,9.903374144379017,0.0030497860946052673,-0.005381840055293954,-0.01926292845825812,8.88
-0.18377832479119963,0.06696605931612422,9.909189279694814,0.019647240729883806,0.008943977155309738,-0.005797730311926459,8.89
-0.045317595853613626,0.035270911839834516,9.723466404113534,-2.4629603432476267e-05,-0.002344063336625225,-0.0018490373079168409,8.9
-0.056093763827793054,-0.022831729588686865,9.761409685973199,-0.02626821640257177,-0.0010037390358478826,-0.00465795461398024,8.91
-0.04196189866830949,0.015862358988607068,9.973280839730423,2.1636060176749825e-05,-0.0023208750152302646,0.010284499139253596,8.92
-0.04112266272336753,0.10832472622651311,9.804631192898293,-0.0038530110052823552,0.0057598196373782875,0.011478357314203795,8.93
-0.052621817043664025,-0.026268243957393335,9.883807746463933,-0.0007702993523985963,0.0024260320781807664,-0.006574066518087634,8.94
0.08172798988770123,0.21856661855329973,9.779360535101672,-0.0017405611465454488,-0.006315260022735046,0.025728263680242062,8.950000000000001
0.11507611443213615,0.0443578477911693,9.733690910066885,0.0036990427141692173,0.010049425157139332,-0.004893586450116029,8.96
-0.050630224886015845,0.03154235165919742,9.598870402097235,-0.0008223289460112884,-0.015966720103520873,-0.01511282190643,8.97
-0.049461713217446635,0.1475119578946433,9.985730067865145,0.010363047356915865,0.016574133662354922,-0.009616691445594265,8.98
-0.12721768258008626,0.10754500589542491,9.88018351632763,-0.011142949886037468,-0.003986846123153287,-0.0010718307622970523,8.99
-0.005781614687750445,0.1674482141134773,9.878274835677072,-0.003655371517597041,0.009778892347799904,-0.01221558731859703,9.0
-0.022112528708992565,0.020181432068333782,9.835153944284334,0.010740753726513922,-0.01077466071117992,-0.005989911102003463,9.01
0.025096224646338677,-0.012454513063540701,9.914260288240127,-0.019467381710999782,0.009331653146407276,0.00848048094981347,9.02
0.1935280867301701,-0.14051605176352108,9.56968179808615,0.014310308421877574,0.0006928454865911789,-0.002283479303628483,9.03
0.046068859639347245,-0.058690757714729175,9.693093767923841,-0.0009549954181965941,0.005403767914095844,0.0013065733920481224,9.040000000000001
-0.09138570739751749,0.0759058832155266,9.750133270515647,-0.017026492282337782,0.001886520525820607,-0.006681385708830495,9.05
0.24360645535631817,0.11707745168456828,9.679078710412456,0.0035117254403438537,0.009904408030477084,0.009688404554173937,9.06
-0.03215693848383888,-0.11391147143130975,9.892437182798806,-0.010924827548569258,-0.010778565142894228,-0.000685494410928721,9.07
0.05978588439376257,-0.11437726107826776,9.915476222812625,-0.011764351486864857,0.005839621612108836,0.0033469334983907487,9.08
0.08408228758321455,0.018931035377316306,9.744776477146788,-0.004075625356065911,0.004024872115180047,0.015456559867355177,9.09
0.0022362681537892947,-0.02008241413098964,9.904265230911763,0.008084923504480198,0.017149193971247655,0.009705569100664953,9.1
0.020554459798010766,0.020553781928561173,9.758914176016654,0.004553869119900514,0.031059344054978136,0.018113014641770345,9.11
-0.07430338061207893,0.10176362428207171,9.714758171947858,0.0031957340732161783,-0.010638522071229877,0.017426300153810872,9.120000000000001
-0.0015381188256733671,0.004906600606058546,9.926716653986134,-0.010760580893008229,0.013052705207050888,-0.009170047548740455,9.13
-0.017378479127156864,0.02479557894647925,9.81660136403223,-0.007252124744931425,-0.003305902681424071,0.00472289851067896,9.14
0.026977372729761157,-0.008652429815048561,10.034774044846136,0.005650642031449934,-0.0013812587337251165,-0.008064651380097848,9.15
0.07600482891078986,0.09846764119649469,9.899190711811794,-0.00707032077136551,-0.003475831961544931,0.009285904453999195,9.16
