ax,ay,az,gx,gy,gz,timestamp
0.050517522511056914,0.05562914617512689,9.80014273684565,0.0015809340190231097,0.0028058617654611777,0.003286883230474219,0.0
-0.10920761362896224,-0.03187653921923963,9.837432218046619,-0.007096567715298369,-0.003276751749354872,-0.0034685347037248944,0.01
0.013273343476546113,-0.09828760481166546,9.772262919708448,0.0036105392717640985,0.00960552402523068,-0.013640507512872437,0.02
0.14280953440528785,0.13177028398620072,9.765212513663323,-0.0049510169299263945,-0.012563959733465104,-0.018228850880335393,0.03
0.10344978044530675,0.1419854679210095,9.670723891691484,-0.00787120737945236,-0.014757017785936175,0.019277346322349523,0.04
-0.09423771197865442,0.013102418420851691,9.65098622479605,0.00897078692905331,-0.013642556552136195,-0.010274614294549178,0.05
-0.08296834323787344,-0.02760412726003776,9.809833143332474,0.0038870765289323295,0.010722066088038978,0.0011134224350887987,0.06
0.09517628768156827,-0.011596300142012123,9.843306433725223,0.0005401908380569893,-0.00034667707640745007,0.016205322530311553,0.07
-0.0033685659795769547,-0.0350533507913971,9.799598995338004,-0.008059342886160377,0.017720830426531383,0.005525861035089,0.08
-0.00407964581717023,0.07903819146605134,9.82511645089237,-0.0048061135578587166,0.01835193428374908,-0.0008463356445740171,0.09
-0.1069563003630859,0.061970390918623976,9.793487968742483,-0.0018462261129445284,0.01308274133208055,-0.009315824091999643,0.1
-0.19686956323934535,-0.08635424446761988,9.82410366311545,0.0038788509729923842,0.0037663208018143446,-0.0034974535343374846,0.11
-0.08290286292663077,0.03406368494094645,9.901071146894271,0.004248230305813781,0.009722753522101174,-0.015482036756570526,0.12
-0.10253474496704021,-0.04243966567275254,9.88417257640558,0.00820267979682807,0.014407573482126644,0.007215617035396694,0.13
-0.13435329797378603,0.14142429450191302,9.817355664033288,0.0017328596046510614,0.0031295429966389527,0.0034708152781606507,0.14
-0.03601539277540033,-0.009895719753433493,9.78415879593729,0.008330502824891567,-0.0067178573239757965,0.016173297000171824,0.15
0.07169974655081385,0.1532697374845603,9.872747355985453,-0.000221676138137719,-0.010219748835435853,0.022168218940021914,0.16
0.14984379925289104,-0.0962622632810729,9.688043891361703,0.011257412676653323,0.004952011781101196,0.02280708605994527,0.17
-0.023231967118082848,-0.032294483936179265,9.826767675465764,0.015735531268506714,-0.006988125108775418,-0.002516039366613875,0.18
-0.024900143713293785,0.05204293794858377,9.862235870178155,-0.008733936211622682,0.015328918551768465,-0.011384564496323591,0.19
-0.043781397720803264,0.13932494509828128,9.720759102656032,0.005874360610819434,0.0008091024234644545,-0.007227061071711162,0.2
-0.023825732411442698,-0.0012266091881670128,9.810125253932009,0.012237976675399989,0.0026558906445639393,0.019393013741574993,0.21
0.14262202854263625,-0.12227779770254155,9.803519080014778,0.00222824462635263,0.01402300843002199,0.009301686282211776,0.22
0.04320861627787037,-0.06972852957538599,9.842769959136517,-0.0015111077889398646,-0.013125176105839092,0.00663301452224342,0.23
-0.09958258931338004,-0.09205112945264737,9.77902134659259,-0.01048926563792179,0.005092613173494208,-0.011378478121463366,0.24
0.022635064055207633,0.026549867404059263,9.858213465745314,-0.0029448908880325172,0.01785599879633485,0.011906438166344298,0.25
-0.07138768259997307,-0.13029575137416924,9.876775331012448,-0.004691675387319119,-0.019271048887945313,0.004376659862727264,0.26
0.14276179667492567,-0.07032871438906713,9.940440228018604,0.0019350326411545072,-0.004279924851033217,-0.018458895883927438,0.27
0.13305509143566202,0.01747837724134593,9.880590805820663,0.005922982398272281,-0.0166771574779311,0.002571030721867849,0.28
0.07315171084500302,0.12686967196111004,9.724640557566776,-0.002809538875386539,0.004538328092988861,0.020513681918854845,0.29
0.13089900507576419,-0.12120565846685355,9.867320057402425,-0.005301846863085983,-0.009645921186573666,0.0024704384654662273,0.3
0.14353498705926834,0.06074012628437231,9.817297583229838,-0.002749855377830257,8.037978556471642e-05,-0.015487208902774548,0.31
0.03899236987635032,0.017298562492699978,9.76841673149028,-0.00653003360309942,-0.000805062056814162,0.000753659840689704,0.32
0.07329324321401601,0.055597871032783734,9.70936524191612,0.0028139030193093943,-0.002845565245528899,-0.0064351426921677845,0.33
-0.04774610010077634,0.028677838857481083,9.866870815299002,0.002388135921232779,0.005600612680005678,0.006912682489805228,0.34
0.1695278215470524,-0.06792351127902481,9.856059978673617,0.008886638680802608,0.0035511707784029005,-0.006872225283430924,0.35000000000000003
-0.12599650385660338,0.04930173107960056,9.855717672141203,0.00753330682869156,0.008657253757226945,-0.005812684283511388,0.36
-0.0668524051787801,-0.007357504079482423,9.761031991114164,-0.002541885020493333,-0.004650158658732309,0.0005258152354497759,0.37
0.1471427632348139,-0.03016094701123854,9.809110130775363,0.010065530171954445,-0.00029151389744520417,-0.012496470866587093,0.38
0.17385964985361815,-0.17703942439658968,9.946263215401464,0.0015095870172828385,-0.004807141403837019,0.012772261185407401,0.39
-0.00878316725078929,-0.08582357069374655,9.611231356809174,0.018712612603478476,-0.02042705568133669,-0.009537375250336336,0.4
-0.12652180945056757,-0.08892831923706028,9.750940912951581,0.02270124533417622,-0.006590605818165919,0.004303590834900174,0.41000000000000003
-0.06710370620471975,-0.02759009079406867,9.863379152731214,0.02419076747261404,-0.0037612593727666304,0.014994283192071196,0.42
-0.20013937539563484,-0.054732269025560255,9.70810866622837,0.0006072186856191286,0.00015732133155742947,-0.012029424273899898,0.43
0.23067041502313923,0.1797824838551322,9.752440540935845,-0.009830606609086643,-0.013066928513388873,-0.0022234697461317515,0.44
0.09220120312126313,0.07486108199147465,9.840230682443984,0.01649448759626719,0.009593617772471067,0.013828683752548752,0.45
-0.01500586772432956,-0.0926036148028815,9.843555700105254,-0.008513780628194636,-0.008945662428249242,0.008004348861557414,0.46
-0.1554329781558775,-0.09967266524577004,9.796030814495488,-0.0038514633854685692,-0.0032296191246076363,0.005600541984566308,0.47000000000000003
-0.14142090964866505,0.11302667522855224,9.770517711579215,0.014388523753196769,0.003536147327967281,-0.004744847055138279,0.48
0.07217113513327424,-0.08804615842689067,9.675247910144286,0.013455921010668932,0.0034618578544628065,-0.017500527059989054,0.49
0.10599594311511816,0.0017537346870791445,9.652736204825109,-0.004710821451149067,0.003901648144051056,0.002402501161774843,0.5
-0.10061574744092619,-0.09823428359250383,9.785657903699095,-0.006920443272815715,-0.003926171654697521,-0.0025965049301176573,0.51
-0.1990494746042999,-0.04406128648714447,9.865956148106546,0.0038098602246481755,0.005664286275066651,-0.010265512619452416,0.52
0.0124861917802106,0.02058435340091599,10.031232742932932,-0.008169389600409882,0.009099538610198903,0.008474517861861009,0.53
-0.10490289489400298,-0.15255742803124023,9.758501068521875,-0.004437586489498093,-0.004796389077414639,0.010748240483606434,0.54
0.035612224604012616,0.14755603003670445,9.740664907062577,0.0025251287277540534,0.003524724120046658,0.012931671898139421,0.55
0.20191755779230905,0.1918093210138173,9.825475894885319,-0.004989374991395042,0.0008160777489242491,0.0004130442544336656,0.56
0.02921638547618903,-0.26151869070320655,9.880096498560933,0.015915371265923305,-0.016898804440955685,-0.012350122198484888,0.5700000000000001
-0.17352628170166381,-0.04502474373254496,9.830692178116873,0.00249754366154747,0.007027547912843253,0.010659026627324614,0.58
-0.03666421276702177,0.14450172108513293,9.844628895867352,-0.005285940507170659,-0.0045584804736424995,0.024036270470302278,0.59
0.05630310487403722,-0.1355565549419255,9.922062056508576,-0.0026206095410541224,0.008024296477415956,0.0017332801231385426,0.6
-0.16269807913954085,0.16216490230700006,9.928013459509376,0.001091834119276366,0.009197732343176376,0.0010521924174847343,0.61
-0.20331113449518112,0.0254361444247868,9.809265582645981,-0.012217097359581593,2.6586554284951155e-05,-0.00538539562204914,0.62
0.1612866759879168,-0.0887483304513102,9.706964216609322,0.0138172547275788,0.0037300074632792136,-0.007621628184813275,0.63
0.07834958130203497,-0.2508415299807485,9.877126836611666,0.011688660613819433,-0.015394810602781762,0.005790903134938459,0.64
-0.27158738771170454,0.0393802016779711,9.735196736422832,0.006527773066625213,0.00969066212724208,0.01929026375811637,0.65
-0.09276103626911364,-0.08943060103698725,9.891532242893968,-0.004743272762120262,-0.006889750953038128,-0.011657032496418408,0.66
0.17855610384972462,0.1095776076403142,9.87136944906187,-0.021636606359250722,-0.006334115688920779,0.005312985551601213,0.67
0.13883852756662052,-0.045123744950395714,9.74429660727912,0.015459878665676188,-0.009474204307499842,0.006059040019043952,0.68
0.026664646397061176,-0.11008679951655993,9.734324301896455,-0.013173576398786326,-0.020593921238732393,0.013719991001533134,0.6900000000000001
0.024454233517679627,0.03679703935888186,9.637853495850115,-0.003913013844245949,0.002077992096776758,-0.0016671037160976216,0.7000000000000001
0.12924206441868424,-0.15336527951621703,9.843318374579205,0.006299860580052774,0.013365774376301329,-0.010571759858993843,0.71
0.1149736383818389,0.139298870159417,9.88299996559896,0.008861650518652805,-0.0041726004849671205,-0.0017047149250469854,0.72
0.1414023462903752,0.17165850053547568,9.849458375932231,0.004521153941932719,0.011604974577228882,-0.014283089128056795,0.73
-0.16481303258462954,0.04619590530173028,9.926355472851752,-0.02067372796269759,0.009366448306959681,0.0057578436499878365,0.74
-0.05312973156212375,0.0920953902630353,9.619630453920303,-0.0035011287966652737,0.014718255983331133,-0.01167711572281077,0.75
0.12157632125601568,-0.060667397831197234,9.912953815224226,2.759652100356507e-05,-0.004293667846553971,0.010679467517075969,0.76
-0.059118483233817624,-0.1193654116518635,9.888991576766939,-0.010235916074723963,-0.013859388748489668,0.004183929720076732,0.77
-0.07823781730694251,0.16755763983779154,9.895157042484602,-0.013975150952407634,0.0021644101788161484,-0.020462612334576198,0.78
0.046164381229163776,-0.18954530191934918,9.91774395506515,0.002271521086867713,0.014656859662408917,-0.013113314602745634,0.79
0.07461479472862945,0.06893203734398333,9.772972311800032,0.016063429008990892,0.0014404942355696587,0.0005245958070524871,0.8
0.12927858920199228,0.042906501887908684,9.913904939926315,-0.0007880864283501569,0.0081798356447842,0.0030561911998066805,0.81
-0.0759200276476878,-0.007471603662026778,9.862502033405143,-0.001271962568146098,-0.010605784004640252,-0.0011152643118540703,0.8200000000000001
0.10044193792890421,0.15779912863338852,9.911981323919024,-0.008943945225863698,0.008705429553128634,0.025241520579769205,0.8300000000000001
-0.03141442885032918,0.06861484485544139,9.960928335132925,0.018442143665762613,-0.010527775447802035,-0.01999180080987143,0.84
-0.05105473530971216,-0.07007053537378823,9.684902297383971,-0.0073445830597631025,0.011104016319837056,-0.018204689657471552,0.85
-0.1431470986661828,0.16321518787853778,9.880201838203904,0.01345058327056483,-0.011282408823460993,0.0008900774804617368,0.86
0.018130776566933113,-0.000148119657663522,9.69521882867139,-0.007583998589389383,0.001917308622959787,-0.0046269880919102046,0.87
-0.12634294384893932,0.07939792792351175,9.84517493893957,-0.0014769350115772964,0.015050955847729875,0.011858533345016633,0.88
-0.18151704587749548,-0.0583690084185613,9.730528695064736,0.0013622540552432067,0.0032542351692253653,0.0016000731116162467,0.89
-0.052458498379234546,-0.08298893538711764,9.935203612906244,-0.005603052513887326,-0.015169277163109559,0.0011883368976749213,0.9
0.010969701722248109,0.011114569130804285,9.912553409260966,0.0038961279699174386,-0.005099987622292122,-0.010756769821215062,0.91
0.12626296484238916,-0.0008623553037871621,9.779725687484776,0.007743903661914071,0.00695443381726242,-0.008411961556744549,0.92
-0.1435493149275533,-0.04779174578302908,9.920467723940236,0.014920254386769964,-0.006037904562964317,0.008236489954041606,0.93
0.058080260646920234,-0.2636419353282758,9.86572133249474,-0.02047302866475507,-0.0045928216972436235,0.005634653965142057,0.9400000000000001
0.28153771594298166,0.14062947661374287,9.784888572104176,-0.001506292429778697,-0.005200594643315789,0.004293495864451114,0.9500000000000001
-0.20959860172348344,-0.04616879274840966,9.72788004699143,0.013707420715974002,0.008015157730372518,-0.0049496359857102165,0.96
-0.1449009633666611,-0.0065640680428748835,9.767585917992575,0.008044528165401122,0.00181887918381095,0.0026914184289278924,0.97
-0.023178969680180458,0.19198779258002507,9.877558633388452,-0.00018916264869364908,0.002680694275243242,-0.02620139093703178,0.98
0.05998109451826279,-0.02512730839354814,9.680839124848871,-0.008047297788075695,0.018765977041987302,-0.004472058772139455,0.99
-0.05917806135564253,-0.010752291061122719,10.014542384076465,-0.0038357497801102943,-0.002024172279643739,0.0008145805252277577,1.0
0.21143633830701997,0.10458462621562069,9.721189985403695,-0.016251310305319896,0.0006990588706840646,-0.0027010585982733776,1.01
-0.09249555532209924,0.10985087770275591,9.936748459426438,0.0009426058249650173,0.011880242168633499,0.00635819767244559,1.02
-0.14306983014188646,-0.01626125225408649,9.922177374004164,-0.002957621405694999,-0.013381100865315035,0.0013226070595224748,1.03
0.02041358613780017,-0.14263740308339068,9.76049376175113,-0.00844586886456611,-0.002196235624875146,0.005258187671643095,1.04
0.10447920850814968,0.08365680512457045,9.811790000781496,-0.01590866864277908,0.000749208696000477,-0.010579686937273623,1.05
0.07249791699082908,-0.12034333971968217,9.774257417852393,0.003206307544942757,0.005903762481689203,0.013683818920504628,1.06
0.016374122736031817,0.04160546780759447,9.611698607014786,0.022211852521623495,0.005891061708897304,-0.018017420364859312,1.07
0.08618839955793679,-0.11274818016254862,9.74250331078446,0.007378264659135344,-0.0020210898919873306,0.010619971515779326,1.08
0.05169811368877606,-0.023617513023359057,9.914395738651368,0.007986408638558394,-0.014295194417947696,-0.005675365961974258,1.09
0.0006482390681994939,0.03096021825813269,9.86426944428888,0.005742319254658564,0.010764308670189413,-0.0011712402703446092,1.1
0.08598547166234993,0.130026326068381,9.858588711577347,0.012972434534908199,0.020464471829652418,-0.007658567655406776,1.11
-0.12230493458345744,0.05304281803315606,9.869231552629417,-0.015998147673109125,0.0011740417647392058,-0.0023257532377573414,1.12
-0.11898775459553995,0.10195147699109115,9.886799271071187,-0.016948156111246553,-0.0012253204243155458,0.017957482280679646,1.1300000000000001
0.0611434295300225,0.19214887914537337,9.88599814092276,0.005617742333969937,-0.019572497733698728,-0.01664642011201289,1.1400000000000001
0.004963535030863473,0.13049318985909178,9.95373318596572,0.002445246757818142,-0.011355213147264254,0.008287217267212526,1.1500000000000001
0.15738654063970203,-0.09292616817479962,9.78073571184113,-0.015133177840353274,-0.0029819554660693304,0.0074605977124708005,1.16
-0.18196415440250208,-0.07541605338962915,9.81494725794793,0.012008336560579947,-0.0013235171298541873,-0.00588671165376227,1.17
0.03980096451773024,0.14398704580007582,9.57847578605101,0.00266738211545274,0.0027828631932433974,0.014873828860027449,1.18
0.19212430864011243,0.04738734996523167,9.80237685195324,0.002430176253981895,0.018076535668931283,-0.003743187638925756,1.19
-0.02266873004870515,-0.030906757738308324,9.75870585088878,-0.009667674828298283,0.008828584940513525,-0.009798010454826795,1.2
0.026300592246457866,0.1338576402246104,9.743618781322462,-0.001479523395504108,0.004968635766240121,0.007243687063568209,1.21
-0.02242077838465112,0.06152580296241727,9.818275640477488,-0.002619869569256391,0.008818673787701375,-0.009792418840729997,1.22
0.09735246369945139,-0.12594514174752147,9.8040554479763,0.014074433210759166,0.00992804732345645,0.006481856478041175,1.23
-0.08332625663744356,-0.1223921303268132,9.894182863403646,0.012514495638373898,0.011316924810604272,-0.014624683667385268,1.24
-0.052072780399473044,0.09643813554798018,9.958724485911594,0.005127387542913741,0.011259098275668926,0.006246394350546981,1.25
0.2516648014760305,0.034942263497445857,9.63304988261514,-0.009616600696621248,0.009513655244965294,-0.0012422380904921742,1.26
0.10167031923344294,0.006503476285964451,9.848288702238015,0.0037056953530556318,0.004227339052758123,0.0012524754553156954,1.27
0.05218918872937567,-0.07014450656064272,9.91995741692617,-0.0052984881056888,6.296512878564128e-05,0.002899330784792115,1.28
0.09297057864321111,-0.1244670345408427,9.742611206570329,1.8112689793832424e-05,-0.001469580069003875,0.005983646248999861,1.29
0.0020328854215580098,0.06711820933011806,9.693852578716703,0.018650230807826733,-0.010428711388023131,0.004909282596526494,1.3
0.08481116579341312,-0.08203776559692877,9.891554365788604,0.010517670659518195,0.001256685794242759,0.003959284165979772,1.31
0.013127503104454036,0.18422275212542794,9.815855150835098,0.00028579813889727127,0.0015560225061506568,-0.0011513058486698326,1.32
-0.062312226996645396,-0.036699604078288414,9.830969537916571,0.015055079558619443,-0.00019522560491919616,-0.016884074290635244,1.33
0.1653264215379585,-0.050914294027651186,9.786424395462978,0.00544022067977351,0.0028860483990825777,-0.010398209701723176,1.34
-0.04397200307812236,0.028939403838889384,9.661221271374096,0.012655859298193094,0.0072983042834225175,0.0037561740443401467,1.35
-0.26250795879325445,-0.056165823617126846,9.833496794538572,-0.00822690144855502,-0.004241470686281878,0.01083473891733576,1.36
-0.007268968543567119,-0.07638650868103104,9.855013069480771,-0.007107965041084645,-0.01177742969644161,-0.008968349773941543,1.37
-0.11643897735745792,0.1319876660028724,9.880025453623336,0.0030994246562940303,0.001395860244471538,-0.00523494813085105,1.3800000000000001
-0.08604377979666078,0.03949840295092372,9.818446085787965,-0.007410246925566688,-0.014002453233538867,-0.0031156882933832497,1.3900000000000001
0.07850410817680514,-0.002103602543367673,9.893523019814358,-0.008759585027776951,-0.009739374031781505,0.005280468634487537,1.4000000000000001
0.005435235420084686,0.025693190140331303,9.720047517447982,0.002005674229033734,-0.005827010686925399,-0.009215049277997987,1.41
-0.004154274807285838,-0.08534030280105814,9.912620464904066,-0.003903336893669448,-0.01871042340203509,-0.002489362526481594,1.42
-0.04672793572995633,0.09581178298454504,9.73011745208706,-0.021238048689525217,0.01223125791746728,0.01603305962658211,1.43
-0.15068735043803322,-0.05369288806101757,9.871825606884173,-0.00495088154882882,-0.009252344805333537,-0.004959527632802363,1.44
-0.14659116448751397,0.10623980779646264,9.852386174258317,-0.010365977406862245,0.00880254952731639,0.00013641419547440325,1.45
-0.03654749806168772,-0.1207077871710999,9.845830249901939,-0.004223241461440803,0.0071748283039941635,0.005656342236263306,1.46
0.0448434418377677,0.02053580309708397,9.682706453520623,-0.006096530448525451,-0.0006617491022962396,-0.010838337251673357,1.47
0.04678880924612416,0.005995986904356616,9.846368314891237,-0.00395866768836464,0.005245540836746059,-0.01378511053740937,1.48
-0.09373757751679222,0.05501762695902316,9.821193552799299,0.02022878184199969,0.00996168910436964,0.001557417308986668,1.49
0.04924977150625831,0.24469365019566386,9.717330275821334,0.0028584627110294024,-0.0007007205231609099,-0.003141772561417776,1.5
-0.05729968840089921,0.07016512406492297,9.735461287506677,0.002110309104896804,-0.008088914109455024,-0.004532580562136783,1.51
-0.07313434541948959,-0.11425072580731421,9.757485479294061,-0.007196800849169711,0.004791476651254207,-0.0045385762954549425,1.52
-0.07796513009638661,0.10568220436786678,9.884517341026523,0.0067955612824803415,-0.004510861196878899,-0.002414043648582189,1.53
-0.011465318636449914,0.06668131362930402,9.965824855179243,0.009714742554878074,0.013616347894158632,-0.0016577046040606815,1.54
0.009893714628470636,-0.03596784751937153,9.674397375244224,-0.01743409709085206,-0.0011432625797931327,0.012547027955248405,1.55
0.09653817208968661,0.027543718136357937,9.92773546715313,0.011426140426451476,0.002785399107245046,0.019392313166800342,1.56
-0.18923356085255905,-0.06743511654111212,9.69659536983818,0.005011324706290884,0.001769574658756122,-0.0019651744124493005,1.57
0.1066821023547995,-0.2494924104526883,9.777941403580375,-0.011788240081033357,0.007538785521898667,0.011983517102506397,1.58
0.08462811105659003,-0.10048192855050264,9.849170234480397,-0.004113980648055607,-0.010461915917343008,-0.004169741574414661,1.59
0.04387876970308567,-0.10154795235186938,9.852161195231396,0.011748482100269962,-0.008976220804337165,0.0036475892097447642,1.6
0.07582670530048294,-0.10939712255242103,9.818272619481265,-0.006977564977339722,0.012836010035480941,-0.0013866933601617527,1.61
0.0783517417680762,0.010043244135682737,9.712090200141397,0.01190478473393982,-0.009433777565055857,0.002278665723036482,1.62
0.05944465106901125,-0.0724594287678062,9.700869929929599,-0.018200438442146468,-0.005505735316562655,0.0031741290725546675,1.6300000000000001
0.05192852167979818,0.05877277917920979,9.809024792531499,0.0036206228992536884,-0.0009844295462837212,-0.0015409188485564177,1.6400000000000001
0.11649967361588741,-0.004536966560970491,9.84444516887059,-0.0024206803977704027,-0.004925887921283395,0.0015226490275164265,1.6500000000000001
-0.1522989715449905,0.10102957939506403,9.848446620029815,-0.010425517430178093,0.010490854895726097,-0.003942428886588583,1.6600000000000001
-0.24000590686036066,-0.12780313018532471,9.817321117284031,-0.014182702047180541,0.011382843807620547,0.008941957710929075,1.67
0.058775243429734725,-0.025047596184587392,9.706029997960744,-0.016223695495884,-0.0077109095449043085,-0.008213271389737554,1.68
0.010646736121342395,0.045473539491287955,9.84497977729683,0.004151764577755493,-0.005595127944689396,-0.004792700608936183,1.69
0.19942766328794204,0.05837469331470019,9.831097246175117,-0.009347815843199759,-0.0005589406398639452,-0.00870333485539024,1.7
0.0035710665641740507,-0.010625839159104387,10.046718373571784,0.002637610579283376,-0.006005186231310165,-0.013430506775199112,1.71
0.019981180781998186,-0.1716841038730752,9.952376631348304,0.0018135086078367516,-0.0035429686382650255,-0.003949833310268738,1.72
0.13984005712022304,-0.14780895134673055,9.763323910361823,-0.0068078479160939755,-0.007312542166760375,0.014357121474204176,1.73
-0.014839021645599632,0.067227729428882,9.858025435175783,-0.0015974565511458192,-0.009997943256233105,-0.0052587061127845345,1.74
-0.1354681060269761,0.07033287438906603,9.66343549817336,0.008774685897975509,0.014515097241853141,0.006477029832089926,1.75
-0.08080483100213176,0.10935690311444056,9.695474860681315,0.001494813774477178,-0.017990868953172826,0.011613454221015793,1.76
0.05651990341024685,0.005503106802154097,9.721587242993698,-0.00867991907380619,-0.0012544645988910785,0.006529316812763388,1.77
0.045425476515170454,0.060275736852468946,9.925482007508307,0.009892544949905643,-0.009013855187812485,-0.021841723457633272,1.78
-0.02501858789734835,0.048842053881269464,9.894493328011961,0.0006742236311733839,-0.009674311277277641,4.04587590566014e-05,1.79
-0.058441472493965856,-0.23283357682877293,9.834124878579681,-0.007835235964649953,0.005839850801787857,0.0035431490698498,1.8
0.04135002226432283,7.428534840359276e-05,9.749324021880406,-0.010403466658341557,0.005347286840863701,0.0008236800803030495,1.81
0.011281267873103944,-0.058153859879721784,9.770717182004034,0.005924528898075427,-0.0019436090119442904,0.0013954924360628635,1.82
-0.15074664284174621,0.03587238762533397,9.835218558205776,-0.008872306840884426,0.02839863801948927,-0.01144422866541605,1.83
-0.11343224341196684,-0.13811982385447344,9.85752906369233,-0.01961770050169814,-0.0220249899199596,0.010190212889251536,1.84
0.13709580702869048,-0.18492898069366812,9.876638201969772,0.02197181611158278,0.0038828342500584496,0.005691077519647936,1.85
-0.11862457892470094,-0.1520858730434049,9.811457904357754,-0.0082532653900644,-0.002475747859416718,-0.009998308887457641,1.86
0.13839512223123326,0.16506848621827042,9.682172464714094,0.0036705528768658964,0.011188880051177186,0.01789353133618207,1.87
-0.038463118971595135,-0.155232113248532,9.94064972389892,-0.006311069304470082,0.001668310389161616,-0.006044238263874494,1.8800000000000001
-0.022754537502755107,0.01842283386104721,9.846182690550979,-0.009281722188679406,-0.008233848305217265,0.002952683862934774,1.8900000000000001
0.03048706758504395,-0.1246910726375585,9.65451446895555,-0.0004439540637669771,0.01366791029315164,-0.004328283919339,1.9000000000000001
0.1971616271664579,0.0011628055029588673,9.684750722893442,0.018570764741113025,0.0009250438723248547,0.00983123349677447,1.9100000000000001
0.15137795158848544,0.06382435982775812,9.890748800069325,0.00845191378379026,0.0056466409542879304,-0.003494736412636801,1.92
0.04922830379857342,0.07485539513605285,9.598002440232177,0.0076926593110468715,-0.0004892601432226147,-0.0028999428976468605,1.93
-0.00258880596567773,0.051268897443574914,9.709282665588868,-0.0027133427569796214,0.003905305020314519,0.009666067587055458,1.94
0.09451547972846489,0.012424166798831439,9.857719492674432,-0.012317286115532346,0.017047625555697707,-0.0067570904590354,1.95
0.07774124831778828,0.1380130211287772,9.84345936493514,0.007238812677364811,-0.012275168387801514,-0.004764215511712572,1.96
0.015778912500170047,-0.0031024278412725313,9.984873983049203,0.010398134226932833,0.003102126698913158,-0.005475179525068852,1.97
0.07397842171536911,-0.014875209158198514,9.95695231718038,-0.004644525905867087,0.013646405658123481,0.014486629001989883,1.98
0.11037102573855195,-0.003321410520640312,9.893116733449792,0.0015217696972993286,-0.005109839346414882,-0.0033656176240081655,1.99
-0.02953189662698868,-0.014796593369977271,9.805713395846652,0.03266658436269547,-0.011747478455997346,0.004833773800911757,2.0
0.07491384170622908,-0.07305512739489672,9.814659139769113,0.007469067571280384,0.00338501522454167,-0.01337038669709093,2.0100000000000002
0.011211909273393592,0.030836397827619266,9.758598887808931,0.011896556931336812,-0.007654496174548588,-0.00897080138976226,2.02
0.04851203723955354,0.10587569242316619,9.880083120878961,0.017868207662536953,-0.008637416433314352,0.007267634427536576,2.0300000000000002
-0.20280851434549874,-0.03702312571885252,10.127785882657856,0.017041814513545507,0.0006125186647691935,0.00730010283499651,2.04
0.04103731291992049,0.017377991064127785,9.902095441738606,-0.009490541911688218,0.00017936486878929783,-0.0008430993110028416,2.05
-0.08282518815079158,-0.09533269499935372,9.860817169995206,0.006428423160475177,-0.01391615586794636,0.004735607140038594,2.06
0.010080286747163337,-0.056411643486717324,9.600759221843713,-0.010630943897071666,-0.002765913787548037,-0.010691526043179626,2.07
-0.13419337924615635,0.02607395627034577,9.926197005896368,-0.00625598688675198,0.0021605193619806747,0.005305220479455713,2.08
0.10581572601114542,-0.09633500212650242,9.683702842568552,0.003042542905414011,-0.0005768275524455343,0.0020790230480334754,2.09
-0.06833908546956961,-0.10078328997915449,9.866177956150352,0.004285890670060406,0.009056554536902482,0.0005728476506454039,2.1
-0.02928585211461209,0.042383174475102516,9.510553044768125,-0.010426596849784227,-0.006520381746191369,0.003909914158394896,2.11
0.14323311956246573,0.18707764565737542,9.886574264201428,-0.001038281873582449,0.014988850264968923,-0.010791238476824101,2.12
-0.1837322000714782,-0.07594112907526379,9.8728998703718,0.015337499139567286,-0.02257806054059958,-0.02332090374004771,2.13
0.055316034434866816,0.001652339562606627,9.552192802026944,0.001134895928800943,0.012684631893167103,0.003914325747300684,2.14
-0.10836134476943482,0.03945770774692077,9.88787363415412,0.004419766925542765,-0.009556238496190056,-0.008107937976223903,2.15
0.058819816449261354,-0.1559975220838949,10.080425866308465,-0.015939812853902325,-0.006724590693193767,0.024167160021784647,2.16
0.017061454648232315,0.05587255089534119,9.793259416585256,0.012677578615319221,0.005358244033296294,0.01146112492061578,2.17
0.14263675078011537,-0.02560080437737433,9.884475348650703,0.02386962716392482,-0.0017065968344282556,-0.0066592203524251095,2.18
0.15308608302582438,-0.006434490856738834,9.796710248491879,0.0051766964419872035,0.00016570025381942461,0.011216769473102196,2.19
0.043342610739988276,-0.11877772576695417,9.946809073426412,-0.006406025269800202,-0.016106216345448655,-0.007427683923961294,2.2
0.05341205715580214,0.03442043588822915,9.81019576445233,-0.009774885700022409,0.008335110118280819,-0.0033063812724248034,2.21
0.05901574213323688,0.2262585812474059,9.865587332365628,0.02186960275718648,-0.0009073735857526838,-0.001364953621282329,2.22
0.028777794189395148,0.05416045720684031,9.64490212536951,-0.0015738263189609821,-0.0005088357317553125,-0.020861506136671912,2.23
-0.18286043857516554,-0.06000306999845693,9.8068069413215,-0.0011558168104223326,0.017843471560177824,-0.005377777942634878,2.24
-0.10558217287199963,0.07487658257072648,9.807622986691547,-0.008295620294644743,-0.009252057182903202,0.00686459947942473,2.25
0.020099690511580184,-0.13057152358302096,10.03382613927251,-0.00935729551894092,-0.023026172792820942,-0.0071799196598993364,2.2600000000000002
-0.15786662645211724,0.020335145819608515,9.652630983675158,0.0020141533656720034,-0.009619488929858129,-0.01929087679154507,2.27
-0.16514402554959004,-0.09152026229047287,9.740760401990906,-0.0009876561237691422,-0.0004492715713512444,0.006495326085927941,2.2800000000000002
0.07371332180802459,0.07946015682231086,9.776392710547148,-0.021117464300627446,-0.010152926129066868,-0.009732849702668108,2.29
0.12187163863605606,-0.03971132240621986,9.93553493302751,-0.01680117557001128,-0.015366911396417295,-0.012824509277665087,2.3000000000000003
-0.10549230937633547,0.10550974519722385,9.865520959759436,0.01768448199644182,-0.003934294100045046,0.006819153700969143,2.31
0.055961555986571127,0.024343755811519034,9.8504585598983,-0.009105730635603682,0.005319791433630055,0.011165461675602284,2.32
0.24008973837954453,0.008254765172963243,9.785116379687308,0.008867522928349043,0.002486284320065265,-0.013637435330040571,2.33
-0.03236671280533249,-0.09261831521195271,9.893418721032187,-0.0024548374732596277,-0.019317601381132882,-0.005203925282895494,2.34
0.11922686665887519,-0.05637200626336565,9.963883423886168,-0.015278986579277126,-0.013123045596327598,-0.0010467729721049934,2.35
0.08005914734953434,0.19659794101336892,9.943578486621124,0.006933730386372818,-0.005447894687562669,0.004442575352060126,2.36
-0.13537742745752057,-0.07318837347216543,9.74884258601754,0.0006132690535925742,0.028215159201582046,0.008233427472949032,2.37
0.15502268019954846,0.11530984722901574,9.837374658343343,-0.0040135015223080606,-3.884370222136138e-05,0.005547140384692984,2.38
0.17429559844633566,-0.08356504678809702,9.91221519078519,-0.0022731256708903446,0.005897489844657919,0.007251694699520916,2.39
0.12752039953573777,0.041880861542504956,9.960597550995214,0.003958192119857014,0.005716840382995064,0.0008508381861782444,2.4
-0.05360099166758589,0.045114154890009535,9.880000778385392,0.004818045666363325,0.015426064284365344,0.0019191093101211033,2.41
-0.09430745300301964,0.06791696905398933,9.954436870552383,-0.012247848409837487,-0.005281424177660015,-0.0029631168543066116,2.42
0.0017563057748795166,-0.09470066965237509,9.528114296416712,0.009982538261016844,-0.0013363742416348926,-0.00031354128614327175,2.43
0.1996107217998205,-0.0684185488813021,9.629145830990423,-0.003393499626930002,0.002599935401854588,0.003089718152469351,2.44
-0.020867955569582625,-0.03491173489100283,9.857236390073833,0.004113520853532531,-0.008320252260016323,0.0018189510846485018,2.45
-0.007244332123758666,0.02812427780911091,9.792124880601413,0.005124668895464103,0.013021177733818513,-0.016331977318713043,2.46
-0.050124112589391104,0.13589721559599488,9.476849521098258,0.005498878418829092,0.007061718125749454,0.019590363319404773,2.47
0.055844329086931405,-0.12136917526126689,9.864858380907842,-0.0033049585001779964,-0.014366883988343815,-0.006590216768373004,2.48
-0.03974642905514258,0.03944401098612235,9.825780398868224,0.006242859883713913,-0.009340590738741968,-0.007082410763571483,2.49
0.062289756679846424,0.19218374532624857,9.98496435795859,0.0006600092012425179,-0.015036159031634076,-0.01877121904075474,2.5
0.0429288765656227,-0.056158567121438185,9.787475578566161,0.010958061478151948,0.0013614069813857065,0.0061259928273284135,2.5100000000000002
0.026506265951606517,0.03513256160675198,9.816306875128337,0.0026069100590672602,-0.0015288121723815219,0.004826117847359012,2.52
0.0887102615606345,-0.037531755754891316,9.866692528072338,0.016074327736376383,0.008741124588212147,-0.01659297143119503,2.5300000000000002
-0.016488455326340325,0.11003010415868253,9.767116731194582,0.01731312301942196,-0.009122593209884476,0.01220966095035384,2.54
0.15859801589336686,0.07523967405096016,9.882225377465703,0.00561211957182555,0.0005094301439979317,0.012582279890217025,2.5500000000000003
-0.007884741426724417,-0.09182986213802098,9.81865105981757,0.019652088890447183,0.0018844562729562798,-0.0008395576051196099,2.56
0.13218057717031545,-0.1601365515133211,9.681892609442983,0.011927724220913512,-0.0013677532438120062,0.004508567067385207,2.57
0.08767829084460432,0.08554074384387891,9.734858702478157,0.009257576649749386,0.0031421568850072425,0.006204409470181202,2.58
-0.013245823366095295,-0.13461766907386627,9.641135202347456,-0.006824059936975057,0.00650047649495865,0.010011871598963391,2.59
0.08075972769737425,0.09186553581417656,9.852160001725222,0.011299522631737195,0.016007257844614656,-0.0052596299209042695,2.6
0.19310601637377667,0.061131827256637676,9.782221971162931,-0.01703397149137824,0.007498556306809966,0.013599755328261387,2.61
0.10236304082430654,0.04291325313166868,9.810413722130203,0.012041473837314758,0.0025225351861878982,-0.005077938348858643,2.62
0.0005163108071737257,-0.15437237310727636,9.786209866574252,0.006503543041389844,-0.014136701516441214,-0.00035357621373755026,2.63
0.2662158738263077,0.02462391494294491,9.98312140411439,0.0029153583230110357,0.023338316456587297,-0.004063250105669281,2.64
0.035362789164258356,-0.015488242220945936,9.949587377408667,0.0030416097055237746,0.00537761904481724,-0.002353600390742293,2.65
-0.06847745569963103,-0.023520474703928203,9.82431013663699,0.004345131788697177,0.008785480071065412,-0.0008578400225231917,2.66
0.27921767238327366,-0.020978055068544388,9.812126223383137,0.013717999125865153,0.007258052821759146,-0.010847492235218123,2.67
-0.3782641384353938,-0.08569170360075225,9.784581888717517,0.013393625373523137,0.0031452626492898855,-0.0051938714098103455,2.68
0.01939046026882074,0.005804744218397219,9.777048478878976,0.003779363842362953,0.0022485894578313965,-0.00769061766279756,2.69
0.196863915078959,-0.19551764085497417,9.719433738995066,-0.009591074835638827,-0.005711553924755918,-0.004351871973603746,2.7
0.15346435813594425,0.0471229048671753,9.795250898275855,0.008100964996406095,-0.0018741581353554058,0.0022761674807742485,2.71
0.006387558680810684,-0.002072568918050781,9.92442448758516,0.013249636741497211,0.011417753750099848,-0.01659150504573399,2.72
-0.14486843675791372,-0.028830032878718895,9.807036227412855,-0.009036089259787246,0.007450976851514147,-0.003165123820682662,2.73
-0.045520578778862064,0.07229336295060988,9.826152885788959,0.01253415836177898,-0.009721475959166639,0.005245634017613943,2.74
0.06685065115737425,-0.11216729027573497,9.586993896199907,-0.006178927150834143,-0.00882065109001105,0.003292110481324059,2.75
-0.03653138063787251,-0.1478984096502398,9.714989171153086,-0.01007038401785468,0.008265797473657261,-0.001542599795738441,2.7600000000000002
-0.10618808892855179,0.051840637158677094,9.789170595412628,-0.005148956476462154,0.005610095794488533,0.002650139878209257,2.77
-0.13629145979811025,0.08949665330479639,9.709217981431399,0.0031910662549008407,0.000351847026007818,0.0022587926051648856,2.7800000000000002
0.17312150867412865,-0.2530565624863259,9.76522957213721,-0.018301683758065807,0.0019174062755221563,-0.013063556655349542,2.79
0.0797297183635106,-0.05458580473925149,9.623452790289726,-0.00938616806193767,0.0019540699198694386,-0.015816460560517415,2.8000000000000003
-0.049719224664909814,0.04624869855287517,9.766904993074242,0.005786325295902297,0.0005479251984378779,0.00735367445535489,2.81
0.10319646431822678,-0.0081614001106378,9.943995504017243,0.015712887995383992,-0.008116023538903639,0.0005642608030856032,2.82
0.09257139083065086,-0.14399017470708816,10.036721975278756,7.899024195887952e-06,-0.014896295520130737,0.001895137629647057,2.83
0.11787779884947645,-0.002638484619265462,9.722253467341515,0.0073253566736777775,-0.009151377089922511,0.005960348312390371,2.84
-0.044032760715094536,-0.03528752067697792,9.883733524084105,0.007020710212160587,-0.006085613852720472,-0.013627001661803946,2.85
0.09697071208813439,0.053135373904947415,9.843753773792999,-0.002434571753295884,-0.028625293423315278,-0.007141046938062638,2.86
0.08746064875427356,-0.1435064768122709,9.861422736015358,-0.01270162183927245,-0.0009016439944148859,-0.006085391159777576,2.87
0.029556841016189345,-0.004590657141624876,9.870474713320082,0.007986327398782644,-0.008249159762012123,0.004185636679103625,2.88
0.11820257744139517,-0.022157157490433402,9.67686722052358,0.0024599775072875903,0.010885932946604691,0.0006504856823222731,2.89
-0.02583533489682538,-0.035600925393407326,9.780651933738138,-0.0036213359329223056,-0.0016535718687113999,-0.009729490798249788,2.9
0.024012053260334412,0.04241568377703805,9.612516362965073,-0.005049876436195494,0.009812699436618338,-0.00295908651533865,2.91
-0.10687115487638232,0.07380265918858417,9.805810315079125,-0.0024583856220843224,-0.014248115745919337,0.00022928200110135816,2.92
0.03876118213850006,0.06865868981758767,9.806855837545623,0.01617862675690886,0.009724421610831748,-0.001292310792213702,2.93
-0.07693029681483544,0.11186886704263561,9.728861405334941,0.004028072217410169,-0.0050964478579850715,0.0108661457204043,2.94
0.10548877536431289,-0.041406222994758594,9.92011479172638,0.012560504315005352,-0.0006668263658599298,0.0051380510373288035,2.95
-0.27326103751250097,0.022112531827234796,9.876311230992787,0.003540825207831675,0.01930369593029273,0.007327712174091026,2.96
-0.039113485625009645,0.10895003612433579,9.858830887700053,-0.002691555058829164,0.010344223823511554,-0.004578178047971269,2.97
-0.14581100575762326,-0.10042834923158468,9.926287443451024,-0.01157527565325052,0.010310736196557327,0.0018316170961768883,2.98
0.10224845589760168,0.09336311723944053,9.839945714869863,-0.004780874781009935,0.008835823657442001,-0.0010154138611141496,2.99
-0.029999368809589474,-0.0614548050325379,9.795887541741713,-0.024882926810787107,0.015289606580756645,-0.009271664762778568,3.0
0.006761825858830741,0.040566579952723766,9.8109815304064,0.0030986102323337533,0.009128883479881694,0.013690158159035733,3.0100000000000002
-0.02646298934446925,-0.0650385950695123,9.864264895668862,-0.0032883286378128126,0.00476028211153071,0.0018650361409813677,3.02
0.0395122500113666,0.15469819366289567,9.7767724839804,-0.0037570801203910026,-0.007913440293054111,-0.022934026455164874,3.0300000000000002
0.14380270815664808,0.09987322428883005,9.78629678041055,-0.00714988646493506,0.008939432367282776,0.0034780784022413196,3.04
0.005169295291063021,-0.03626419524401557,9.705150637006604,0.019116171029182588,-0.004622002527071964,0.0016331528274094829,3.0500000000000003
-0.018132865480044877,-0.06161254208741354,9.776637589389972,0.00659381991681811,-0.005033989265131325,0.0021315796070603263,3.06
-0.0794856840723176,-0.015484371728284844,9.766303359466898,0.008271404804653906,-0.003947313591623143,-0.01039755541194001,3.0700000000000003
-0.07860942728624709,0.07021629613115485,9.798300814997006,0.0023663912145892043,-0.015071243663693737,0.005802436282867072,3.08
0.0694773240643937,0.1722112647940373,9.768441016988419,0.004686159437654435,0.002796364137123626,-0.029931280042456116,3.09
0.06775653955579684,-0.04854819115890505,9.782321925224648,0.0017707198700924395,-0.010081540610124512,-0.004281280755413845,3.1
0.22963620622001457,-0.01050407680428298,9.843811052718415,-0.022819953112692352,-0.01573295663125118,0.015120525588261336,3.11
-0.025454985625706014,-0.1322481067002768,9.67618833575716,-0.007833206315064123,0.00875586842209346,-0.0007221784539948192,3.12
0.009176236516251485,0.04022333788603808,9.770985766123333,-0.005708158476817,-0.001954079948471088,0.01314439962268883,3.13
0.04430778462011488,0.08683490182176978,9.768582654984835,-0.002256726004489861,-0.002281271967374724,0.016905833890205474,3.14
0.0639289164578197,0.10499622557970688,9.767696486981611,-0.006297974627712349,-0.004447216932411894,-0.005514980284734898,3.15
0.07196876404635041,-0.05468548779156053,9.796459568303904,0.0012645054159430389,0.005502233212233397,-0.007362393208075857,3.16
0.013564447535386907,-0.030614702740024747,9.878150027839602,0.005942061815596915,0.016319618140966045,0.010017729730948678,3.17
0.1206655437600033,-0.00890152293400021,9.69563848778567,0.009488564340488788,-0.006631947230694769,-0.0005918911577616661,3.18
0.0025719719975157533,0.1304386305036422,9.776397206907722,0.025223256658546484,-0.007361954045536153,-0.009759524105422636,3.19
-0.10338194784137614,0.033517508527750664,9.540896305922342,0.01873855541282671,0.0009011194699917594,0.012954489232567923,3.2
-0.04046232879186977,0.11775391779574554,9.665253126920113,-0.023057016271692054,0.018654659138039497,0.010905389258367544,3.21
-0.04114350933873028,-0.03141258942624584,9.697967415845254,0.017256596717911445,-0.002818801131187193,-0.005740580168295579,3.22
0.03263272683827935,0.07092701062569554,9.55954593526287,-0.00930217421233444,0.0014828156896364217,0.017719035716474596,3.23
0.11914640068988386,-0.014019539966802056,9.802321452318072,0.0008742999730240462,0.018103289437443805,-0.006292002063026062,3.24
0.1663083194063327,-0.007270854045764591,9.770067950463654,-0.00919713627034721,0.009855885480518642,-0.00470589193987541,3.25
-0.041904891381651904,0.12731513765530636,9.843288557336152,-0.0013659696193188218,0.006413058999030095,-0.008367028307931356,3.2600000000000002
0.05614344498091202,-0.0534537222214681,9.750509655147477,-0.005466565244172558,-0.002424484351663262,-0.008845097832656794,3.27
-0.036993811914018876,-0.17889593958139316,9.888854800477127,0.007703718533740637,0.0008830507410531655,-0.010408163749964451,3.2800000000000002
-0.015005464403235977,-0.14144136841496807,9.748770027970302,-0.0023966446875906483,-0.0018759358300651605,0.012271863675768852,3.29
-0.12661835998690388,-0.0008489006099971341,9.766135785102355,-0.0045845721180379564,-0.006769255406158505,0.0011396092377765797,3.3000000000000003
0.14516132739542495,0.03868603085746685,9.693984165598502,-0.02254296817775525,-0.00805764078570014,0.0003817356412080427,3.31
0.04820793060972829,0.04477966865192426,9.745073737173739,0.010586620090333565,-0.015182275872136788,0.0015370165567810453,3.3200000000000003
-0.14698293081281308,0.11697334159912004,9.94883780441998,-0.01463165391125472,0.009898249141186822,0.0015256414747528782,3.33
0.11234288280494803,-0.08757993590354993,9.75800121882404,0.014864117464583564,0.002678710296958048,0.00558184248460488,3.34
0.07655339015057054,0.004207745996345597,9.895084411213835,0.007827070866626437,0.011086715703630685,0.0006233293285842549,3.35
-0.1964377313807632,-0.103701329217916,9.743539718669785,-0.005004107424769103,0.0034170842794176244,0.0004501858806491813,3.36
-0.03566751046395885,0.05384880940509015,9.762667555193705,0.012183183260611359,-0.011529513498003116,-0.0044362238420436705,3.37
-0.1304885399520309,0.11877896863736284,9.716425623888677,0.003079854966639671,0.004130830125875284,0.007093098272072074,3.38
0.07440074576136017,0.05741008482743054,9.801804729296087,-0.005420501637693562,0.005845997327281308,-0.009174403202394588,3.39
-0.10878144000466212,-0.05526437731143783,9.812740682611043,0.018244764735245188,-0.002281964331789748,0.012706962542305734,3.4
0.10350608887185808,-0.012287146905337488,9.670441726658698,-0.021298922200284776,0.010511405949069207,-0.007989411580100225,3.41
-0.043016648180410816,-0.059456839546782596,9.631401502832679,-0.0036885247312138094,-0.00015721329965290298,-0.0034876829617527722,3.42
-0.16923680163791735,-0.12887729554006488,9.802322600705498,-0.011038846873364918,0.009883586604295357,-0.005424232923515775,3.43
-0.018713312639262628,0.17730671025841743,9.937798136925732,0.0010504139250213517,0.003660961062683582,0.008189137333367303,3.44
0.11468321327346671,-0.06347127902425852,9.761318248532275,-0.011668138184779612,0.004726889084573137,0.010831082474471147,3.45
0.020723796062380756,0.03355462463312431,9.615774952773938,0.002225340869584786,0.003061251919487285,-0.01823594596464129,3.46
-0.06297409066432039,-0.11229563415866728,9.923496165065796,-0.021909186164466354,-0.0021384817604986057,-0.005401295501481711,3.47
0.04123089639476782,0.11534100082702235,10.01345551131454,0.0012279670564500898,-0.021454094172094554,0.004227963753418671,3.48
0.050969818991764206,-0.0019340158359955621,9.785330221586708,0.005072387652599153,-0.030452442815046252,0.00523078658111073,3.49
0.05747272691479961,0.04199436134732253,10.054928543607465,-0.021625993253143645,-0.021328923792778155,-0.005912777085459583,3.5
0.0026726858747425173,0.11319599849443417,9.842888793144656,0.023801158804126664,-0.002243512836682082,-0.006813914005342076,3.5100000000000002
0.05628116107096598,-0.09622221468999488,9.871667731009914,0.0016596034412350896,-0.00040207319399881525,0.025481479221079465,3.52
0.0053976001261537235,0.09852720176656266,9.83580499575991,-0.014990952793362853,-0.008577010451959747,-0.013499207717771284,3.5300000000000002
0.1560939370959117,0.0745117070624333,9.824651658791483,0.003874867563919263,-0.01895311393235446,-0.0015795868077482153,3.54
-0.0910323263281245,0.02418104996499702,9.902289609006457,-0.007270386083781798,-0.019740620636471366,-0.00139268575347957,3.5500000000000003
0.11361118836022344,0.017283678989372258,9.683322096561406,-0.008378074256030675,-0.006118579043142596,0.01602733859498207,3.56
-0.01710663508448923,-0.10267531450182961,9.69684157148975,0.003708795414851923,0.0034157252814508523,-0.004137445497319352,3.5700000000000003
-0.05354241586554559,-0.04718517847017642,9.734212787929787,-0.010946116669730228,0.02709624486018714,-0.026065208655664605,3.58
-0.09102963252915014,-0.01239612426749145,9.85151916650411,0.002759319437812431,0.004673526591648093,0.007508746848728356,3.59
-0.05136171278210924,-0.12277488262961096,10.089462430004561,-0.014435546047925836,-0.010184819466075757,0.015263266176878261,3.6
-0.0031982984543736156,0.0906318286160004,9.78424522798949,0.012118847428775543,-0.0009072258402250043,0.006336913086602065,3.61
-0.09739078907765965,0.002896330709004376,9.871386194629215,-0.010808045827364655,-0.001278910100482806,0.0005191485616183854,3.62
0.046078517395542445,-0.08001512256458615,9.717585489066925,0.00161736021319186,0.0026560794407196765,0.009706473562279156,3.63
-0.08916795451900682,-0.1942121347896667,9.737983685348448,0.013968184398144892,0.004834032710712546,0.0010431680981020076,3.64
-0.010066885750495979,0.10125050131060809,9.826919301416272,0.0049580884722162915,0.004859578607318142,-0.01448355659713608,3.65
0.0601354225079834,0.2460479562351254,9.624168308821876,0.0006954101321336134,0.01568825048707684,0.0010903057132653985,3.66
-0.059363069075137845,-0.03726977630825249,9.882341627237205,0.009662838404106379,0.015252339682752305,0.0027338639579745244,3.67
0.0032298493525702507,0.07440122065804675,9.792446535050226,0.007487074612170764,-0.0032595961793315713,0.00474592868027681,3.68
0.008649182923218491,-0.16086055863043658,9.849061883405422,0.004227692263716568,-0.0021565559661495463,0.0032548133427864724,3.69
-0.23049630607074068,0.041578263044820284,9.688417621936871,0.010513384646246047,-0.0067141788798727176,-0.0019232246665434256,3.7
-0.09821125700778303,0.016313874287959867,9.9887236607358,0.013998416824744248,-0.008455128055189947,-0.0002839611033590623,3.71
0.1848273125894748,0.1394109252757374,9.7559385051149,-0.013180910906331562,0.01756796831698298,0.0017928217450254769,3.72
0.03869176552327322,0.04866838912046467,9.763283378554464,-0.000345620774799784,0.002998075757111463,-0.0022083373729943245,3.73
-0.07244269642004929,-0.09469187725377542,9.833673564624183,0.0005682240805654102,0.0006118147355374403,0.006659039808077115,3.74
-0.20441693324232457,0.08762924032377982,9.914660240704382,0.012918142971222242,-0.007773763202077043,0.0003891560845075548,3.75
-0.0873333929170923,0.03258694286494067,10.021259559476034,0.0032503265642993494,-0.010896065142051398,0.0030699766020524056,3.7600000000000002
0.19720767046313722,0.13955309915611655,9.97983333463497,-0.005595438564993472,0.007939620703502404,0.0025368855910497946,3.77
0.06109717923111187,0.013633192755658295,9.803749529285243,0.011811561951799306,-0.012194253479969636,0.01808554113536413,3.7800000000000002
-0.1689938818277849,-0.12284035674022126,9.823213908569157,0.02112386897286168,0.014213874041386663,-0.01058737055280127,3.79
0.030913102493509866,0.011550865843814677,9.922389090682982,0.007813042788381899,0.00409833377444889,0.000660559005797532,3.8000000000000003
0.07816550077492734,-0.009426015912807353,9.805559610436497,0.0025918798970219247,-0.01259894839759314,0.0011927103353525433,3.81
-0.1459668817447285,-0.059381438010403464,9.755912328863023,-0.01100609968282958,0.003533267131649256,-0.010121716245854846,3.8200000000000003
0.0322035078788974,0.05181070202464713,9.855407623664298,-0.010605225033613656,-0.0009476966579508132,-0.0024140554562762425,3.83
0.15874776767417909,0.08934296381323789,9.737236735204192,-0.0007678613537766025,-0.008573349226888521,0.015534276176157102,3.84
-0.01910767396638506,0.022575134295038032,9.914002250785781,0.0014681108498685864,0.005497881579526977,0.010265567063556304,3.85
0.09619952819391636,-0.01188867076103878,9.65217599261153,-0.0005349869754551372,-0.0016910179307834759,-0.0017313834565190439,3.86
-0.014362160351091516,-0.04785271158291479,9.610679871016591,0.008708151294937513,-0.009894349470014788,-0.0018125129774529633,3.87
0.04726380682237173,-0.1099464763328803,9.79033389947475,-0.01423076401818587,-0.0027849470843529325,-0.009922394618155255,3.88
-0.05526119471473926,0.06453481723857016,9.809961635938597,-0.007707808454951931,-0.012609069317478998,-0.014389218388936935,3.89
0.09217169202603345,-0.07474594426722497,9.771715692756592,-0.004842477136170666,0.006219050499639786,0.0106023792706509,3.9
0.004278806436686277,0.018144818586341885,9.894480950065008,0.0013850490608300734,0.006923486726727504,-0.015308896868211325,3.91
0.032153759731964514,0.06644084054370344,9.899935011311642,0.007703638574153907,0.02582970309615409,0.005987709767051695,3.92
-0.04969889540788648,-0.03782485168531348,9.792477370856352,0.009930701871689382,0.0058162644177948706,-0.015481641447990609,3.93
-0.029211912001749454,0.12007429070707683,9.7248970967094,-0.004985776646457893,0.011656648189175755,-0.0016704936589094247,3.94
-0.010973420066795758,0.12328054679417036,9.759782607040037,0.0013926267659002214,0.013016021278821134,-0.026220687607085753,3.95
-0.01849915553747638,-0.02471160659820338,9.790255278133904,-0.012432564451878162,0.020134059630067966,0.002690102502490454,3.96
0.00859108214254284,0.00512454025245175,9.825354954285359,0.010575653269751155,0.010188030247705702,0.014253310116743825,3.97
0.2328420412212444,0.052932270829481876,9.763070800093912,-0.0036739309474043986,-0.03147804374485708,-0.023062496562965048,3.98
0.1489861605453898,-0.01157865041749748,9.782632327044016,0.01062955992852728,0.0034249572131792357,-0.021843091335925956,3.99
-0.10610629197079165,-0.07045248843479383,9.608299829728912,-0.006979669812328678,0.01003109762322542,0.004375720479349336,4.0
-0.07635782949075687,-0.0668183412200497,9.83320774000355,-0.004945324964136116,0.0007880535804176771,-0.000426979866043491,4.01
-0.053317013608097444,0.21688343061221854,9.881026935102044,-0.010723663792610227,-0.01372235840810252,0.014765370699380121,4.0200000000000005
-0.01427982659263198,0.14136902768880627,9.850468917564934,0.003711424811525264,0.00953400468707894,-0.006523211575940946,4.03
-0.07629263553685213,-0.13219006470353317,9.779751061600695,-0.012370140896202314,-0.004370471951803183,0.002137066229760786,4.04
-0.09306001001134523,-0.15216598106290938,9.7365634898924,0.02067930433513809,-0.003553414059257788,-0.006987665313708424,4.05
0.09333903725278561,-0.26386027790454086,9.747758022943053,-0.007604390586246067,-0.006130105914350763,-0.004878038494235641,4.0600000000000005
-0.1673897920269204,-0.051766065456114466,9.828734260373567,0.0036547809077597864,0.0005396120943373342,0.0005746954786004774,4.07
0.03907023997112361,0.08142539656253657,9.819942652496616,-0.004991202446503716,-0.0035068750159977058,0.009874249707766217,4.08
0.014401310597552328,0.006141671854104205,9.792139939036852,-0.010686147620391408,0.0032696508706928987,-0.0084609912938812,4.09
0.04869895922296291,-0.1812623588814823,10.056638000638905,-0.004347585832049783,0.009538112969328548,-0.0060588899478000524,4.1
-0.01040922875055509,-0.17413964364660825,9.596789846924604,-0.014689530429580374,0.0034547085205675165,0.001205755098953276,4.11
0.059250861585361,-0.016352403620757572,9.81301699343385,0.0013655999131114616,-0.023970741367177646,-0.000724360075605071,4.12
-0.036203780286729687,-0.04032796664799634,9.659137654596682,0.002444727991663783,0.011633582323829845,0.009449465531018244,4.13
-0.050644399253279494,-0.27635900683905196,9.730130884400499,-0.0107829689838668,-0.016489175166378253,0.014560280124104048,4.14
0.04058229668621642,0.06597343932958104,9.936044845227602,-0.014923167124066175,0.0033447407752604514,0.005358054710181716,4.15
-0.03429278569586352,0.0022847245284296452,9.776165865371345,0.010273389295389583,0.0006049652897353674,-0.021225738798613353,4.16
0.007002194214530192,-0.055298939899392024,9.881994454472851,-0.021121276673344985,-0.011455626303039318,-0.010358456947325383,4.17
-0.10012100448351174,0.048787132742785226,9.888554595410492,-0.006798181056330669,0.0054756150028092265,-0.021163547044683196,4.18
-0.0015019925055193954,0.14715330939234514,9.75279858429773,0.0012663817666909386,0.003750036770992143,-0.004790879850433118,4.19
-0.19188637565102756,-0.17376005703282596,9.868692632257062,-0.0035848389012023926,-0.0012626757825382783,0.014211906074865726,4.2
0.00043056076983166323,0.08091697365371736,9.98188584533585,-0.020537629943152107,0.0009950337689633682,-0.004125283854076996,4.21
-0.05615507316361974,-0.1158813214413339,9.88894185123083,0.0138059469006047,-0.0008211023892688475,0.0009952095699698074,4.22
-0.1197867800105267,-0.1150829753929244,9.989032923465588,0.012690341452332738,0.0015599823918974927,-0.0020684672030388015,4.23
0.056120800958915286,0.09270525362826604,9.737432585252623,0.007958893287072303,-0.009261101942815667,0.013424879000608032,4.24
0.016319052011133605,-0.10046704314159266,9.880258245190115,0.004706975370424599,0.0068608072545818105,-0.002541208205599273,4.25
-0.09182903250468566,-0.11483123147707404,9.785840311984009,-0.012616531258301906,0.003460327775372845,-0.006778503993199148,4.26
0.016469369106019188,-0.09706798740415497,9.816726205320153,-0.010360123907477812,0.01262337924171902,0.01577785491942084,4.2700000000000005
-0.036618781375142906,0.0961750018607117,9.623164413915166,0.0005970808120278978,0.0056654464136005655,0.020817005341300914,4.28
-0.2584489179466999,-0.061557743544783584,9.717699235375239,0.001066244839995639,-0.01088518500534073,0.01102053212312089,4.29
-0.08483268276549151,0.016356681589433077,9.804607190394881,0.0024750224526967303,0.010594384683909582,0.017508072601269624,4.3
0.01946424467415288,-0.07878142433392443,9.831646313215007,-0.01221738756683372,0.012447873507866022,-0.010964384779714094,4.3100000000000005
0.04253504887944108,0.020096038628981336,9.719640584185285,0.005411035392474824,0.0007714344109647611,-0.015280848356769421,4.32
-0.021277650667094042,0.023627271898990054,9.802468907465467,-0.012199053688076385,0.01436940693528536,0.009265019524242704,4.33
-0.13030462651542937,-0.012505505289395872,9.92221944741417,0.013615888256436854,0.00205552606675954,-0.004822192220264114,4.34
-0.10840373656505438,-0.12502152975749448,9.735633048324933,-0.002746543492136243,-0.00231704590014233,0.002361553501920648,4.3500000000000005
0.1258820304792335,-0.03945243384280073,9.851424492412207,0.019197348505582374,-0.010879287656497275,0.004577093838080261,4.36
0.11598653753036758,-0.12381643509909279,9.768938318394097,0.004978748864864311,0.006936151490854443,0.008538171827619352,4.37
0.07764574271846147,0.11552018613780493,9.708949130658278,-0.017379459900853073,-0.005504002139570691,0.00371819830333819,4.38
-0.003624527799864405,-0.05669239658835994,9.887082198129594,0.014033774152558437,0.00624893371044184,-0.007320560738437422,4.39
0.08121164192025548,-0.08111956932032702,9.784877059490135,-0.0065208807558556035,0.009503116896845815,0.01683747983291969,4.4
0.019618193318147306,-0.12363755881465016,9.944158785470632,0.007998481179338,-0.013057064440948549,0.018586934167222152,4.41
-0.06438310440836807,0.19886314246431389,9.797745230717641,0.015790627274813826,0.013256940741895063,0.012571289069959399,4.42
0.0628754467989704,0.0646859935966686,9.841272922258968,0.009610244709037768,0.009828974300646194,-0.006247763134885251,4.43
-0.03794758168560685,-0.08969513685030632,9.895985758665136,-0.001071073130552767,-0.013232801686253966,-0.004910736310327119,4.44
-0.03409440595642193,-0.1020579327070105,9.821481176082205,-0.01438937560603019,0.005960242166982939,0.019071704764250144,4.45
0.0800161936396651,0.06960446569310384,9.831501554885824,-0.0071614635141277125,0.005002341378135449,-0.006628573850622634,4.46
-0.04828113858778577,-0.0006434377872129805,9.778008923586109,0.013883238637948898,0.00444415870539945,-0.02141386075078967,4.47
-0.07514660650976145,-0.060658337324025716,9.78317911330271,-0.012103237015116342,0.010533511483795591,-0.0013248815053515891,4.48
-0.015636562839202502,0.020302373709874925,9.83990106328213,0.006345843621389895,0.005892987695384121,-0.006086223809344853,4.49
0.16132704682573593,0.0899803616086882,9.737824573944632,0.0036544117695488233,-0.005994918509463014,-0.004059098714142506,4.5
0.1554098238697908,-0.1711576849153755,9.812655556656575,-0.0009448178846887806,-0.003436376515542594,0.01115651195013946,4.51
0.035497444056614536,-0.07318896463561556,9.810142725862223,0.006942158744874621,-0.009942335934176033,-0.002951096843386416,4.5200000000000005
-0.2380328812748175,0.14133351625333637,9.84003318737436,0.011663606437631605,0.025095519364761874,0.01572691327181264,4.53
-0.014340579477860091,-0.038029577526506084,9.79361021864382,0.015473609243371742,0.014765911984091563,-0.006129411348486502,4.54
0.12979384241364156,0.031179823995742584,9.765683071519584,0.00475166212026983,0.013260341583909308,0.0027382396178493094,4.55
0.07896419734239273,-0.07925123599508711,9.697940567938824,0.008944439887259804,0.004989116033209169,-0.00469634611379953,4.5600000000000005
0.06947662872380515,0.02179428791020803,9.979433426428267,0.0043743904413780415,0.025993037781252202,0.005689683872123482,4.57
0.22483393610635197,0.010464602433451101,9.832247731757832,0.008335608642262208,0.0155042093503721,-0.012070890810895046,4.58
-0.005562178156699717,0.06373488361670364,9.848041596907134,-0.01822293616611605,0.004746471116590806,-0.0023945608894079583,4.59
-0.004276029690384822,-0.10780722086073946,9.657970872169136,0.004833429632111366,0.015037235035969479,0.006451443402966735,4.6000000000000005
0.007126275427738899,0.19700586224236735,9.90103251278097,-0.004904858351156765,-0.02126960350233961,0.013753148928669814,4.61
-0.058895612661458985,0.16075811612346205,9.847600963244266,0.013900079253351601,-0.012447486658441993,-0.015188894797852783,4.62
-0.08169352426770661,-0.031125366041372123,9.829796058864739,-0.022525090565365367,-0.0073038225274271494,0.016597225705106997,4.63
-0.03595241104301247,0.15094787382884856,9.888803042744565,-0.011909042706654082,-0.013692417470928144,0.012541986897587629,4.64
0.3615962000803629,0.014948842078271206,9.756259377193686,0.006727155262698207,-0.008437038978790468,0.007912032124467732,4.65
0.07785703453845971,-0.02970522113414197,9.912944688804988,-0.001833659982295446,0.0043062284826463175,0.008305421388491125,4.66
0.2020812987605939,-0.08728746779290313,9.725125277965043,0.0015217062433982085,0.0005962477160443575,0.002595853590855695,4.67
0.034155212536217006,-0.0808207868726504,9.677148912256332,0.004527168838388679,0.00972580280288685,0.00599081435743086,4.68
-0.05579253488669972,-0.06534659517181919,9.723854782181196,0.00720587521720671,-0.014232568141927162,-0.005696233918427173,4.69
0.08828797932545372,0.013059535380827223,9.871240655522785,-0.004047900252876378,0.005995385618310873,0.003394526559364115,4.7
0.027000624285613645,0.0012957437387917422,9.852532855287794,0.0014920308262201685,0.010671684630325433,-0.0037634082020478444,4.71
-0.009530983289568438,-0.06596916177881736,9.847662910493352,-0.01449028836587269,-0.0025654521421677135,0.0029199046095794733,4.72
0.06086371907553422,-0.04382464552277757,9.820070629353598,-0.022123501941618728,0.011259056588775782,-0.008710590452040255,4.73
0.15544630140648505,-0.043723534617662776,9.830850943726693,-0.008452696140081924,-0.00331219310153282,0.003730515380244769,4.74
0.0839785077979078,0.055838899769255004,9.724567496679434,-0.007242139822002548,-0.01689490766960367,-0.010099360598448362,4.75
0.04372429494189079,-0.18177600191591092,9.839652421430138,0.0010564332251554792,-0.016167884898250225,0.006816447783522891,4.76
0.09457231839334396,-0.16359436728950097,9.796269898943462,-0.004238597802900041,0.01568702517826292,-0.009024956886140597,4.7700000000000005
0.19366984548239774,-0.07024277148478766,10.00831651560674,0.007771610494046363,-0.011577366624626915,-0.00813212554747152,4.78
0.01895219316215836,0.04672413603248517,9.63402469700876,-0.0031946340038425326,-0.014090363128087209,-0.007918552076675208,4.79
0.01977500955372502,-0.007895310130495313,9.843434652059688,-0.010332601455169368,0.00599016151333561,-0.005848534744887661,4.8
-0.20484695899627658,-0.08877250591875731,9.79586163768473,0.013905567590993444,-0.009575684023499221,0.006134500276457312,4.8100000000000005
-0.03967579703276722,0.030577327975570518,9.719772261960783,-0.0011890808528470923,-0.010482608413223118,-0.012409110053062354,4.82
0.2948304949723362,-0.029922597248545,9.7484412468336,-0.001987489702983236,-0.006930747730117914,0.004991276782521141,4.83
0.019080983594338324,-0.13938253375878346,9.772120815738017,0.00838211070270495,-0.002718337618468565,0.00258915076827265,4.84
0.024655491684434636,-0.01998181120325662,9.855723108297097,-0.006072958883716174,-0.00755341487506537,-0.008884025642911006,4.8500000000000005
-0.09044740840125687,-0.1623252058942334,10.017457083683173,-0.005929830809156226,-0.016436421666641804,-0.016332364710315905,4.86
-0.13751960634887403,0.124803073342069,9.912393957712535,0.0026288015251604837,0.01091416614079973,0.018345765628704915,4.87
-0.08805300586434885,-0.03156206357249392,9.952312679437014,0.010146331689058664,-0.01600055271813413,0.0011046446467626908,4.88
0.0429303392398227,-0.07361417896548396,9.691004082162939,-0.0016198138326259026,-0.00856507945822035,0.007070877617614142,4.89
0.005583058252148259,-0.03205062828175559,9.800167539329243,-0.012981282719002195,0.006291234369886211,-0.0010123427885223887,4.9
0.035466926181501976,-0.016289268475526433,9.930905871606404,0.014139035510239609,0.011023793664296037,0.006949360193757148,4.91
0.03871681288849016,0.13037638635428045,9.763394845482278,-0.006588029633077213,0.00013177618676380424,-0.022206334330421736,4.92
0.06002716985736354,0.012215815699997629,9.838003113996422,-0.006343136101742103,-0.009942495037053604,0.00976593552644725,4.93
0.169720870033022,-0.04830790101647578,9.675281996650806,0.0024341122008020998,0.015260653964074064,-0.005783816987844917,4.94
0.12319075312630208,-0.09419626142331608,9.596113840347725,0.01245236898118065,-0.009105999142589813,-0.005993639162574518,4.95
0.26559938433901564,-0.17065727111942142,9.937777180993464,0.0035955002839071297,-0.009316870411751995,-0.009152159404184729,4.96
-0.041531272482847506,-0.053849752573521294,9.71350193035239,0.0020987261757715848,-0.008363546242124268,0.008329628014503276,4.97
-0.08553135443114279,0.11222898138597102,9.676279024301564,-0.006940281317290495,0.012601428915202526,0.004877149558940223,4.98
0.05697878969978927,-0.012486646906673449,9.577006325813604,-0.00044051415593256393,-0.011778395530682,0.011428075725417553,4.99
0.08652562040091451,-0.09534243056549874,9.91541317883683,-0.005229558413636524,-0.0012327910787487096,0.012030061647538948,5.0
-0.034486092917436546,0.02734470562402483,9.667529442568409,-0.006332494002273737,-0.011196033534093413,0.0008021844352539406,5.01
0.05897191276309897,0.08753051701259841,9.92070912804835,0.0039199901213497835,-0.0031085226601893015,-0.0017732096884939814,5.0200000000000005
-0.045531396024615714,-0.010831179191083815,9.675227221882835,0.0004539395759517611,0.0038722333784083447,0.00017124709724332894,5.03
0.03728057491117239,-0.1495713317789558,9.801813098195732,-0.007501357313918968,-0.005901712617576121,-0.005677691840165287,5.04
-0.07364027646799402,-0.06144792623774501,9.599198885035856,-0.018468866409727464,0.0025007632976369676,-0.006230036961766003,5.05
0.01721220882287086,0.012180165109599782,9.905760806321208,-0.02634491858852909,-0.02588685370603415,-0.0006803734865254667,5.0600000000000005
0.12812982934763226,0.19819115198082954,9.943463619418603,0.005007899875744528,0.004524451058115494,0.006878339328019786,5.07
-0.0010784565236370265,0.002155242513712536,9.718064568163914,0.0070766446967876675,-0.005272583854049649,-0.0014858187427844358,5.08
0.12643000747755911,0.07173922268297399,9.867412594419397,-0.006775907141026439,-0.018812829255781097,0.01899671122153347,5.09
-0.03360971078795127,-0.05943446221321563,9.743356433283958,-0.0014594740646797118,0.001121805136936402,0.015399375710902009,5.1000000000000005
0.10451015925814847,-0.0956903804263351,10.031596268315067,0.0007468442350432625,-0.003085714935638237,0.0019494058417491497,5.11
0.03210211237433553,-0.021198146141069286,9.69427756208233,-0.013312445866912126,-0.007782041017162153,0.0030200554508156238,5.12
-0.12803900892278577,-0.19866390460995675,9.934395803182436,0.020173047843722345,0.014904787626199414,0.011634215031242822,5.13
0.039972780606271505,-0.12232931635939248,9.722846165402391,0.0013304231619392834,0.023618648492574553,-0.003391683329682923,5.14
0.08211786938576497,0.0774531912121298,9.795247765943564,0.007637728251400935,-0.0006489887344594548,0.001886286858100699,5.15
0.1932105961862888,-0.0541081780735646,10.116976210380303,0.010351323003324591,-0.0022817528214830935,0.005941901403853049,5.16
-0.034961489242071264,0.1796247495785685,9.762090323008337,0.009407637740565074,0.0038205774958158527,0.015218420829236846,5.17
0.014412403299240081,-0.06241735987224696,9.9187486882467,-0.017046145975389067,0.013291457330876761,-0.012001726248408555,5.18
-0.15124073135708205,-0.308876656293376,9.77415444781648,-0.00985274890314204,-0.00700939069588513,0.012856576144995252,5.19
-0.08405326567170816,-0.03411084416733778,9.734499392407624,-0.008094790983945726,-0.0008065359321248146,-0.005414216911292686,5.2
0.0100271401622617,0.037142114913161196,10.055020911575685,0.016808887124802056,0.005226878460130852,0.0007008102920622564,5.21
-0.032764932069554185,-0.1900006575410419,9.966893858400939,0.004582913355930285,-0.011540484640557647,0.0005455485760012202,5.22
-0.04845462741751155,0.027556852798840528,9.837928104489018,0.004811012560806051,0.004454863420438506,-0.008978337381428687,5.23
-0.03863929215586634,0.024310235107050406,9.779406633602163,0.0026543477884178085,0.011577896700582506,0.007480637410582678,5.24
-0.004524619504892279,-0.036877071864864615,9.67931078855719,0.010809608267909799,-0.0015509385170627635,0.01667281070976724,5.25
-0.024109668015644518,0.11629432767035973,9.886252723520416,-0.005135038072069966,0.009549053110231454,-0.014030354862544928,5.26
-0.009564546097473625,0.09409361827929544,9.748285746488476,0.0020308032549658604,0.010567225200095415,-0.006253861927578593,5.2700000000000005
-0.1435381258350685,-0.08856002749455127,9.608859111760971,0.027227842725187103,-0.0018618426461364846,-0.0010700418376785074,5.28
0.07171147635030861,-0.11208705987573087,9.882947002362583,-0.0020291082599322627,-0.01576919678283497,0.025024367512540523,5.29
0.02491569725300812,-0.06991885294606498,9.836536814307731,0.005084701231673609,0.0021324653102133234,-0.001293401474478705,5.3
0.21988014270747958,0.007511509981264916,9.689055638896107,-0.011696102692937372,0.0011026643665165755,0.016779465411340035,5.3100000000000005
-0.09483358339722402,-0.169696107717757,9.744593201185879,0.007108072667691982,0.006971029289718658,0.00627357352958626,5.32
0.043253665099991866,-0.10849101703656117,10.01872839341836,-0.004379458693197451,-0.008877290945074626,0.0026360018284837033,5.33
0.007920815779582148,-0.008248694143969313,9.85543096861514,-0.00576768116429426,0.014461193393504344,0.0006737621599492257,5.34
0.052529703329620286,0.09878891245750762,9.86902450908477,-0.010514959705444088,0.004595578875688086,0.007849468251104563,5.3500000000000005
0.026265163774870117,-0.0976287129830995,9.681253841150436,0.02010243913509316,-0.0009913803310122567,-0.0031516089964748395,5.36
0.05516639762642829,-0.22623743895933554,9.771614759233465,-0.00934542565377799,-0.010683714062359812,-0.01462565340508469,5.37
0.14153424220187752,0.06892644125794832,9.878932419528724,-0.020444003820489384,0.011321281459732921,0.016128767930307705,5.38
0.08822727008737824,0.1741549208722851,9.839394016644821,-0.009718516922335258,0.0011487223490818104,0.003710470830248802,5.39
-0.04034362588017305,-0.02085222509640886,9.876502149073916,-0.006118157376616648,-0.005676724939821753,0.0036788971380208218,5.4
-0.05700212378682543,-0.3392117383931617,9.83437847867201,-0.00045768849975249014,0.0026664933398454138,-0.02103194059205269,5.41
-0.004207949076097824,0.03468972801749425,9.95329074340525,0.011141303181656103,-0.012369802408359273,-0.0014724893716603813,5.42
0.11464926124567323,0.036743620264641834,9.589896585027724,0.00467101792006991,0.012398141333700605,-0.003963601931797984,5.43
-0.08802025904951408,-0.005210331681608052,9.936738072618674,-0.003888248863570152,-0.011192912206432943,-0.001049748658625157,5.44
-0.18741731971006087,-0.04213729522017306,9.794326062386544,-0.01746324309776027,-0.009107120583477587,-2.3272836026989015e-05,5.45
-0.017527563440827548,-0.0030802099063339454,9.777995695921673,0.0027330397478849216,0.017063547262356815,0.007768050522759507,5.46
0.036777432740268366,-0.0852787096116949,9.717216467732268,0.009915271203316745,0.01607087256157261,-0.006690061075992372,5.47
0.014303625272726998,0.0341520368251175,9.770011838123002,0.011611268887841966,-0.004016656265742138,0.0054636159427264045,5.48
-0.12393369513408291,0.12876365729650854,9.759468263286866,0.012932106080496006,0.013261833449436284,0.005788534797317222,5.49
0.015750300804085834,0.1289637703191868,9.830611110074342,-0.013655159794000891,-0.0008603103485307661,0.004789491792359861,5.5
0.18283496990519674,-0.07455747103637535,9.9198464152289,0.0007350811757524988,0.010167251744070363,0.00406714829285143,5.51
0.11892321309914977,0.12378092667335457,9.625879524771843,-0.005717412669666783,0.0010137452232542928,-0.02749646780956383,5.5200000000000005
-0.019077736606502218,0.018118970027801152,9.962436518797736,0.005447083195551745,-0.000843752623762803,0.009020872290066156,5.53
-0.0450787515707383,-0.08915115751195218,9.859923253267578,-0.016091312572894655,0.009388045546664657,0.00010797533161186008,5.54
-0.10514240916810982,0.02942496354731789,9.612645027327773,-0.00895280624877209,0.019848325836608668,-0.012256118771559018,5.55
0.10718367370487558,0.06640675200111003,9.856990627008377,0.007720816435210302,0.0023161919862131216,0.009078727688107597,5.5600000000000005
-0.058067063625784336,0.021239549168207913,9.772380494024995,-0.006711086632991541,-0.001595260572304296,-0.00530485193255715,5.57
-0.008010441260868901,0.06810443765565467,9.82623413228839,-0.004729459134305184,-0.007884772743073958,0.002767340781953324,5.58
-0.016098848106709054,-0.05428191218556321,9.882819422420956,0.0028409299708488183,0.008610974611000487,-0.008479268766860792,5.59
-0.0536947272405242,0.19333408575903344,9.80011993722154,-0.0006678474229494741,0.013968345577196428,-0.010302691921724345,5.6000000000000005
0.1491811415949079,0.043682631837686905,9.856821326211954,0.0015261284508096737,-0.00440831545083392,-0.010775878497883725,5.61
-0.061763266451603106,-0.04131304268546518,9.899923321631467,-0.003575706807172186,0.016869848043890568,-0.0026806883745415485,5.62
-0.18124089177794367,0.05352592299177329,9.722703745171406,0.0058078077881958045,-0.014154656039095883,0.005744130632136094,5.63
-0.008195014619442092,-0.12023077477688425,9.74292319917995,-0.0043498030887371905,-0.005753593734848904,0.001123439676026072,5.64
0.1750866544683836,0.05566154643978363,9.843026928465008,0.004264608321090861,0.014933802127394058,-0.02041774351603628,5.65
0.18898698703704075,0.018644318153685165,9.89631400629752,-0.007026170237507404,-0.0003662212946496278,0.004414025253570511,5.66
0.2711618136714033,0.04075198852603293,9.897918930497754,0.011823562378528643,0.001990404186967967,0.004686448564910572,5.67
-0.0974215572467816,0.1798889961525824,9.917579477840503,-0.005405521749798016,0.01987031877546581,-0.012272812356431627,5.68
-0.07530744387771708,0.1969446434434228,9.89466020810782,0.012230911911012249,-0.008161632934392307,-0.0016249324589480217,5.69
0.019811916471911314,-0.11339027857073694,9.944487244487236,0.014841807030309089,0.0019260034967790401,-0.0017350685719528238,5.7
0.059692492488034724,0.04794806120640127,9.660223953137347,-0.005811677830337181,-0.012160316835814868,-0.009121662641151168,5.71
-0.08136980874628646,-0.10930539265952606,9.79822407913215,9.231567520202951e-05,0.03068927902286002,0.008206628298331473,5.72
-0.07653519040616297,0.08579181500701871,9.705058221303991,0.00791572015811223,0.008072642293918133,0.0005486498443887502,5.73
-0.02295371076420717,-0.07974126995255501,9.792978574342749,-0.01480061955488178,0.0005340924195163694,0.00152087310805875,5.74
0.07091343957741221,0.11907159341629565,9.856494359622173,-0.0021766165011368795,-0.003421124364054562,0.006297710250005736,5.75
-0.0003595355522419665,-0.008443309883521814,9.775847373060795,0.011836522816450128,-0.0015089435488864643,0.0044464892949893885,5.76
0.07399822397306756,-0.14216544066649447,9.819830783822935,-0.0059662300833069615,0.011489179262310769,-0.0011793407937882793,5.7700000000000005
0.15372923772213704,0.01331638541978441,9.716257057514243,0.014802549046448447,-0.01852954355428822,0.006430807943861634,5.78
0.09288245337891092,-0.038467600850679795,9.901868147105041,-0.0022249522906970134,0.0058393422698247,0.005656318943044119,5.79
0.1965227001398145,0.08442279009039903,9.789399629374765,0.0009735492869359035,-0.009071379211696193,-0.009657405003339769,5.8
0.01229762746599116,-0.1868772439549773,9.696525358554418,-0.008008197197593986,0.026181366589491866,0.01324804234551853,5.8100000000000005
-0.04127035663299641,0.03672802143702765,9.874324474202943,-0.006837933971164075,0.015430087958395296,-0.016333514435957805,5.82
0.004581612675068527,0.02180933958394069,9.686544163146646,0.00892600363145502,0.0069240499508284314,0.003951126352566403,5.83
0.08371550472493922,-0.001536051397623781,9.684987865306637,0.0031190214985247072,0.001049410123936805,0.008578089864156745,5.84
-0.13517537257599552,-0.091064385914246,9.816851353448541,0.015748054345632697,0.010821248046638548,0.011524777282012193,5.8500000000000005
-0.1438261832914459,-0.02456104077331374,9.641407141461771,0.006935545637643854,0.0069101556031448555,0.019010765861866077,5.86
-0.2070532278421908,-0.12193379176675377,9.863822284533967,-0.0038538800996327405,-0.004946867796820097,0.007752989056633238,5.87
-0.04494203054800283,-0.005098182915175886,9.864455659993244,0.006084352587293237,-0.00659137861661959,-0.004792779358959372,5.88
0.09742644704802335,0.03623998569777911,9.797127568568673,0.005584857218963274,0.0047619151556432425,-0.00837032267112506,5.89
0.027047482824967096,-0.09951850662430226,9.7167256069072,-0.0012600913690876453,0.0034147956288251447,-0.020997042805845693,5.9
0.12444856153134327,0.09196852043884686,9.937274869111281,-0.002453106802680653,-0.01019271742234601,0.002042127478009466,5.91
0.0687649609815476,0.09575691282870234,10.068823480247731,-0.02744730112005061,-0.005047062062190604,-0.0011275160856542821,5.92
-0.14835960994910294,0.05077837954560452,9.608078492278288,-0.011048948305909786,-0.012332557508319433,-0.012112872883733932,5.93
-0.1384409454577903,0.03433070993409118,9.850862017773233,-0.001120256795112123,-0.007227856802666124,-0.006818413269577367,5.94
-0.07856449260436815,-0.0386539185787842,9.789030449987747,0.00283331762747952,0.01716138832819049,0.012947726513033792,5.95
0.05163714927801469,0.1670527196566406,9.778404547758536,-0.008414814389304094,0.010323330514586821,0.015580628493994346,5.96
-0.022798520725704575,-0.12697700019936697,9.904801923463136,0.01400055911146409,-0.00618253025774293,-0.00827154991860347,5.97
0.026910055018411944,0.035838769465533334,9.661342542913813,-0.004803468546403997,-0.0012242436947172853,-0.0022474245543278953,5.98
0.07015524954248273,-0.03570247538131496,9.839569239398646,-0.000354646879547722,-0.004883057383218754,0.006617791291658999,5.99
-0.018717834900734365,-0.0012264434404719077,9.80885830676117,0.010447351801380135,-0.004722867980589252,-0.009616318062342994,6.0
-0.042813657876563764,-0.1471384532904775,9.853197663095,0.0071620424520830684,-0.0077349794433468665,0.004173100394380803,6.01
0.05354235822388669,-0.01453221171000759,9.75131696845249,-0.010086563880579198,-0.0016097267786940018,0.011646047215922948,6.0200000000000005
0.16909281014926322,-0.07206702273639697,9.901520166143793,-0.015443439595351216,-0.006585293799613866,-0.013282305956846143,6.03
0.02005122909933127,-0.10694447027215524,9.894075051799993,-0.001890735507195625,0.00459213993520484,-0.01113524667409467,6.04
-0.14286211348713354,0.10417937110752884,10.041718525780265,-0.0012206837502404314,0.004180651954727509,-0.0061633547320011,6.05
-0.0014920033686678207,0.060021079026303915,9.836549791697276,0.00016799222447933578,0.004812554322032805,0.019309935749571287,6.0600000000000005
0.05375628267698046,0.03188126048573348,9.848809207950206,0.0006839392522695985,-0.004279223639064888,-0.004062171244852224,6.07
0.04247509553157534,0.08660321449130842,9.920952674674965,-0.012107393455754128,0.010063317537050528,-0.002076643487527936,6.08
-0.09790742938103565,-0.1331898586346926,9.792741801208695,-0.008068615331708441,0.005626018918008017,0.0016561745445932698,6.09
-0.2956354787965647,0.10607504646011985,9.86890071943719,-0.007924262931108676,0.005691936929736154,-0.00913616530614442,6.1000000000000005
-0.16416965404614436,-0.06196767074979982,9.702841187560924,0.002885695100563963,0.0018295418189759418,0.006065848638287146,6.11
0.016970718863209274,0.026522323100366063,9.830601338852718,0.0025354416157906483,-0.01239147536977827,-0.011117790743694622,6.12
0.043157005802988944,0.0022479714836201583,9.861530286775471,0.014888296716562667,-0.021634162772221615,0.00034284774428453664,6.13
-0.2295009092026672,-0.041726953507110705,9.73625652011649,0.018939988600241917,0.008738021884677353,-0.008075714550914756,6.140000000000001
-0.16532597217879694,0.05196237185091086,9.830284108732824,-0.008652572345030004,0.004011795252479562,-0.006994968976106507,6.15
0.05650478339158152,-0.03557092990448563,9.780876901569801,0.0023849733998128494,0.0015095374463654568,0.003340254482470859,6.16
-0.02420339163951369,0.055409779335689274,9.77436912192653,-0.005174955830554531,0.002759930536640908,0.0006785915661258286,6.17
0.06435019758442595,-0.3287017055352905,9.947781302458315,0.007519872922887038,-0.010407817875498963,-0.005893202262869461,6.18
-0.11754443366833667,-0.06911920633683394,9.907411981390783,-0.0013717069646727168,0.006789803816822018,-0.022317286809313268,6.19
0.08344865710022115,0.04041240431928125,9.750014429363683,0.0009118730596277348,-0.0015714077971904807,0.022537851997230123,6.2
-0.015557564647343175,-0.12436605674215558,9.872042672983435,0.006017992816985411,0.0023916589436404926,0.004247623545553019,6.21
0.030658742171578515,0.2077328198054691,9.882133629017979,-8.246858113927594e-05,-0.007710828927248731,0.01085424587458891,6.22
-0.10852508674921282,-0.03981699854954557,9.744434790843094,-0.001379808665245783,0.0010028862785327348,0.007828397522348231,6.23
-0.056560780931017976,0.014659916893870304,9.958995560009836,0.009322861366938022,-0.0015978867675887412,-0.010787567275955813,6.24
-0.023534148969488494,0.06828026067727515,9.814383413762936,0.0012775564130655132,-0.0009094508408884443,0.01579151308689674,6.25
-0.192644836519859,-0.14679424799671517,9.801290808297152,0.01843448478630476,-0.012022305510236012,0.0098135635820557,6.26
0.05227906206366359,-0.0591596668179544,9.900697878668442,-0.007680832851164352,0.0060208823384446985,-0.002340826101766296,6.2700000000000005
-0.026349841062197815,0.0606863107541015,9.613225541177535,0.012491819687512068,-0.005756514644696681,0.021788610390623363,6.28
-0.005544871989238396,0.027120403123874648,9.712911333912391,-0.008832333127259766,-0.0033361791802785003,-0.0067176627775243185,6.29
-0.11035705169100261,0.048805272922915616,9.688859560697633,-0.00470628109915241,0.005211270383911377,0.006628083352478569,6.3
0.033572214005918054,-0.11585787693247257,9.89863044782993,0.015542702474696088,-0.0011616816495235499,-0.012250806192142846,6.3100000000000005
0.05349894621856952,0.10826483942073306,9.809789681206578,-2.277810472464298e-05,-0.026219601951205665,-0.00986972167381012,6.32
-0.07362165683939594,0.029651686247054762,9.856282816244297,-0.015209675442471163,-0.014527334054026324,-0.003426240003052421,6.33
0.07565852804488035,0.07122486474496637,9.827453487743012,-0.002285080144946581,-0.010057387755002948,0.0067541570033767245,6.34
-0.14729191442197972,0.11760237146649506,9.68013817927275,-0.013192633805340246,0.012810842334117303,-0.018237662560073337,6.3500000000000005
0.08836879231888384,0.02417360117637918,9.816342658383478,0.003980260388467327,0.002726661145332926,0.01243004348471815,6.36
-0.02790344066046345,-0.05687887438026839,9.672303475655957,0.013385594873991841,-0.01588176632004387,0.018381663378389982,6.37
-0.0750474006729901,0.05152697287759363,9.710651843420417,0.0038984795735974636,-0.005096563860211158,-0.002875411790229197,6.38
-0.11567826685096666,-0.020886167675206384,9.862208248687685,-0.0028967138314959623,0.027224488789036837,-0.011071070758659356,6.390000000000001
-0.17461433491923828,0.05339990958118436,9.86371767286374,-3.797939852839007e-05,0.01335830691138208,-0.004262788941828548,6.4
-0.012934584529664445,-0.09056634969432914,10.099269538676523,0.008525163024489411,-0.002907069400483286,0.0005446977382612432,6.41
0.06731312271054946,0.07935777214868284,9.95015583480923,0.0040570913316920814,-0.006240861360011869,-0.0020055544738786474,6.42
0.02899023061068213,0.10984964371834612,9.833744323290608,-0.00947129885875941,-0.0024532987001798963,-0.0057121959184867985,6.43
-0.0758434453283278,-0.03252769871579177,9.793404700859364,0.0203603551169257,-0.009533458439653374,-0.004391599449440275,6.44
-0.10049311215320433,-0.019437888788396654,9.700441715052246,-0.0007346365195257651,0.011784744912459108,-0.007687820746617697,6.45
-0.05057385152331191,0.0177766374017481,9.725782838398715,0.013765737303365881,-0.018059703923760374,-0.01895194117871447,6.46
-0.06362566516440507,0.02779385784029062,9.835127737764665,0.004151299211466005,-0.011053011621699608,-0.016228112967223585,6.47
0.08999996567905424,0.1967479574825173,9.798745052757285,-0.007945886061489146,0.012072997133797865,0.013912979980438623,6.48
0.15041544829487796,0.059673042397867394,9.888778336123977,0.012550754971522039,0.004598356844025996,0.0011583155155047032,6.49
0.14190898754868483,-0.05018596342694836,9.824657465919708,-0.018853906315686814,-0.002158015235144166,0.005103027838654052,6.5
0.09872122166676472,-0.0018960178177753102,9.666522125394964,-0.0049032918191299875,-0.004143189666213232,-0.00043775864334924346,6.51
-0.1562015890881324,0.05631110192075361,9.78343652841855,-0.0037890773452146087,-0.007765102217361945,0.00749335998189526,6.5200000000000005
-0.037019614030935837,0.05239584468376449,10.000695711607271,-0.003788799746492107,0.004950575079531123,0.020681460921648874,6.53
0.05866498914536244,-0.07510253811336266,9.995570962877773,-0.007851826584111802,-0.0022764947356285242,0.0023782302224836863,6.54
-0.12222995145192224,0.022503659208036028,9.821481844777713,-0.009404266693626628,0.01570223903055749,0.0003516253850753444,6.55
-0.0022933760173659227,0.051755298305734825,9.683548199539228,0.004290002262590412,0.0005294916341067797,0.0005127728601877355,6.5600000000000005
-0.09515790065185528,-0.06123607234889439,9.89629133644213,-0.014878187678518527,0.003514623094104461,-0.016902038221244302,6.57
0.0650000903419621,-0.10183026255033847,9.671978875030007,-0.0031169871107024566,-0.011144190828270147,0.0007986507074700691,6.58
-0.16970834583100905,0.0008324303920329711,9.897631011153052,0.01058641260599368,-0.011316630974447699,-0.015804769120219768,6.59
-0.13203688864311477,0.019967702985592004,9.830166265546762,-0.028217962753933012,0.00020967891591930972,-0.0008793678120269376,6.6000000000000005
-0.1106260950669003,-0.06440515642819071,9.793447152994121,0.009236653795302566,0.0006031606979175211,0.01191661168649696,6.61
0.07996201016518639,-0.2187646255902873,10.012069259184535,0.009006133396783335,0.006538436028204426,0.008848972382407087,6.62
-0.02461452452652471,0.042467862080718906,9.7493667518597,0.004208573176490559,-0.0029321164504918424,-0.012958968322991772,6.63
0.07837020122649938,0.16832107169333135,9.787360248798409,-0.0021787123572221726,-0.0016770237860264945,0.01898094756098623,6.640000000000001
0.17106362196279357,0.018126263401214825,9.988998268593873,-0.010805149108987378,-0.011602064023377967,-0.002048156456509435,6.65
0.05838736710521147,-0.06405694515785333,9.743943185351041,0.004490290590015552,-0.006818155592023053,-0.0025567050910786553,6.66
0.11302840712822598,-0.017325191959076554,9.868734025346297,0.003732040416906347,0.004636716139583012,-0.00016616984168835107,6.67
0.023980147430464366,-0.11732185266599299,9.872074296764774,-0.011713782306728864,-0.00873013802221568,-0.005554801035585736,6.68
-0.12261260603450935,0.06167570528446212,9.880236573831434,-0.0029284687950143907,0.011213197225463772,0.0034386464461130186,6.69
0.06383726211660039,0.052813604115279994,9.846153539767913,-0.024307322805329705,0.0025802316227790867,0.01957019451494191,6.7
0.006412765825623507,-0.03720067073271962,9.9093718292018,-0.0008054793945133637,0.0029987907415717297,0.003712959212413946,6.71
0.1110725232697863,0.1423768580053547,9.74265008561068,-0.0013268208646282443,0.008755795875889611,0.0044030856326527125,6.72
-0.024470883025943208,0.09616824215369431,9.754790146995157,0.002086334943467529,-0.006673603649616286,-0.011172459090306088,6.73
-0.0001816832444762908,0.07405749954033738,9.788482751191601,0.011824887185268751,-0.00529637920610731,-0.013851515381391016,6.74
0.02719977008732217,-0.06702720656354849,9.844173240444965,0.0009883484678042404,0.01178069774008921,0.0008355161219799791,6.75
-0.24790393782122752,0.10290675125868698,9.806266043191714,0.002798327924846029,-0.003753342357396312,-0.0006086803382847686,6.76
-0.03010151660842246,0.23911137748559166,9.825106250319164,-0.006266129393993486,0.008911638720930308,0.0027765253762171795,6.7700000000000005
-0.0647784409417824,0.1375538263752666,9.75747195639144,0.019977379905360217,0.024173758958105213,-0.02075470402970645,6.78
0.08287247537353598,-0.03739808001329308,9.824188285169244,0.01773414050151676,0.0004307043709444675,0.005172443318615762,6.79
0.04541724876606977,-0.16451111430991888,9.756400281478944,-0.0015947090999208213,-0.0003863497861821603,-0.011192995558762062,6.8
-0.02767627202221499,0.08506315263175883,9.951803426490953,0.006253504066277357,-0.006232863229695153,0.009708904001725381,6.8100000000000005
0.030906221021966076,0.1004662591149337,9.828204784475817,0.021463203375690486,-0.0006395720801465724,0.007166485310986146,6.82
-0.005778552166259764,0.1018151250084112,10.012178380093578,0.0068573639272784615,-0.009388069764127063,-0.017446643677205702,6.83
-0.024597370773064252,-0.16545449970238169,9.944655149842966,0.0009301775587494486,-0.013935247113914886,-0.00240534483540566,6.84
0.02136187077352865,0.1494236035621913,9.827517755624466,-0.008269775414903407,0.00985548790425597,-0.00540153499890819,6.8500000000000005
-0.0666304995029254,-0.13125293866979784,9.660726125624114,0.004234868761770726,-0.019530062835769416,-0.0002268137670593594,6.86
0.05643515648639289,-0.014112473048891436,9.654945034048385,-0.0003758356304583094,-0.007866557274438678,-0.001298886247057704,6.87
-0.08708354075517981,0.17876504768009563,9.748954227207719,0.0028388383908008064,-0.011895662580388608,-0.003891154176098141,6.88
0.10867034668120051,-0.0023882677771057187,9.898969408400982,-0.0070608164703291785,0.004515533059655848,0.007484405743830871,6.890000000000001
0.18454511035475538,0.21848252284266528,9.791376084197198,0.0010742505277448516,-0.02120579471877017,-0.006976799711833126,6.9
-0.018927306055725193,-0.1513062166029403,9.7061056558655,-0.0008875086910805747,0.0020500932129946746,-0.004036290892494477,6.91
0.1500320241837293,-0.0010258413532094432,9.738834743272568,0.004710993720179033,-0.00500847948415644,0.011362509248442352,6.92
0.05931206830238155,0.07210636988972405,9.744715420229374,0.006587196195357934,0.013213141833730895,0.006314678756621115,6.93
0.10253787275010207,0.18273043118946397,9.877834775632564,0.0034670358666186443,0.005664319846670425,-0.019346904142008858,6.94
-0.009670120730505199,0.14741043843466534,9.799740470428976,-0.001021730708110688,-0.0016756511335999913,-0.015681515931216767,6.95
0.05709880115774033,0.14400351194344838,9.940284004780077,-0.011248026634905013,0.016075273172227334,-0.004496432448741438,6.96
-0.007912019093103427,-0.08052156651340378,9.851429886034605,0.0013512422533472665,-0.015239197038875758,-0.009458095065071361,6.97
-0.02970360938289647,-0.011886657235889176,9.856977692259003,-0.001663477534190707,-0.005656252053683231,-0.011107025139532031,6.98
-0.16512722930872198,-0.06951675362236746,9.723570068264262,0.014062246796737144,0.012341730255959804,0.00785066949839532,6.99
-0.10916067024575636,0.25090204344834244,9.801155324136518,-0.007966358239409378,0.0031453084743280246,0.018085717974323633,7.0
0.07814092769040165,-0.08184045421649216,9.704783455553306,-0.006716621760919432,-0.01265109648486756,-0.007154570282957768,7.01
-0.16467655589162622,0.07499669398518044,9.807089249365477,-0.012898760770218995,0.00025780717593944724,-0.010104959303078032,7.0200000000000005
0.12831916639432786,0.10530170760765299,9.796101368850081,0.008985356717287037,0.006103994531185076,0.009663167451069437,7.03
0.06464093761741056,0.0166299555521269,9.931058718043046,-0.007330108824718532,-0.00218230926821087,-0.001475601373944892,7.04
0.09153094572580635,-0.18621189152334322,9.874995804513889,0.0007631382798951426,0.003096026280932097,0.0038258168752485595,7.05
-0.06240597448701797,0.024973010739861228,9.875250959022999,0.0050612839243359764,-0.004351921818574297,-0.013318695979882729,7.0600000000000005
-0.16459369505568325,0.01854958070390436,9.977471660577695,-0.0005175965255235252,0.01400771959494207,-0.0034956492504037346,7.07
-0.06854140966953899,0.0086772935673126,10.011792284536742,-0.011842898733797489,0.009787242225270118,0.007793281978575627,7.08
0.07238699093297772,0.08237674913856913,10.012665287809066,0.0010561783019787856,0.01611355369244488,0.012969547481031216,7.09
-0.03763300504764866,0.05659555649732637,9.784991413464228,-0.0004739923972193536,-0.013986961155517624,0.0073851367138916,7.1000000000000005
0.07746496092895215,-0.016708768257209915,9.729427245340853,-0.005217411866771346,-0.016569649230255574,-0.0018691144512338637,7.11
-0.06768010554575168,0.04337983400782294,9.809622556457592,0.008095239967880306,-0.0002451490846237602,0.009425885798338304,7.12
-0.0572890431456948,0.039373042631341476,9.716948760035296,0.019534734116154334,0.005805167185492955,-0.014691070563832953,7.13
-0.05266682187542006,0.06723519317502344,9.77081897737263,-0.002715701728243321,-0.016094433016612678,-0.0021695509095825643,7.140000000000001
-0.10977517747621551,-0.06791642381007502,9.958430896379442,0.014089572657880266,-0.006989574210900497,-0.0036663983379146897,7.15
0.03329426403835245,-0.10641591672442761,10.128548537765564,0.0013613000441492875,-0.002129515464658878,-0.005521864250892481,7.16
0.10450117375922714,-0.16776813796992393,9.613165242208982,-0.021129908922317787,0.011562109483807653,0.006343483725046795,7.17
0.16285655965130902,0.05393257767838671,9.764288448083851,0.016026999394613793,-0.0070491384368616015,0.013250653379411857,7.18
-0.014442158067799603,-0.15260859146212913,9.754730351699408,0.0014231695130992258,0.011179469131652256,0.0014357770493720113,7.19
-0.11152405531822396,-0.0799609704091885,9.648397841759323,-0.007238339344087912,0.001651198635929986,-0.00012645424543705834,7.2
0.10295109890460466,0.09346176039776702,9.908130780814286,0.0186322562622895,0.006545063049425361,0.020583134109462095,7.21
0.0324370716520051,0.04601572524819336,9.677147795781634,-0.01124474647258456,0.0036241947787530515,-0.004477578785687064,7.22
-0.0465121544761126,0.15356657268115545,9.595682780851458,-0.0030985503645818103,0.009435843859889673,0.007408432681622136,7.23
-0.09185811459773088,-0.014419141097604555,9.795723297479467,0.016608553343032614,-0.00675750539339688,0.01425345612817211,7.24
-0.060615734870929076,-0.0390963719054109,9.981848431733862,-0.0018064892796976941,-0.010015704266717874,0.01286488032334445,7.25
0.0748065806059421,-0.0736468703499872,9.829046044269058,-0.0010002355212863118,-0.007905765120446905,-0.003984689213825745,7.26
-0.05088113630092794,0.03380768798647543,9.675951813681488,-0.006265333515910701,0.00879155531890452,0.0016009815867446494,7.2700000000000005
0.11428137101461744,0.03167339957427875,9.675986349230087,-0.013193795704379088,-0.003992154705682335,-0.001954927730294507,7.28
-0.1174990075125022,-0.13575020448789665,9.833970460905539,0.00687865505614213,-4.93815066238043e-05,-0.014767119121489215,7.29
0.07467041868625098,0.004748559117311656,9.934196153944221,-0.016415173200198682,-0.0006735432550825425,-0.005190300473452881,7.3
-0.014308515928351168,-0.10669951460933234,9.730670403427725,0.008738011894566846,-0.00015098137589531662,0.017548322198566703,7.3100000000000005
-0.07126551989113751,-0.058289440627389416,9.729546930929148,-0.013201392906494289,0.013325004432983774,-0.013800699330561647,7.32
-0.018737448555608587,0.05242188944168702,9.727522089750101,-0.00410342402112219,0.00044555542295861435,0.005579140002182851,7.33
0.1453776024477895,0.05095165336087443,9.772603123457637,0.0007838850076613885,0.002529962507530821,-0.004871920170129459,7.34
-0.014809409245079029,0.0011120055308368908,9.719691966978537,-0.015510564334775536,0.005263429103287691,0.011375388376336401,7.3500000000000005
0.01483582233961267,0.08087807440259864,10.042077394151487,0.0017860285730900444,0.005731993166884515,0.006584600800922941,7.36
-0.1468525545215502,0.016903900328670292,9.901218565935743,-0.015240225164016984,-0.01665442805007647,0.008023318723535391,7.37
-0.1201418385758525,0.10566071144616203,9.785106171642049,0.021125846005078237,-0.010635849157415651,0.0033485664708758074,7.38
-0.01867656661835403,-0.054926664451331125,9.846201139656737,0.022669611583696004,0.005723474468041881,-0.011788410769103872,7.390000000000001
-0.10930373888831349,-0.06247746336617249,9.901791690296843,-0.0020574262469453108,-0.008844261727223662,0.012939984826267537,7.4
-0.04099987641211829,0.043551743697367994,9.896895079736723,-0.004812990003659532,0.00694003056725203,0.002692725126426605,7.41
0.0374209520512643,0.03197139330770054,9.890784077710059,-0.0038608374034502456,-0.013015123801883705,0.011420052858947816,7.42
0.10289487722972582,-0.11172961230240624,9.737049103260452,-0.0059417631352869215,-0.008370877630939678,-0.016869068679112465,7.43
-0.038987319517910235,0.08561844206001398,10.10312182472667,-0.0029510353931782463,-0.01044364925641441,0.019539616567489208,7.44
-0.0025051096145906975,0.10263899980680063,9.741402796009826,-0.024099537662029658,0.01725357113191578,-0.016584035471467525,7.45
0.05780774177850956,-0.03332402738051725,9.934228876030286,0.008466889068860459,0.0106737536174374,0.011087879568679597,7.46
-0.07163645315132748,0.1424923448643047,9.86651454905982,-0.009449727000226537,0.013928433823242254,-0.0062872820636578845,7.47
-0.134197233866913,0.03638745589913676,9.781136224807028,0.01169662334086625,-0.004855986578241065,0.0028041766202238473,7.48
0.039022452106051125,0.045542606664737396,9.703257036995094,-0.010014714507945107,-0.005827784047082856,0.0008505657280391979,7.49
-0.08579215644634161,0.04543236192382685,10.017027187161434,-0.014723595990215887,0.008975761520354755,-0.004772686876352821,7.5
0.03953379591332701,0.07008031388761678,9.915519052390858,0.006944474349601737,-0.0022811993159364365,0.012231377813231192,7.51
-0.15511606601746727,-0.12513890066344688,9.81157022479569,0.018605746152411264,0.008305970347791474,-0.018633443929593832,7.5200000000000005
0.07375530864590439,-0.1529569362243367,9.877779465599446,-0.010640313707097797,-0.0011791255733812809,-0.003355191534654415,7.53
0.026025203815585075,-0.015552680160462193,9.772545386990235,-0.011881412337032746,0.01090947932399365,-0.013484573089665457,7.54
-0.07985635220436932,-0.04195519750133411,10.184565361148747,-0.003595558134493529,-0.005151302831768059,-0.008137641727586263,7.55
0.07021353077102871,-0.029136369833890327,9.887536062643802,-0.005917447307178315,0.0025160854161631976,0.0018670576922792514,7.5600000000000005
0.11380141223273335,0.12929679361303673,9.828689950530503,-0.005051568411152947,-0.0208300960228675,-0.0011393250135149028,7.57
-0.07744023504262171,0.10431566269841169,9.78808621036007,-0.012325351473872724,0.004153645323859663,0.008438050242906156,7.58
0.04453146650810636,-0.01618874425219389,9.694172210374855,0.0014792139006994443,-0.015776354919610422,0.004228969016110849,7.59
0.1087380001285587,-0.004982179446316622,9.692943697612677,-0.005064806420541088,0.006966987977220336,0.0017587913347632844,7.6000000000000005
0.09638728877941383,0.16251243150639094,9.663229436329216,0.012488003374785043,-0.007162278152823405,-0.016839113396838207,7.61
0.08018653438913834,0.043628143141578216,9.903990452090781,0.0005943834713532128,-0.0007053005189321294,-0.0002970587380434085,7.62
0.06876318118680125,-0.06304646554889011,9.848623973487744,-0.008140717103849962,0.0006887890296778104,-0.011908266128172139,7.63
-0.08228338793070233,0.10358317924459165,9.865830378850372,0.03762387494194315,0.010355239977947128,0.010937806765594856,7.640000000000001
-0.0884740291815875,0.08331064747739347,9.8392929847069,0.0027069063363637127,-0.003200009789920059,-0.00196227671432515,7.65
0.028695772400532605,0.04305419901160992,9.817897573583886,0.004547821650339933,-0.007656691369014386,-0.005309566146632036,7.66
0.03952297089212282,0.04922037540789025,9.797638339448477,-0.0007922791976468262,0.01636048691750966,-0.005489267052087299,7.67
-0.1758294648303751,0.11474038538773704,9.883904734924656,-0.0005159838604020228,0.02141114166583629,-0.004304432533477998,7.68
0.06288016755419615,-0.05948178256985326,9.667647126699489,-0.012114117146350814,0.024621167816991786,-0.004320090420335252,7.69
-0.09690234401504287,-0.0812091224045024,9.677129093504586,0.006610983001026648,-0.021480497873554754,-0.0005112504630611966,7.7
-0.05879463489743905,0.030671383224625988,9.789988656219428,0.011205274566610399,0.0057618956080477445,0.0026925423077777118,7.71
0.0014976850016087577,-0.019051493872734013,9.963714415850863,-0.00014027224638836453,0.01001108337343085,-0.005871258301663922,7.72
-0.05971397969152725,-0.06630463341159844,9.815231491610012,0.011009392306631439,0.0036415651595267952,0.0003099658111098164,7.73
-0.018469264516998752,-0.07275200759960142,9.809180633591028,0.005101307226846337,-0.0030844503505600552,-0.004453092925440757,7.74
-0.01540562873931866,0.011684739259231039,9.865821361343167,-0.0024611880670167645,0.014627899673989662,0.008262060822413068,7.75
-0.027814746209156322,0.01913204180183551,9.916538624452288,-0.009112212987818787,0.020445905597256862,0.002187830870767341,7.76
-0.05117457399659897,-0.037380614995417415,9.757537893101,-0.013554433247814359,3.492390829483289e-05,-0.004642499946551203,7.7700000000000005
-0.024602141364280933,-0.00020364799527400267,9.784363661803063,0.010704008394534184,-0.009130041617527342,-0.0014497326845809811,7.78
0.1173811888499023,-0.028470533233665524,9.8003809741744,-0.010525094672898564,0.019172136398422905,0.021999171456698195,7.79
6.344456039506652e-05,0.03966198817703119,9.919093251314582,-0.003987167629399479,0.0032469378466209713,-0.0072547934159359565,7.8
0.08948956901078238,-0.09124786845947483,9.76784609428611,0.00492108423480425,0.007179652827164393,0.00703205259061198,7.8100000000000005
-0.056494473904056555,-0.057041839869370364,9.754335803293587,0.006212652481223449,0.004454339925908158,-0.004743354708209385,7.82
-0.03787733636485367,-0.0536411707274579,9.789257309513427,0.0033614914295315,0.0004341626729356978,-0.019495707002286995,7.83
-0.14598700893267103,0.06410417110600584,9.949391577633287,0.00362951087044519,0.00045949865017623015,-0.007152341604699023,7.84
-0.17739105046356035,0.06298933299310915,9.868452725835972,0.0033820284576297926,0.007842417716937769,-0.021280576599064602,7.8500000000000005
0.1045829364953494,0.02420786270910172,9.971366421337637,-0.0008637633911925148,-0.0009163694260231191,-0.0026651172178165476,7.86
0.0023055860001543428,-0.05907752137194472,9.748745359954157,0.029178774801886367,-0.014576330446626878,-0.014330171250461854,7.87
0.044381119745614456,0.09657203511301543,9.675923955215461,0.0068911062549378965,-0.008673330574737884,0.01288544854247247,7.88
0.0005499816479055856,0.10913848919974803,9.646292488059682,-0.004916861090908473,-0.0011539438009798095,-0.0039637564091553655,7.890000000000001
-0.07682052889742001,-0.04343373591256544,9.882179525208835,-0.01702326313066342,-0.002019102199672571,-0.010716063556623592,7.9
0.13003828891499128,-0.008032668604009916,9.979817918040295,0.016372200530665015,0.014715526086747388,-0.008196252879337645,7.91
0.018684928103235545,0.04015229602732299,9.881692238353335,-0.010441759455659344,0.019871393215152293,0.0023086702016170647,7.92
-0.01324298202380993,0.011088762889060478,9.850192756566587,-0.006005888753186476,0.012582473645789174,0.021348000681309546,7.930000000000001
0.08059160793763281,-0.027625856459968064,9.970056594658391,0.009608186260233648,0.0004698201688738532,0.02026594930507877,7.94
0.13035145918576077,0.04071196625832488,9.767487110217504,-0.005954476211724684,-0.004125885092485829,0.01333810516419685,7.95
-0.04530719474097726,-0.041631600681534355,9.80909047747302,-0.027389488004467177,-0.0038133263268512276,-0.015123744306340406,7.96
0.16630313388715906,-0.02734613545705858,9.852867445594432,-0.001365482245720596,0.000599867210658624,0.005969843050845311,7.97
-0.12622207894848225,0.0807033244739116,9.794176891560559,-0.015603657519718301,0.008447109964233122,-0.014106052434850644,7.98
-0.023775503409153187,-0.0020460856680064488,9.854246317786375,0.004991210412774936,0.011178596408648189,0.00605419681933302,7.99
-0.023502202179592813,-0.06774754601603324,9.847750230842594,0.010202317445895434,0.003711453998495407,-0.005499532172239564,8.0
0.05616415123905183,0.06648889494613398,10.023936797347744,-0.0093364627211382,0.02758116784696309,0.0016145363085262794,8.01
0.05296575792216049,0.04681147427918201,9.758437170491499,-0.010377356912684876,0.00714470435268331,0.0029545921405047504,8.02
0.041685722908161055,-0.024125291597354843,9.702425646388361,0.0035308232900786397,0.009304414450920475,0.011169052046989545,8.03
0.052971800283860976,0.166586235876168,9.695969268156725,0.006680639246971312,0.005188491797676525,0.005953974019820521,8.040000000000001
0.14461157708019662,-0.02776474045453189,9.849431759009496,0.008866556968041884,0.00432310420970613,0.007760331149240956,8.05
0.050102926176303776,0.09387820847864778,9.976704629707159,0.008083131267438258,-0.010162729648244233,-0.008305186886617879,8.06
0.16014232128075556,-0.13863239052722218,9.938509394043633,0.007358506820991084,-0.004431072204597152,0.010183185712129233,8.07
0.16229955832501344,-0.11224168699135846,9.853017608471898,-0.017098366710366963,-0.02034596276601587,0.007532744299755616,8.08
0.02398231394320334,-0.018779703847240672,9.814850843902361,0.005329389625965003,0.006649923752041253,0.0053271217874763886,8.09
0.05620082020797271,0.07047156919138935,9.90774389204211,-0.0009556768828978348,-0.0025528271889255815,0.0005170031197753633,8.1
0.01128244857020252,0.07348036252342519,9.80945666416455,0.021273457923016728,0.005135019970128909,0.007375020528530114,8.11
-0.12291249766692323,-0.0789696539046234,9.826523772456893,-0.006296104972101139,-0.0029911254940056553,-0.005575142211657432,8.120000000000001
-0.045319075073390114,-0.1170540152524771,9.696244282213623,-0.028304016516099074,-0.006314113985302698,0.0043258036690671745,8.13
0.006479012014328114,-0.019629060344856224,9.722040999246634,0.0002797915665762769,-0.0064870073301250275,-0.0034639145356320632,8.14
-0.18016630426451258,-0.1694377066855638,9.85533887996748,0.010300796998824843,0.019730767678700627,0.0018179216738274876,8.15
-0.03425738807031235,-0.06616647469428119,9.84414620910245,0.026081878507593415,0.0025016982655768415,0.0013289022564191288,8.16
0.05968991788042466,0.2122030472540195,9.835943060607361,0.014469820185827332,-0.012227180700079714,-0.009640510944051472,8.17
0.046216249130639,0.047420462955403656,9.833737000816171,0.009922196853819407,-0.005101488436701896,-0.020837970765625446,8.18
-0.01697303522739634,-0.06378014694920232,9.795032522047489,-0.01306737975516318,0.0033985098325427236,-0.000429469087559579,8.19
0.06910007308375624,0.1528683182389388,9.797827632829724,0.009611080485179809,0.008922651465273448,0.007919152269682744,8.2
0.05218745039830817,0.004036229712363312,9.7766648633077,-0.00382589908516106,0.005689224944933787,-0.018400342293271945,8.21
-0.08054781358649224,0.14681945247232994,9.601455459098885,-0.01104676770303175,-0.019871106019252845,-0.003167781042899398,8.22
-0.060730433783382734,-0.02288786021299358,9.697806186703648,-0.013725536332869272,-0.00017480859294656783,0.007555448693922745,8.23
0.1801459082581287,0.20519433933270173,9.741057741336174,0.0162274826267124,-0.006541986510558662,0.0037484252370866477,8.24
-0.19958963444187375,0.17810679165452514,9.776412725553342,0.004219677107730178,-0.0036848786583389306,0.006224819186600544,8.25
0.10623770583844264,-0.09259234612546376,9.905822472622106,-0.003317394063697099,0.0047895584437326,0.00955708066236552,8.26
0.1245103402079097,-0.046204358494553545,9.910048637626646,-0.018112720087581236,-0.00986459971587494,-0.004223430948931199,8.27
0.003615689882937996,0.022113419260884348,9.816302215104066,0.010311986603401635,-0.006234238056335402,-0.006253622800785019,8.28
-0.08155916827771063,-0.05387775375508635,9.839502129538966,0.0006656299892361036,0.006981945235760824,-0.008744816610089272,8.290000000000001
0.19720389265428925,0.03947411143981658,9.668226288820195,0.007549217538983071,-0.015815138771664745,0.0007783545984731999,8.3
0.15812638302172446,0.10381421789728261,9.484329501161705,-0.011481690407949052,-0.0021503575537172785,-0.006555317623528773,8.31
0.1301857795729314,-0.0753030952688749,9.877606357821469,0.00527807785367505,0.0033191892222052283,-0.0037963360036488343,8.32
0.20581579749249684,-0.11098621839822509,9.817618729199937,-0.008178840011086864,-0.013934750433548679,0.0018109443607010316,8.33
0.0932885536104723,-0.10971425877634165,9.796233077487244,-0.0011927025060021615,-0.0006968430297542611,-0.004898904240663726,8.34
-0.11020899778534954,-0.0030148463815187782,9.992771688657346,-0.012093276517392018,-0.008864709017272076,-0.008149096166577255,8.35
0.008603769893827362,0.012717389398491456,9.76520706949362,0.00791339247989049,0.004726406787732543,0.002596448880061167,8.36
-0.12983497401323357,0.052225747624809665,9.80654075226996,0.0005974725956821968,0.0005890726787356653,0.004354253884908778,8.370000000000001
-0.054243236377847615,0.05965345431351901,9.73957273000627,0.010906727835258834,-0.016404271219721385,-0.004255379852519018,8.38
-0.07911541801684815,0.04848197877605443,9.740545759799213,-0.0028002745622258953,0.003939941558697894,0.002350389494735768,8.39
-0.013412173145182544,-0.061533220480033526,9.800791036209997,0.011030861793701852,0.011377013328906605,-0.0034090124211785693,8.4
0.026976669287879437,-0.08320931543814623,9.907601384632052,-0.005461524990516752,0.006019014173403065,-0.005584097187440683,8.41
0.11682518929227022,0.02314875941822777,9.71080063311319,0.005353045084272045,-0.013150252756041068,0.016219851720782,8.42
-0.03112531367212103,0.020128073943708608,9.74420088507555,0.00612645358143497,-0.0010998269331104157,-0.0023315349017574735,8.43
-0.02707596832180389,0.00023536322802032575,9.678188930564112,-0.0025124367962047122,-0.001872481033774317,-0.0010198225135756394,8.44
0.03705122319951836,-0.07047608313300213,9.95657644675412,0.0044609142805736865,0.008714846544962325,0.004956008241286911,8.45
0.08398825471823457,0.13450750115707097,9.714844126464504,-0.020321049965760594,-0.025532626579691606,-0.010433201911656798,8.46
0.011419333916384132,-0.02397360895392768,9.741294931798013,0.007933273376636973,0.005765466314146252,-0.0006750947593135322,8.47
-0.07522071346711535,0.049852153070956355,9.925816507709216,-0.007101521716191172,0.01477600196135527,0.011613271400624873,8.48
-0.01719586541573749,0.026313582297997865,9.7448977459538,0.009105058973581905,0.011074651502145786,0.01238563368394717,8.49
0.17540617065856423,-0.009512509134251683,9.875406582841725,0.0024182167123826597,0.004355256216067414,0.017399701533774344,8.5
-0.0037137130352250976,0.1711868575803095,9.67993526986423,0.00919817680953755,-0.0045111368598680784,-0.008271211701660282,8.51
0.030165352297740967,-0.0412410047827569,9.975199925634394,-0.010568224934387378,-0.01410394472623432,0.015365696980450837,8.52
0.08335115128749121,0.062484788354102844,9.736231763799555,0.0010772672755896288,0.001671505807467825,-0.005018713689547928,8.53
-0.0008699818525649198,-0.025922829966844405,9.86847752837201,-0.014858166513521107,-0.019638345151178353,0.005363742810585015,8.540000000000001
0.19139507479603712,-0.019159284387128824,9.766166230020612,-0.008735311487068248,-0.018943421452387633,0.0006215552108539848,8.55
0.07926902117165249,-0.06676968406186488,9.754626039987393,0.0003471712751509291,-0.014724283161132423,0.0014864034945934628,8.56
0.06920047045260606,0.0754830571471711,9.638880077246855,0.0072500569468450194,0.0025980274446479414,-0.022971359504820623,8.57
0.016809167590454935,-0.06369351187301579,9.877735749396718,0.0029935270522066866,-0.0020295256144740666,0.015056368719065445,8.58
0.12110166426641161,0.005053406506929427,9.7149121451654,0.012810647455359628,-0.01155768607380487,0.01267860292811874,8.59
-0.14230746074305786,0.036494562472287544,9.779047138000726,-0.0006436003551665633,0.0030257013510883246,-0.009670376294429038,8.6
6.0953029772711515e-05,0.03868076599067933,9.728702696315981,-0.004572365983000404,0.002094929276482671,-0.0027953027708397847,8.61
-0.019246571953204724,0.02878805448957942,9.836189348164638,0.014784187979212517,0.0030265502044996466,-0.0016177510251479549,8.620000000000001
-0.039529576438018695,-0.06684134496938585,9.942092766475575,-0.003384234559524662,-0.004403219301665698,-0.019852669234972396,8.63
0.044571356419127024,-0.12267509348199446,9.873841520165254,-0.005028416898108572,-0.00264549229900081,-0.003904281645092346,8.64
-0.07606561694358917,-0.002134350729089731,9.851907166394975,-0.01248737201588505,-0.01244301593082108,0.0014974955628635732,8.65
-0.007958009640186293,-0.08067413924710047,9.792844626755548,-0.012121688043173703,0.001510551093598576,0.009007578547038701,8.66
-0.0435864344926189,-0.1187268268478658,10.021207072430197,0.0020614286224140107,0.0003280391002935527,-0.008276873527916052,8.67
-0.1473362432244357,-0.13504768760229074,9.820160873803664,0.0007417064202214129,-0.004160599180882645,0.007702629161267968,8.68
0.06707215536677437,-0.048726516761230944,9.73223455752985,0.0030846125296216786,0.015563711575162854,-0.006003645415389842,8.69
-0.2644826008194154,-0.0004259147016013891,9.849401471518576,-0.011385723884675547,0.002144618637150172,-0.0019843034957410014,8.700000000000001
0.056239030332843214,-0.06778478774833668,9.746835268023828,0.00021580560764827202,0.0030500468402096885,0.0037978642436303773,8.71
-0.0635201763516539,-0.0016510508397612031,9.785869426684163,0.019972429369830617,-0.011564099373835898,-0.009621318983444227,8.72
0.1536278832424762,0.030280513328031996,9.831973891946028,0.0014398844366048636,-0.0063557111984157075,-0.004873909812075398,8.73
0.017576084863672882,0.16213623940897304,9.744871461163836,0.0023215828382337866,-0.01509596259206789,0.0013944410081503911,8.74
-0.01588669619747139,-0.033356561581882355,9.851147870563135,0.004981269433408366,0.011296929908945484,-0.011959776167627785,8.75
-0.1401750196890213,0.009367068973889165,9.732976144350095,-3.8378487901370886e-05,0.007614711074130875,0.0005942006341034939,8.76
0.07201059246961448,-0.10077664061178104,9.741758215710044,-0.02183380272409661,-0.00778219109830439,-0.001392591193955514,8.77
0.19693377873836776,0.1784472168696455,9.882408381867474,0.0012270995184581182,-0.0045091663483406074,-0.007980184678909924,8.78
0.036519196451717584,-0.06953330695364188,9.708361476760382,-0.0005652334883269148,-0.004108259927783119,0.020934200466005543,8.790000000000001
-0.0909794640778877,-0.1985847468558058,9.934025515215898,0.0036359426010344814,-0.011210041909758536,-0.016913862409954305,8.8
-0.029378195172345994,0.017837525159050818,10.07522713992918,-0.01580712967241403,0.009976159911115105,-0.00564997405681129,8.81
-0.005808666008168734,0.21496543333820434,9.74383638587693,0.0010958025664055072,-0.004483130329907885,-0.014657313932095392,8.82
-0.06532836733926657,0.0823207052026786,9.767280157437995,0.011954085109023975,-0.012348295536866085,-0.015287978382971829,8.83
-0.26501601427696364,0.16795954148734182,9.726418452234554,-0.010319009304093239,0.00370074067042056,-0.02124506393385236,8.84
0.05930241030093922,-0.012237154425876438,9.834478741926496,-0.010535190808848094,0.006016068242044119,0.02624103561064123,8.85
-0.13800758748224456,-0.10562356636603996,9.709097571211283,0.002366179646212095,0.012592767461780627,-0.01012196754086294,8.86
-0.23041928296993702,0.17636637538946354,9.853681072846122,0.0019961550102688746,-0.009695345020020783,-0.005695594189007955,8.870000000000001
-0.014547633279774048,-0.05621326693746216,9.573891687702918,-0.0035754420503239077,-0.0016977194305300308,-0.01571580223006411,8.88
-0.05449733419489097,-0.19288690874205872,9.852745884291915,-0.005054802032464079,0.006387987419374859,0.009000889846460197,8.89
0.032584593880437905,-0.0640812099244344,9.77626253159169,0.0015245164621759597,-0.010542423332690077,-0.0036055439099661165,8.9
0.038272157889423675,-0.05468092665613498,9.805182333068018,-0.000291563182195322,-0.00855069888491887,-2.471090698897138e-05,8.91
-0.03975886812790583,-0.14257950420193655,9.729701472627386,0.00323952591922843,0.02083042045655576,0.013308477714402585,8.92
0.04005510676928903,-0.08067317129688231,9.849242844098493,0.001322600392362269,-0.006994981652910185,0.004238304577670866,8.93
0.05676927531326949,-0.04277127951304002,9.832538236962819,0.007816703767684618,0.027941708323289408,-0.007981610007860906,8.94
0.11970862077888147,0.05632398608473521,10.010278579577507,-0.01703027014184891,-0.001665186527171133,0.01822699037554994,8.950000000000001
0.14745801952822682,-0.13762087280046828,9.737458330857866,0.007405600143799316,-0.0021588866974262435,0.015206886947994587,8.96
-0.03775560552992093,-0.14509596517968715,9.848988469848301,0.007965984849069557,0.010225231145099638,0.007635709482575244,8.97
-0.08836032730734408,-0.087254183089141,9.900453532418517,0.011643672418521123,-0.007574225557254089,0.007572346029016787,8.98
0.1000772642187632,0.10799127051965288,9.746911976442751,0.008788733544504724,-0.0023383212235394495,-0.00788515600192249,8.99
-0.06972108788351492,0.056457685686312764,9.605061356887353,0.008785467544260876,0.015486093964818157,0.0025546861006591434,9.0
-0.017532025067945677,-0.0043063081791155,9.688531475084227,0.026283264209434748,-0.01969632634424321,-0.005882036723903276,9.01
0.012467272486760087,0.12123609576442691,9.801710399408078,0.016335728024177175,0.004129260579516693,-0.007906639850329068,9.02
0.0009893365902256142,-0.21897015194003,9.791912958133535,0.013230134609113334,0.00603351493807754,0.0018733614154645578,9.03
-0.020708603170639564,-0.003993451586271562,9.695141155435346,-0.009921278824168435,-0.009838654517162036,0.011020185922404165,9.040000000000001
-0.014101994426388324,-0.11004836990365735,9.588693648402943,-0.00458535165336979,0.00012664793478006617,-0.00558527044558742,9.05
-0.07824335024941668,-0.13523718632065557,9.809303822890268,-0.0013523403976301199,-0.0015858574632536457,-0.019872059973882954,9.06
0.06221987876389628,-0.08317181140231748,9.831294344414387,-0.00015615856077835625,-0.01172225540466967,0.0015502002383249185,9.07
0.017584134253767713,-0.08263204676748076,9.795480654553051,-0.004791217023688819,0.001081847589395032,-0.0033682808450551755,9.08
-0.027442216484072853,-0.06189611557513852,9.965160572008168,-0.01092684460782712,-0.0044011819270269,0.0010861600584262578,9.09
0.017160398956883736,-0.2162426708403832,9.808479295862965,0.0014796902572448648,-0.016461636962299214,-0.01171171177893475,9.1
-0.14334725030257697,-0.07888649037846106,9.76270365248678,-0.014389262246968853,-0.0034014409398183012,0.00865993318792654,9.11
0.06170254877582718,0.012083349139872255,9.725799720496301,-0.01243234595177311,0.0002591274603186255,-0.003043268086972956,9.120000000000001
-0.05194538476843144,0.1385779049088889,9.80122609731559,0.002320056722981826,0.010952783676509094,-0.0010300143400286757,9.13
-0.054334292605767415,-0.0663479034426679,9.826664663234052,1.5028854214058995e-05,-0.00403038192368893,0.014859593435711575,9.14
0.05894413181904604,0.1680143650044066,9.882365740145094,-0.002359396407233893,0.011578262167295796,-0.0028305139546537694,9.15
-0.11481813184480423,-0.008068884068709172,9.863517427889537,0.00207201203311898,0.009154607503364474,0.0007008385088816299,9.16
-0.10434609220182028,0.05236137209128631,9.978092623427248,0.008156409584104195,-0.010787040279130512,0.005206167125136772,9.17
