ax,ay,az,gx,gy,gz,timestamp
-0.04516150618277878,-0.08311497935744755,9.942870229911476,0.016570923434303837,-0.008717174479718924,0.0003277702768975478,0.0
0.1175274926444344,-0.07330646843471288,9.710048568027391,0.0022538856110876112,0.01657804523095898,-0.015340083907471679,0.01
-0.07846612708555739,0.0011392768107003038,9.918152024051047,0.0016572597159178045,0.001690587697807244,0.002969411055536314,0.02
0.009519284813897114,-0.005152183993023825,9.854524758480439,-0.004086620121585858,-0.031138601338848708,0.015185779137905796,0.03
0.007195610196804272,-0.12380164645962044,9.791307983235026,-0.007882328474997256,0.001496580271126,0.002794477073334056,0.04
0.10323027875257207,-0.1121634020115827,9.795005833438285,0.014818974838763434,-0.009584029981019301,-0.009071387921428654,0.05
0.055231544067136186,0.05290630781908471,9.84178163547642,0.0035380574065868643,0.006972979669305726,-0.007007097735228154,0.06
-0.1368357300066306,-0.07619949503381857,9.92605452182188,-0.00023123965210814057,-0.007319837622129291,-0.0011368428701973253,0.07
-0.01866095453052392,0.18017919133245386,9.9999117852518,-0.017491070190711826,-0.0022797278489537598,0.009607811772546266,0.08
-0.12663377195480785,0.10656851131577019,9.742761875383849,-0.0020062973513018368,0.008831871248032228,0.0049381820656051005,0.09
0.003950476170227253,0.10350961681521925,9.712099493838751,0.0018820649088271914,-0.018755978281907833,-0.007865882564032887,0.1
-0.11260272710380699,-0.05244628720010657,9.832616888376801,0.004263378045063886,0.001367932304749923,0.025972520682827304,0.11
-0.1433701590759799,0.00649847920447498,9.814970315784834,0.01661053053145974,0.004766448463637407,0.013787829404064842,0.12
-0.08164201528864908,-0.007303331207976395,9.619750885926727,0.00560279412437328,0.007366656650129605,0.013038286416342372,0.13
0.06707710943211519,0.1582778561807476,9.791347354271963,0.006899780737562795,0.008910058248433649,-0.015752303912058098,0.14
0.08347617965835619,0.0983908750554288,9.99812709378145,-0.024464287360222846,-0.009697724131913128,-0.016072560763290528,0.15
-0.007664109198657502,0.032905043124774595,9.71248943067386,-0.0031099627772790866,0.006048570825371273,-0.006505836198795145,0.16
0.0646111253521793,-0.09547984682327942,9.780448997264259,0.005726158265373016,0.00787473721139557,-0.01149645487912482,0.17
0.05311040668886918,0.03285723997802372,9.87558293226872,-0.005142388738455163,-0.008127082760218984,-0.000474938983011324,0.18
-0.025016093528106065,-0.058421598776535924,9.782755293923211,-0.004965391006185763,-0.0008270236850500616,-0.006677717186753908,0.19
0.03136842356671203,0.12450690395328728,9.718019798180219,-0.008563885263645168,0.0088642752178222,-0.0033758569181685004,0.2
-0.02094339705095241,-0.04988257818532483,9.734059628145898,0.00457506499356184,-0.010940151191357095,-0.006109473034433003,0.21
0.10656008338885402,-0.010255771122367184,9.774340890820017,-0.02043753765450921,0.009097773163865064,-0.01662970926650325,0.22
0.02814255853750814,0.08926575395076451,9.646811639343937,-0.010069191008272345,0.008271214041889342,0.007827794911113177,0.23
-0.17342339118501507,-0.028480249475157943,9.992229155992407,-0.016391723541790186,-0.014355660299267577,-0.0015149080510509397,0.24
-0.09734144405354078,0.07819722810151297,9.676518652171904,0.01740597179930725,-0.003371046162330759,-0.01054891262881567,0.25
-0.09052049887241391,-0.059572478751087544,9.705237757512325,-0.013715465245622152,-0.0022525288214244716,0.008552154708458368,0.26
-0.08479597719452264,0.00010702199997201661,9.872982909328046,-0.014882009963400993,0.0002734311475165198,-0.0219931198727702,0.27
0.14322141276405184,0.04216938068663337,9.951529574372751,-0.006546448636324102,-0.0037900717399751826,0.017399477042484564,0.28
0.026039279135994572,0.0013632162952943955,9.797289824023146,0.0036688164688884767,0.0034177969833010025,0.013648213704266577,0.29
-0.05996436497759938,-0.007967829722134983,9.751654595595868,0.004134221265147888,0.01813603849355051,-0.0014757024030635855,0.3
0.06478552965287276,-0.09990879871984744,9.949322713107218,0.016413999205015656,0.00989635566225057,0.01999083182157368,0.31
0.040783676621801004,-0.05432449745200877,9.875980911761568,-0.01026354271442515,-0.005810309519479239,0.006764958325226851,0.32
-0.2301239189176647,-0.08338193878220132,9.79330311008429,0.005674113835536497,0.004224745667737263,-0.0015408972263425095,0.33
0.05694198978146368,-0.13457393319829464,10.080881629689472,0.0028925108999283277,0.005076114182192815,-0.001433123642611974,0.34
-0.12732036670000205,0.055399889671939595,9.907919504031673,0.0016133365010673525,-0.01564439300776725,-0.0016496661244461768,0.35000000000000003
0.04007336922384175,-0.09046630448125878,9.725299767240728,0.012068263923271132,0.010434571704224696,-0.014563879860392781,0.36
-0.02603928033604402,0.12741357266390071,9.737082164646385,0.0053360982925746495,-0.003862491336865417,-0.000632383264473774,0.37
0.011193054828006371,-0.1315952623176306,9.829950964865759,-0.00652893913061687,-0.015519376135745524,0.012764802079500561,0.38
0.027175158446418407,-0.002882858877037642,9.839008236383846,0.005925678102358512,0.005158047610033826,-0.0066303628552323015,0.39
-0.03672492422688849,-0.1370110584635526,9.950849207902062,-0.00028509090396845645,-0.021410805321700584,0.0014370187714506468,0.4
0.10165670453084888,0.10235055117965611,9.870934412162846,0.0008681909115469884,0.004200357873761486,-0.007164128413233979,0.41000000000000003
-0.06500651483274625,0.17760939910567675,9.77931202638069,-0.009652023221465373,0.013143255640081309,0.006597741542299296,0.42
-0.14566777414846327,0.049323707545723176,9.743678228048989,0.0037102999981511614,-0.009712343076359932,0.004406277620034699,0.43
0.012988857394691017,-0.014348937879115571,9.923493558200171,-0.00757205383091718,-0.0012930367536418657,0.0009211339402926577,0.44
-0.09263427596594,-0.016671211716250835,9.70545029952164,0.000596613308830117,-0.010517999916549,-0.0038397149025968568,0.45
-0.03004714882904613,0.051036317284097577,9.881710155816819,0.003115972223449075,-0.006187708719378413,0.004075742318857859,0.46
-0.009765015134446602,-0.1839005754696411,9.806763943015312,0.005804788498113112,-0.0032390232701576217,-0.006007484263197276,0.47000000000000003
-0.04457739006208391,0.0673980651936824,9.870463755758687,0.0060570687035791364,0.0049259003813665395,-0.006451636435067049,0.48
-0.020560506783597204,-0.03509733102869508,9.893671331678835,0.005018227732079408,-0.006737957528405618,0.01209381694704821,0.49
0.004222060098983944,0.17954482999106736,9.729498969377797,-0.01402462644413971,0.007827247958647946,0.012396909311504997,0.5
0.15014859869400107,-0.12560955208425156,9.83665592551118,-0.014682072957937402,0.006364086133057539,0.013218652832737293,0.51
-0.013837123005021438,0.028407322139533276,9.714357278933942,0.0023265999619109,0.007331654384936179,-0.0005149738935318397,0.52
-0.026958389610156605,0.04182388709229076,9.912259246257678,0.002625188887770724,-0.0016381347949744793,-0.004977346920441823,0.53
-0.05889701824312496,-0.16462574704510335,9.805593125288993,0.004007476715804386,0.0003285640197210622,0.0006200502620873494,0.54
0.04834723574439467,-0.08712027934939176,9.913349184244536,0.007711323324406569,-0.0009472935364751062,-0.0015624620724998654,0.55
-0.00031622520793295536,0.018062598858359934,9.850721025686845,0.012850913978693257,-0.005784240827924388,0.01146118119983894,0.56
0.08085578282719072,0.015624649136739992,9.817345759003397,-0.002927657997232866,-0.0024473883054781853,0.006260401225958966,0.5700000000000001
-0.10749147063969405,0.022194809760844675,9.827629254281137,0.01722069758572648,-0.014368186357973265,0.008067924935945419,0.58
0.005311048568589841,-0.06031261195293106,9.783843864558564,0.010634182561545066,0.01982235630671989,-0.008492263233585061,0.59
-0.0551031336702056,-0.06795123327612862,9.900886721794299,0.01690593731227415,0.0022209080646776215,0.004563391907162369,0.6
-0.15430045116570495,0.07448120069605917,10.015255366051951,-0.00404978734775302,-0.002327192791492037,-0.006725354766016123,0.61
0.07942873621791591,-0.04421790329839788,9.834410669494487,-0.010590633332847137,0.005421785383858628,-0.006131654624506147,0.62
0.13231957956180856,-0.006412842226846325,9.756832847740636,0.007360342983386002,-0.006419946145117454,0.020188828807681764,0.63
-0.0013283172636183106,-0.0795855425624224,9.747166106351452,0.018006511487187606,0.003994320881830426,-0.004037911489182765,0.64
-0.0392067926022408,0.07143940382531241,9.738564300494996,-0.0020781453398990932,0.0076300478633019855,0.01411166502952294,0.65
0.055327848195236375,0.0671553223331685,9.814238914715343,-0.008565062644976317,-0.01695272853658568,-0.011573895077304122,0.66
0.05600389292022695,-0.01840690303544716,9.90703948574265,0.0037697798649907626,-0.003347503214732186,0.008638480388398656,0.67
0.019191479735137087,0.00010285053298930485,9.797302224049275,-0.0026233692713906,-0.0023719058273629677,-0.017877703676454387,0.68
0.10503590049979666,-0.1676743121019252,9.980313318976433,-0.02543825540537669,-4.689190043068984e-05,0.010021162585956379,0.6900000000000001
0.09655064398496982,0.06992267128444361,9.918643556839617,0.0040737472466287625,0.004607799360579365,-0.005329207564434452,0.7000000000000001
-0.01818643179785664,-0.18011392540287538,9.916645052429955,-0.0017368719723590668,0.0015873290128423036,-0.0008512823613839022,0.71
-0.12115790383632825,0.2840707283798686,9.70343166674785,-0.009990619540104318,-0.007760564800784507,0.004598794677627229,0.72
0.02076499511689402,-0.0694114815505435,9.867023078976473,-0.007082759364218947,-0.002628310981788436,0.009428858315249915,0.73
-0.014197433225184517,-0.19505096135273525,9.760691722184824,0.0205577593952343,-0.018004923594575697,-0.020344030280738258,0.74
-0.1669133664597521,-0.024123393876501878,9.664215756857548,-0.0010211064852681177,-0.004906081994953394,0.016351096393855676,0.75
0.008651295946878424,-0.03734062165801492,9.660130157686504,-0.01847704963222167,-0.004399254128950138,0.00022426995954501365,0.76
-0.017750810394800098,-0.011583330807310431,9.812572020181259,0.003564771261427044,-0.0029150840749622912,0.007781908378432535,0.77
0.16847720765021532,0.046006988679998424,10.002733314642203,-0.0006475150127651285,0.013005795584054387,-0.010392900372299825,0.78
-0.04666420828667185,0.05416420340801429,9.739201488151549,-0.005565722645481298,-0.004533467875286216,-0.005687419755679675,0.79
-0.05299131673993987,0.08245797644156683,9.73186160952419,0.00857259250123976,-2.5048962204990253e-05,0.0068511326988754855,0.8
-0.023654951862456267,0.060876365908802216,9.87074317038361,-0.011774966935529046,-0.010362274045304362,-0.011373492405949323,0.81
-0.06646351943021932,0.05690781579639498,9.712127410582807,-0.00759593062919028,-0.016845140914394374,-0.013663933701675417,0.8200000000000001
0.11648791339847227,-0.07051522474665471,9.91163060002306,-0.005569134055943815,0.0047758250702860374,0.008946502809921562,0.8300000000000001
0.02363183475122025,-0.05392243412054348,9.711807568129789,0.005550330323519024,0.015381978527849054,0.008131664761012231,0.84
-0.11573549208690069,0.022910767453095615,9.844282529148972,-0.004947435193031114,0.004286809531544261,0.0017750804536992805,0.85
-0.00401611870504326,0.06593887155529148,9.841493117679743,0.0022607480933922097,-0.009214944230276134,-0.0009085336531901464,0.86
0.04901632307991732,-0.12484415255624935,9.853568906348558,0.0021614822088879978,0.004237025970114352,-0.023165301530583837,0.87
-0.02763802450247768,0.037667631740991386,9.849289850393166,-0.008138700916224621,-0.008816369318412108,0.000216062652509143,0.88
0.09469768792469464,0.037713666303006585,9.775106611377566,-0.012036463079400513,0.01542449655509849,-0.009296935267044901,0.89
0.0887035329986245,-0.006062734137858256,9.637149140650424,0.00850979016378118,0.009634680731643686,-0.020667958555744832,0.9
-0.1237202616297401,-0.11533585702816765,9.879537076539124,-0.008263126400004608,-0.011868742448599269,-0.006129229446481125,0.91
-0.028281026359288242,-0.04760719644492511,9.89282469584428,0.011284998458489648,0.0016278837021227216,-0.014164084924200224,0.92
-0.0050037657472072755,0.08524793451613663,9.707517985932368,0.004247602582830905,0.011153946651244707,-0.012556478490045936,0.93
-0.001899936735919185,0.012618564697299064,9.82489625261297,0.006379965265240772,0.014791576117481513,0.014490886776140036,0.9400000000000001
-0.13728535739598174,0.03089142221243802,10.020900205006903,-0.002765537708096387,0.005510055840252693,-0.022224232783911092,0.9500000000000001
0.03554643305046689,-0.169781395754927,9.746878208000092,0.017006378629509166,0.013775865577900575,0.016820948643475542,0.96
-0.1869492366911915,-0.05695965514283207,9.805299251107366,-0.006015250331460707,0.017160119776727985,0.0013325726000479935,0.97
0.07568189237079453,-0.005907759542122162,9.754367937865343,0.012514367838887801,0.0032795867376573706,0.01425165549859702,0.98
-0.039532495665595566,0.17236232643553517,10.094651630662042,-0.00814129996696771,-0.008773160119521211,-0.007774433833082028,0.99
-0.10464691970110751,-0.01351797681849884,9.77594822013683,0.00424749774610018,0.0019515351831575802,-0.0215444238275894,1.0
0.07985890932491137,0.13195660428624548,9.897951935879638,0.010065999728857503,0.0022203179032605175,-0.0037200791457745125,1.01
-0.016607471150416022,0.023669501464017507,9.668687764982609,0.011382817384831875,-0.01274654670842737,-0.008431476404511223,1.02
0.03740107294629121,0.08574898995617398,9.863228459392108,0.0018988242221069662,0.009001898557031247,0.019997592397469333,1.03
-0.01257871245854656,-0.03753862023380064,9.734864485447801,-0.0011225329040630875,-0.002723123686437462,9.22939066905548e-05,1.04
-0.0682953296188438,0.09060315449426667,9.884513928320638,0.011260898525760194,-0.002756342903620144,0.0002498666123803521,1.05
0.19782335900920234,-0.005192921993165138,9.756958389568183,-0.0006559161541437159,-0.016345834579802807,0.0022629351056871125,1.06
0.11489440385556005,0.011288298624731193,9.81594922504483,-0.01029948033914894,-0.0022506680265153146,0.007022356317051178,1.07
-0.07789636770444815,0.012731294214690906,9.903361963195819,-0.0024855412395992506,-0.015371652508023697,-0.005503203896168914,1.08
0.07221863989777759,0.1405716101495532,9.796254516590798,0.008410412313208606,-0.011541848776352264,0.015116794889286349,1.09
-0.15388955335370189,0.016000037798083705,9.89781847002214,-0.0041317555008723115,-0.020580784143780062,0.015519377302050977,1.1
-0.006177107329777815,0.11414750324921207,9.907375893134128,-0.011249672503727322,0.0033934404538047197,0.011993577880532909,1.11
-0.20479853446955412,0.03482986140518596,9.80183189929264,0.0051932626542077675,0.018427591318608487,0.011054096650977485,1.12
0.05396684352894054,-0.2134171560949242,9.931071450672913,0.00043136609430571626,-0.006992190040859173,0.00318112291052235,1.1300000000000001
0.016609317115605968,-0.07837301297465388,9.714892312491083,0.020053211293570246,0.007278808991407794,0.0037014417902671297,1.1400000000000001
0.06969424178483398,0.038094556870729546,9.795925609275253,0.015321201986009324,0.011439500065272879,-0.00382282475523515,1.1500000000000001
-0.15785570830604637,-0.07458510060802286,9.841840178150647,0.003748136821195957,0.00011599048050393119,0.009129455888804698,1.16
0.008650645182362384,0.002006324627537526,9.860860180916049,-0.015968597692290237,0.0010512707252209356,-0.007364666142646889,1.17
0.10781682909355453,-0.013252972441106731,9.934351813449764,-0.01652771401692136,-0.00277804841369788,0.004318410628670178,1.18
-0.06957496525979034,0.020255339607432494,9.835102167547776,-0.015395740122815478,-0.016753642708137735,0.010879576927371749,1.19
-0.20837561074452987,0.1972254286872681,9.771047249556053,0.0002456117053303545,0.001221767589362942,0.005733741911543056,1.2
-0.047826154950812265,0.0990482493793907,9.875181256179921,-0.010319119983644424,-0.012308379442734265,-0.0062884031759746,1.21
0.0904316514676386,0.09803414870111321,9.664732936179938,0.00787842543460299,-0.007637450750899717,0.022235257875782826,1.22
0.08152516394854327,-0.0030889711180625288,9.777740697679937,-0.004115312002579813,0.003888999281209769,-0.008593203994829457,1.23
-0.0211313566742053,-0.06941019259344904,9.741230861825496,-0.009606861811709118,-0.007288902264327051,0.007574017023143982,1.24
0.13454497123167694,-0.07325781013005864,9.920508266077134,-0.0026322351755810646,-0.00013570513586828585,0.013645904262067916,1.25
0.025558898009783768,-0.058319667449478474,9.873332127764536,0.001837914414061944,-0.006747747960731733,-0.005773935438019897,1.26
0.07412302635771227,0.16547555530756952,9.774747558532578,-0.0019193208906853213,0.006613256271580316,0.018119053370638082,1.27
0.06319201123724096,0.008061972926917196,9.674119848967113,-0.006404888100830627,-0.010640329769089891,0.008476200911149982,1.28
0.26105756333688296,0.07801621424236141,9.81135799532548,0.002569886716546885,0.008999351847517531,-0.00781440583557311,1.29
0.06873457903441044,0.14022794638135688,9.776703147366028,-0.012307824547243445,-0.005207687293097769,0.01547247330122238,1.3
0.17240093043768465,-0.05835701201313917,9.8022654466426,-0.015704816670957432,-0.005449802168827923,-0.00707777802796025,1.31
0.03926924608768059,-0.020853149322641696,9.68341421905291,0.010902765137769055,-0.0029475357409714247,0.024818337061800415,1.32
0.02517095750864147,0.0006389819188383805,9.880452173621165,-0.004279329939206707,-0.005808948557525301,-0.006689299213469367,1.33
-0.09702553360951521,0.10563855702045283,9.951882067594239,-0.005204179750934944,-0.0020886167413293718,-0.011793573776766306,1.34
-0.1186336897524361,0.009711264740078353,9.810156624431537,0.007976759200790596,-0.015010793316182316,-0.0030943119765959965,1.35
0.07690526391449008,-0.07300285405316574,9.838093373945869,0.0027208776322140437,-0.003068100338200815,-0.019637100757551564,1.36
0.1083352593526302,-0.10298135804285238,9.998582960600213,0.005226242655072777,-0.015282981993043608,-0.00444196353080091,1.37
-0.011812119815199643,0.08209556310662164,9.779138181149332,0.01008227861263472,0.029120076553835254,-0.007900536093759512,1.3800000000000001
-0.08884522533215193,-0.11116088357212846,9.784434436312985,-0.006017829492347435,-0.011692019195744712,-0.0016564596709338383,1.3900000000000001
0.06602610480683926,-0.09609386786516624,9.547128315436863,0.020048417172628178,0.007104609984744617,-0.013067583745946255,1.4000000000000001
-0.18753558707839646,0.08068747103609847,9.780119858861257,-9.41074215692863e-05,0.01887993378888058,0.019350980765748402,1.41
-0.22435097782241795,0.03160773047109031,9.909074383307697,-0.0036943035192835904,0.004708076584031407,-0.012531022961964343,1.42
0.11342262054449788,0.038478523000700746,9.771363423115861,0.004594743703514877,0.010328228066127425,-0.0016267512458627265,1.43
0.13119701931727515,0.07924862749884476,9.896428992979358,0.00896580709490461,-0.01836343763629934,0.0007823767678841073,1.44
-0.06381416635578764,-0.006789900969357145,9.64882913699156,-0.017252253690813586,-0.014887700512377616,0.018656715467974566,1.45
-0.1264213496337082,0.08686609305689909,9.639921461337687,-0.007133257710586371,0.020780669445747923,0.012242608956200017,1.46
0.10984105753967827,-0.17324829659848934,9.697239810511475,-0.012519554251341365,-0.006969195781106124,-0.0035271295542530045,1.47
0.03383611001121969,0.06545460390256568,9.67194163767485,-0.003776634305857233,-0.00043491038144503685,0.012096592464825447,1.48
0.06695076471144955,-0.09253369556324392,9.880112500036596,-0.00391701205031811,0.014321268886705691,0.01408419685695994,1.49
0.06879084169986639,-0.0267195717896783,9.868612786959844,-2.606544472626655e-05,-0.0004923746088644241,0.010624471809771439,1.5
-0.11995878264740395,0.10686499326727908,9.749833213766397,-0.008124505983361438,-0.008983582378130146,0.0012287135102035168,1.51
-0.06117340070682368,0.04566184189932417,9.882446487759895,0.01101982605126715,-0.016694565303869896,0.00048185703157532686,1.52
0.13832978320425413,-0.0405625121266757,9.739341811697585,-0.010778334962914913,-0.01174823208573369,0.008491023586734245,1.53
0.10443057117537587,-0.09381465721054714,9.87698440022824,0.021045869656793125,0.0052302794649487375,-0.008879485459241845,1.54
0.11996729258269626,0.04027436725986031,9.79640413343065,0.003166267886615989,-0.0024326633477784482,0.008083376443612632,1.55
-0.04967803970356471,0.06482558931660178,9.85781683547854,-0.0075645042938901385,-0.0035275475409238866,-0.025555753056224338,1.56
0.07811689031428454,-0.08750233517649411,9.784285262095834,-0.0053851208768056534,0.018393045887937734,-0.019071834536572307,1.57
0.03490044661152003,-0.005174713669011141,9.651375673584067,0.0047515369714814975,-0.001857458356417054,-0.00555860312940031,1.58
-0.02507650301850672,0.06552274321804183,9.854413539697733,-0.007034344468649534,-0.01389106528025861,-0.005239539449357591,1.59
0.13975993790356903,0.08244659429740503,9.812691031937346,0.004752393233888611,-0.007212496901889461,0.018217987170109466,1.6
-0.0397078636276083,-0.1024936250285268,9.828986375902037,-0.02130164105772653,-0.004347065998221004,-0.010530388969101476,1.61
0.05946136953571285,-0.0241215373735199,9.846835933388116,-0.007593648603421583,-0.007835079464090561,0.019181633778806086,1.62
-0.164731218417708,0.24184536944170004,9.769882198801884,0.013862309146604291,0.0023069337132593853,-0.0009463859830597501,1.6300000000000001
-0.06348570512593664,0.1523075159766244,9.859168886084602,0.006330835301467188,0.015306486800722526,0.011370834537409162,1.6400000000000001
-0.11246100059794298,0.06030781254480572,9.932732759453131,-0.0018142621867741752,-0.011430330566164435,-0.009337714335778862,1.6500000000000001
-0.09659600570199955,-0.12841105157517388,9.955322645126266,-0.01301647655305875,-0.000984962392504572,0.0042101699124574826,1.6600000000000001
0.03037193884397309,-0.12536519972522916,9.84700870296675,0.012979509871293994,-0.009350391887652064,0.011238053703495912,1.67
0.0820077334841417,-0.04649010082392129,9.81802989406732,-0.00036243560084490533,0.005372868650088354,0.0069623064818915125,1.68
-0.03629909102409798,-0.03259486308582151,9.787676717659485,0.010405633430114875,-0.01736283409644073,0.0004906871037233805,1.69
-0.06788824587638985,0.2132590863964152,9.965390558950212,0.0009655230125002396,0.014589786394880882,0.008739528675688907,1.7
-0.0036436434360740846,0.19312997549412314,9.755680512956578,0.0167368050493443,-0.005893850331335352,-0.017283301697338424,1.71
0.03806885392039843,0.03579547466841812,9.957628264833964,0.002828850469697303,-0.006364426293343007,0.0003122959525105001,1.72
-0.09037421511700791,0.1290528905997484,9.87377013627646,0.021986390434747437,-0.000817116911142428,0.00537752644054436,1.73
-0.030672578428361425,-0.056961890177449216,9.75160935824101,0.01107358792099552,0.008608514138839656,-0.018146369747134312,1.74
-0.10875757282284793,-0.031327187683785486,9.923553667131907,0.0019018355969028726,0.006576537065714416,0.014570031279631294,1.75
0.038806409655007014,0.0349426936927021,9.74449951321923,-0.007298438733958916,0.01577645042917686,0.004681907355001845,1.76
0.043276965483856206,-0.06124661299301685,9.73308125248509,0.021259383970933375,-0.0068605856070544915,0.011500677445520616,1.77
-0.026644183933727777,-0.09434930943924835,9.72689634964744,-0.0007522399141118461,0.002499838257590921,0.005473896815621739,1.78
0.07620138648454229,0.13319736068921623,10.020811920579353,0.016486736452700136,-0.015164551381874627,-0.006644157419439815,1.79
0.16814100808513263,0.009754466094963688,9.676299976275184,-0.0073498014384749556,-0.0064385003257490915,-0.006728458485435055,1.8
-0.02999781398897099,-0.1161167146480032,9.878202888426562,-0.005720205550384449,0.0058774640124169795,-0.0006284687495853165,1.81
-0.08850916403824038,-0.23622846686107454,9.709747214282599,-0.004712639790911392,-0.00022171998225335263,0.00772553783635643,1.82
-0.00038371607128431735,0.05921962433465358,9.802235541387367,0.006266289701610816,-0.00023906913449732223,-0.00030461816864871255,1.83
-0.07835614163694388,-0.06736231288894794,9.71038519561163,0.006058909492047626,0.005426870925798365,0.012047337033819916,1.84
-0.03726746839241079,-0.12891635780191155,9.770611450211492,-0.016069696654007055,0.00986453258258307,-0.007309899620807143,1.85
0.08440327469567095,0.11077129659528762,9.789689150196425,3.734594175069008e-05,-0.00917050142083439,0.012596257510473908,1.86
-0.08745477593368174,0.007324160142647005,9.947005547034589,0.006079857884993565,0.008518849521248713,0.0009314868422793574,1.87
0.06948206762821349,0.08140637105973111,9.792370271468558,0.005939542786844465,0.0034886101388739376,-0.010758998527578278,1.8800000000000001
-0.08195673887973143,0.23068645830226311,9.570839919144301,0.0033925621787130452,0.018837732518021063,0.011868566488124326,1.8900000000000001
-0.01972672212236046,-0.12718341919963286,9.827717646165182,-0.0010263422100547286,-0.0028451741515803926,-0.015663890748016697,1.9000000000000001
-0.02800294871302189,0.001963822916351533,9.87267367026976,-3.819955020467461e-05,0.01222556689378387,-0.01036528200219797,1.9100000000000001
0.0072107530071232485,0.025581681859601097,9.81126830164418,0.020402707698099515,0.006961744058587335,-0.004382698155613332,1.92
0.027092059256224384,0.07957985971744978,9.915138858304871,0.0095118133653869,-0.006310083493515865,-0.013166319154063728,1.93
0.01773539622955635,0.08404122472030617,9.683528231973337,0.003150682589249331,0.01644751145539372,0.011914637232557,1.94
-0.00021388365534312409,0.052537345394337576,9.834616666186392,-0.002302729766139143,0.012517262082626724,0.0059286101778805245,1.95
-0.1678559692602636,0.024854864826075296,9.830445112272969,0.019961536799850785,0.006239185239625735,0.0024747035874819433,1.96
-0.0907930889406743,-0.04070096096653443,9.883578288003068,-0.006227115351923705,0.012256493865843515,0.002434876287399287,1.97
0.0309418415064925,0.32969055687845567,9.887643809102196,0.002168188661374161,-0.021891249273668964,0.0006979592409805182,1.98
-0.03457324313594591,0.018016504757248697,9.86722190173063,0.0021494012493875263,0.0025470533882406437,0.001538354063097853,1.99
-0.04234109106036338,0.14742156004624615,9.787624227936332,-0.0059218117162121685,-0.007516079041760935,-0.012739035060403532,2.0
0.04970049177010116,0.08391130512071039,9.775141180966544,-0.006469537777414111,-0.009998177768402353,-0.01946517934875268,2.0100000000000002
0.06611965164713515,-0.03552574772061908,9.758983257225912,-0.01748368613485337,-0.0024434746317234415,-0.005520521555431169,2.02
0.022184487339393145,0.08588039353483183,9.84193228492591,0.009209500641506184,0.013064953418656522,-0.020730492825304744,2.0300000000000002
-0.07936509102453396,0.12734925881026565,9.805817009875158,0.01207531913024521,-0.001982832394841804,0.008633488807298915,2.04
0.02581504082608508,-0.043956311648596064,9.733692257935793,-0.004567893422393179,-0.005511452563492251,-0.008868300024913841,2.05
0.1693039687818433,0.07830825757237625,9.750867511279367,-0.0007126838304407446,0.0026385946788315463,-0.005923234695110018,2.06
0.15717484194980116,-0.027176645059583067,9.861989515119578,-0.025895281513377593,-0.0012230997542782246,-0.019358534944342816,2.07
0.08664438435244652,-0.027856166297524933,9.8110193278716,0.011043886501864076,-0.005785754749203342,0.0050735848888450365,2.08
-0.13485585442618717,0.0333650100844471,9.719878843019204,-0.011063790423409244,0.0011459045406936902,0.019163149684432765,2.09
0.0556156433560388,-0.08548100125567265,9.792661076690539,-0.014817164369760438,0.015226752384887644,-0.011190346480404978,2.1
0.24416255770327694,0.07185859318607217,9.761481476036028,-0.0020761853732221085,0.005351010458773069,0.00987949695910446,2.11
-0.05337259646322237,0.05261447987640294,9.795588094215915,-0.000913988474804624,8.696880513183833e-05,0.005751655376272416,2.12
0.08723389125434107,0.0982855695157646,9.717556846885417,0.00013813020302370674,-0.012360595716208322,-0.013081862436432105,2.13
0.004685146933700286,-0.03528550981078703,9.784166651988247,0.009440040830596071,-0.029215158133520283,0.0071368166087998775,2.14
-0.2014781026339791,-0.1699286394091547,9.683738727349903,-0.004088984587664435,0.016667082150426255,0.0021025891639728056,2.15
-0.035923216053653506,-0.1012024934144865,9.737340435940233,0.006399068119732351,-0.001231901713916927,-0.00939423066210786,2.16
-0.14918112073856982,0.1878978030497809,9.905829424231623,-0.018030028352656654,0.006084547560289905,-0.014459900874028764,2.17
0.07055392381656299,0.009684900411759852,9.915394546893348,0.007820004694012204,0.007916096585235337,0.00296221476154948,2.18
-0.053880044806034144,0.004769575867943207,9.746277736082094,-0.00040448222441213407,0.011193408386416713,-0.0003541977350585112,2.19
-0.06756979251484303,0.052512668541529084,9.765274421220543,-0.004979547126443699,0.005322772065444659,0.0049909479140519755,2.2
-0.12129743279888919,0.08424287850309832,9.90923972397465,-0.010985162696853701,0.002176079551238515,-0.0017313954479940125,2.21
-0.09139546394749269,-0.12920648176925653,9.81206771717968,0.008826598992781846,-0.0050401163635871386,0.016603988378579345,2.22
-0.17275779956594017,0.07163322836834461,9.934534698650404,-0.003920945668791928,0.015064320847724584,-0.0008929681402239073,2.23
-0.04389318532780248,-0.08234503787805679,9.86342787169711,-0.020379610783544708,-0.017884052313372593,0.006827316320923035,2.24
0.16209467551862278,-0.08327587487966581,9.835638654067058,-0.0025744232960294893,-0.00997426204243694,-0.014793890788625209,2.25
-0.053165364264798155,-0.07389565224766607,9.69051722183605,0.0012520710569711316,0.008160196903989092,-0.01019769608559322,2.2600000000000002
0.16374917797936622,0.03761581568540314,9.790622894243985,0.012148901217777909,0.00963101938478956,-0.016719245823844386,2.27
-0.11869141814042301,0.06368890410286877,9.952391596979954,-0.0034333022341904215,0.01243665233360722,-0.011224780564007752,2.2800000000000002
0.2172188989227388,0.04679738798982736,9.848801883239492,0.003820720444722631,0.00571009655727959,0.0026668848853008955,2.29
-0.018721084460629422,0.07144704212753052,9.798553317273628,0.005178951954347176,0.0013488621880978424,0.00799906271930745,2.3000000000000003
-0.07754786410484991,0.08204780803459981,9.697415497788041,0.011072614209917214,-0.0033830919095568404,0.014571999473077323,2.31
0.04153433561462483,0.1029735785500962,9.900125574191371,-0.002069875530970137,0.0020808228949695425,0.007371956337250368,2.32
0.03573802279681198,0.10883506485424398,9.804811025354219,-0.00937543330966134,-0.014198300872990163,-0.00023247226520596074,2.33
0.058644290327745166,0.04579302528051288,9.908626405261668,0.010435240487584978,-0.00027920116630267505,-0.02507126464549786,2.34
-0.10043807643080593,0.07075547901526667,9.737529846739063,-0.005253844260649016,0.0013554673231309117,0.008059906028299068,2.35
-0.012716277224114479,0.07697681733848531,9.807250491115134,-0.015107873079899034,0.005905794506197225,0.0002315822061129024,2.36
-0.1474108772936083,-0.022194889941168403,9.9767851822004,0.0019037357394288638,-0.0037075575584511688,0.0011667423251382047,2.37
0.06786198258797921,-0.08501742508833793,9.833139927344657,0.004433147848771582,0.0045938637528619135,0.009022226228564247,2.38
-0.2701560874482551,0.18927800500052716,9.782887700999114,0.01201858845083074,0.0006845020815220743,-0.005431052295129806,2.39
0.13822346579816777,-0.04145592581285156,9.860479508956555,0.00496799650372077,0.0023239861397153223,-0.0065744652382373585,2.4
-0.04707780545902213,0.01882204785583004,9.960957499495002,0.001735319195214206,0.00017809335105842643,0.0005919705772407985,2.41
-0.004244339072300462,-0.05811864680968568,9.794101200697199,-0.017190905202344675,-0.010204832758905878,-0.007934921477457633,2.42
0.07488953836873746,0.008553526534222202,9.745462443305952,0.006614480219970864,0.003362207707968285,0.005280409841204187,2.43
0.08209435712699507,-0.07131316975419853,9.838455957641974,0.0024114669535761596,0.009695503971858031,0.011091854635735558,2.44
0.21817593042034256,-0.05772021403529313,9.747680591261558,-0.03068313304125078,0.010961111070746312,0.01627823382417424,2.45
0.14096716520539915,0.03972794165975981,9.852412308281247,0.0033085736283988837,-0.014279519834974292,-0.01246102280480053,2.46
-0.04007970594196984,-0.11479154685743131,9.74175444016326,-0.020047058104999405,-0.0014935022770468098,-0.007736684465609373,2.47
-0.045816704168970594,-0.12223300162469392,9.767893938616657,0.019219241010111635,-0.005153960466471547,0.008078530880518117,2.48
0.11297140127218022,0.12268599927618024,9.754766801207111,0.0021355317975614223,-0.0022024288494700388,0.028494169199004413,2.49
-0.02183590805359828,-0.01388715294425218,9.9236951978446,0.006980252675210636,0.00897550100869563,0.01377411310127444,2.5
-0.015836398397821427,0.059337724035164886,9.708301446522592,-0.000582353969269357,-0.0033955431651514763,0.0036380209970390855,2.5100000000000002
-0.05198590704278397,-0.05084866656582592,9.713928147035015,-0.006265877721170272,0.005740796259968083,-0.004862208612849842,2.52
0.10332818284828425,-0.10133065559336214,9.91677036470597,-0.008196050708402874,0.006272905061999983,9.487657501168118e-05,2.5300000000000002
0.02713820365658843,-0.014718898794498348,9.97901722667907,-0.003072432300762075,0.016120643931703448,-0.010027226773640974,2.54
-0.08506063423592665,-0.09796604535301676,9.885947066132392,0.00727877790717431,-0.003677184561441994,0.0180692523464192,2.5500000000000003
-0.12710185300413318,-0.020703287002126064,9.815576741178248,0.009785442793222156,-0.007764917100475596,-0.0017027649948812302,2.56
-0.0030529288047275245,0.015756255508169767,9.88633888416024,-0.02042369770300537,0.010675015541127032,-0.01346393611036852,2.57
-0.05734686242926678,-0.09978679695403254,9.78798340955452,6.290135915675791e-06,0.0007088745948803321,-0.002278605424066162,2.58
0.08076060131013213,-0.28617374967474857,9.690578866420163,0.012037137998428012,0.005806184741190891,0.0008972957664586623,2.59
0.06209098445064988,-0.19922968203235625,9.748454732874523,-0.010644618546118392,0.012868825390688688,-0.002649052296122532,2.6
0.0675593829449235,-0.18994400633834485,9.681665549041167,-0.0017408580896784984,0.004267357483042324,-0.02055991836498343,2.61
-0.08472646005285854,-0.0016110893708740767,9.812980665287313,0.007361085948189925,0.013442477115634266,0.00590404246319715,2.62
-0.040228691346298986,-0.13582022218232323,10.017098329091953,0.01421571497809262,0.0036709024456345026,0.015268356488960124,2.63
0.016558845758138794,0.045917809054415955,9.885253885155933,0.006141418367945192,-0.00342433691660001,0.0011475571400991907,2.64
0.11779404557036591,0.19784095473929794,9.85311652782315,0.011015670256136523,0.0027473268776663294,-0.01668253676469473,2.65
-0.045363687125542757,0.02134005123653386,9.829480909411757,0.0001913964598865036,0.004188878078522825,0.00972141994657584,2.66
-0.25108740732026286,-0.03976892520356668,9.74573033806627,0.004536956196458219,-0.010731367268420037,-0.006203996705593974,2.67
0.06289237371995403,-0.06596083883158144,9.928098536231328,-4.7477508099447436e-06,-0.009336637000779469,-0.012297984742521478,2.68
0.21050633068385,-0.06988612226924788,9.842583436110786,-0.001505447502866555,0.004874160314088965,-0.0014811779542670414,2.69
-0.09085903883853808,-0.03474848476452678,9.873821325139781,0.019580382532274846,0.0028731712450476682,0.009546614331656487,2.7
-0.07462891222247968,-0.1673611690001359,9.76735204304274,-0.020247789647012345,-0.017984814521056703,-0.010346842968777784,2.71
-0.07649772040022013,0.07341214003608927,9.858175010108132,-0.002196516989039733,0.002577575572076307,-0.00486482185113339,2.72
-0.026312910712178873,-0.048317832771742106,9.909956623434141,-4.512333724076382e-05,-0.0006403404391233632,0.004749269272118713,2.73
-0.03662054784031796,0.007149157149214065,9.967359546222704,-0.0023005621594385374,-0.002798933885636986,0.0050283991175868415,2.74
-0.09100085547584699,-0.03460389705345274,9.780829087798141,-0.0019073502373428237,-0.02121011507781287,-0.009288389562264441,2.75
0.15188727755209977,-0.13917110284922118,9.744829417920368,0.008533622143354161,0.010761283019082506,-0.006831495203155006,2.7600000000000002
0.19603798645992732,0.1491096947303443,9.900689505213922,-0.02121766723829716,0.013106542274682012,0.00026724312082828115,2.77
-0.03136274492091303,-0.021245484627778338,9.912636728211911,-0.003002981044555493,0.009606264957540944,0.003589237846829877,2.7800000000000002
0.0641865751930289,0.04743718125516337,9.899909309409946,-0.010580828601347084,-0.006393477359267155,0.01097641930649494,2.79
-0.029181043974192966,-0.042921663221528426,9.752803386596574,-0.010317968951362111,-0.016370210003333118,-0.0001570439936538253,2.8000000000000003
-0.09064710080599103,0.08021571978563402,9.920291810328976,-0.008460942642216638,0.000370880172024384,0.016219837440555426,2.81
-0.2080740432530236,0.08601730928047106,9.793995006518244,-0.003839457494814892,-0.003990972079205383,-0.008829753114009112,2.82
0.1676608725824922,0.09607506954918961,9.941779346056979,-0.017584201722360967,0.017377622247026152,-0.0037930463725179913,2.83
0.035544590802084185,0.017492416912969974,9.70505845359877,-0.0026560045780426806,-0.015570900436671593,-0.002424369316786341,2.84
0.0876596542078571,-0.09258835898541928,9.823969772486388,0.0013186141360345674,-0.0033624186985194184,8.387569132140165e-06,2.85
0.0036586560852210725,-0.017079244417147987,9.834117669052628,-0.02195093456573752,0.001308100740270639,-0.005802032672242237,2.86
0.09372056551046588,0.02431648549743441,9.807808233043309,-0.0024356250302602508,0.007858516229374097,0.003002306026785147,2.87
-0.20639934148680333,0.16104161851356966,9.69281273958352,-0.01086745007594299,-0.001061959502949635,-0.006502688906509524,2.88
-0.07350837489643659,0.195181025335078,9.894076299825288,-0.014507306664092038,-0.0035385726807678148,0.008828459499974526,2.89
-0.03905881297796862,0.08342945065382557,9.692345194689906,-0.0027384479951642017,-0.0015225721723911058,0.010834025306657674,2.9
0.17579099202345222,-0.011972710037663321,9.939110303509839,0.01153097029589824,0.032239651971974405,-0.009024145125964772,2.91
-0.0011896035660006483,0.008475691623477678,9.948500830705107,0.0008434646866864031,-0.006708576534918511,-0.017509135909438943,2.92
0.06360466600960703,0.024880201230881048,9.918850235785264,-0.005495508761146017,0.015219031734461428,-0.00041568022800164147,2.93
-0.0332668589816715,0.1359419035761702,9.877578866922944,0.0006457520071349005,-0.009646109431747839,-0.012337678348616564,2.94
0.2189143908483358,-0.03316706205163547,10.006362777788663,0.003448395692028388,0.005980773747627288,0.011741274314350814,2.95
-0.06115017242110781,-0.06535711514773727,9.706291960929251,0.01513372919904548,-0.017735284066606505,-0.001245711099524492,2.96
0.08974747465559642,-0.13599253457401336,9.704302003474453,0.0032314541673741388,-0.006933760599172691,-0.00813447029909048,2.97
0.2391805056988596,0.03594320963673198,9.637501030660419,0.004461599619766898,0.005321537133593302,0.012239423076127217,2.98
-0.010988336466969305,-0.0653447770704065,9.820952774179222,0.013853764380792655,0.005143427064147202,0.011524437237506686,2.99
0.2410692453684086,0.21841449877327224,9.785912836576626,-0.013648295470556338,-0.012753818126623927,-0.005319099532546326,3.0
-0.11010071773420596,-0.024445105730498032,9.663473564811857,0.00350444652364172,0.011183815667309718,0.009214767610760373,3.0100000000000002
-0.060353393858648,0.06530561933842204,9.915276901433321,0.018669203071896397,0.0010650613518838677,0.002188673359029866,3.02
0.05718102940052977,-0.013971221820494066,9.857002683848256,0.00098353476071493,0.0016526173090466167,-0.006921756654367974,3.0300000000000002
0.07193926817369932,0.10000018074405082,9.651757754909834,0.016015630866951985,-0.004161345322123881,0.01789447254970497,3.04
-0.04709000409277267,0.07021739765530417,9.763056017133458,-0.012008192984189153,0.006931917235843778,0.014815727839677289,3.0500000000000003
-0.11108545536319801,-0.09457198716234681,9.826839905990063,0.006019345252523975,-0.010215918471641114,0.0012054409523724128,3.06
0.13659261936571795,0.06228021466776504,9.796532209962937,0.016031595055177997,0.013083442015634605,-0.012184602125422016,3.0700000000000003
0.0028612581626091577,0.0511388294903378,9.83606792635276,0.003939064396737432,-0.005903456320083186,-0.010132741312526063,3.08
-0.15880493049875852,0.008985735595616863,9.87021954013115,-0.003596841463376795,0.0008564887436763674,0.007822431483566001,3.09
0.10465154732403295,0.006651251655905542,9.815170875094907,-0.0005264503468082242,-0.001473401030427457,0.003562964762485635,3.1
0.10927442282118881,0.09041543003973997,9.778011921274661,0.03440368744267948,-0.010239576280935534,-0.0030717878119476383,3.11
0.036515592142751956,0.14659904457196343,9.808288466238395,0.002653484783590051,0.002931629278671382,-0.004562348910438475,3.12
-0.034664747118025994,-0.016783223099792896,9.753008486998462,-0.002427270498082773,0.004846501867934019,0.0164501364950667,3.13
0.10362209622788372,-0.08597745238459598,9.83152762799747,0.020026090993014122,-0.013630364509117213,0.006700646909620967,3.14
0.02209815012084762,0.006990443021920415,9.971287911719818,-0.000676692350748685,0.00403754762855783,-0.0010073680041603555,3.15
0.003975024296328441,0.23683645054437502,9.86001520032064,-0.022508205579951736,0.007600339771633089,0.0066877558552816555,3.16
0.13413459269440128,-0.020523086912875847,9.901686517191752,-0.002888605172721268,0.004291582888116321,0.003668268659498282,3.17
0.03892449592767655,-0.047685871444968456,10.007494090123785,0.0026271431982886244,-0.01349587584628463,0.0030494794946334496,3.18
0.12891997863745722,-0.05067899745253021,9.843334645939143,-0.009987201441635158,0.0021524677436839503,0.02088299504481837,3.19
0.033847404282549114,0.1450584312572114,9.968853358300292,0.01980732633750515,0.0004939796508046464,0.005211538944376194,3.2
0.11696672552273205,0.0930253416848575,9.896312931729145,0.013411882067697197,-0.002744554866971603,0.0028729697930595767,3.21
-0.015200776379241979,0.09395239813789477,9.709518910536442,-0.005870436660690663,0.000742698035146223,-0.011903285550483254,3.22
-0.06594753168001667,0.053150535315058034,9.79459715599975,0.0006240976112883551,0.0027198203155451967,0.0028602350265190964,3.23
0.08556876563598032,-0.07619620283906592,9.767078834517537,-0.009079459908294564,0.010902851340555934,-0.0023692895087738014,3.24
-0.030164825144509147,-0.07823405864142034,9.709527031536425,-0.008801426536984538,-0.00420979263862876,0.007311066902637153,3.25
0.03140343785840515,0.02345316159121692,9.701154812313627,-0.009088537916267679,0.011470178163848283,-0.0051183182519281235,3.2600000000000002
0.008920865570807953,-0.0021649657930396396,9.709776668490806,-0.011326860652124805,0.006692442726075479,-0.0016250064976539645,3.27
0.08793612394720574,-0.028625476924765428,9.682717477913467,-0.0020816804302328505,-0.014290445951646372,-0.004098023017418077,3.2800000000000002
0.10846418480163605,0.09635192185367696,9.716188058929395,-0.001410052240496933,0.016367992541530568,-0.002369666740207109,3.29
-0.12555357064673936,-0.12827213603809176,9.769345971579193,-0.007215168363253591,-0.00481628713996649,0.013800684067598951,3.3000000000000003
0.023543846644602295,-0.13146565853832629,9.818873628290914,0.020927275688447208,0.019470969116293885,0.013410111627206175,3.31
0.13221419107088492,0.013828723365602869,9.686248861627867,0.025285389098760398,0.008489355831648213,-0.01332396004531834,3.3200000000000003
-0.06301264731918237,-0.013860152615584757,9.74297121108405,0.01313186177714605,-0.01446846738496655,0.003680923504913561,3.33
0.09666103885912632,-0.08681789681469557,9.599745103978202,0.013978679678966207,0.00242851353289062,-0.012847702866454194,3.34
-0.1252274368161924,-0.02943851051282681,9.998209820001954,0.0002547775005449814,0.0023823764619201947,0.003268348534003286,3.35
0.16010811415762366,-0.03660145156957669,9.93566173387763,-0.008374585798024801,-0.0009893532979928206,0.0018212868529455606,3.36
-0.07582576833352095,-0.010389528510304792,9.817458252639497,0.0007215149186334291,0.0032535602939696997,0.0047891528466110864,3.37
0.26631471642356236,-0.18787777458337898,9.782063743870447,-0.028440356395082866,-0.00633124085519867,-0.001952564149496651,3.38
-0.20789762493384065,-0.10118752043135854,9.64136396014119,0.009206957903433805,-0.01252998658372403,-0.0024349656543010234,3.39
-0.08404090529259028,-0.0435109947693262,9.770964314821157,-0.014238830813538828,-0.018733319609736426,-0.0031071499088823093,3.4
0.034275483982825,0.20434767617850264,9.558720701634781,0.005889627466861695,0.00012881994673504088,0.01301239091118066,3.41
0.022512350043162047,0.02845766273270472,9.72631361041571,-0.005123092474574539,0.00964781310592194,0.014428123269626543,3.42
-0.13273846089212862,0.05045412497608346,9.780569361642252,-0.011039665366019332,0.014380895214634712,-0.004553650659994732,3.43
0.0764282822297312,0.25535258432196506,9.856803473703813,0.01332495860222538,-0.0028972480719847487,0.009011184048709877,3.44
0.05199089904814004,-0.020057787002126626,9.880423788052862,-0.006283331490655442,0.012180673671472663,0.0032274410883809867,3.45
0.02551299422222398,-0.0755492050449188,9.70262726288796,0.006130107078537123,0.0037735606301000963,-0.013684647329539532,3.46
0.04989654169596189,0.005794634641660484,9.900306306556214,-0.0014789996603426644,-0.0029682511262857842,0.014942185898960337,3.47
-0.13357673078986915,-0.12467399780675277,9.790628948545221,-0.006420865997498596,0.006327235953880065,0.019358796716184342,3.48
-0.03659358033478913,-0.024145730538202972,9.873212551977284,0.005795133583335739,0.018797539995506537,-0.009869725558100551,3.49
0.0182969592692722,-0.136156709381605,9.66269340555415,0.0007471911249365998,0.009084821569842041,0.0022376184860152886,3.5
-0.14980736142896003,-0.17456761472217092,9.791152871279726,-0.009593133841768053,-0.0022862324182135107,-0.020349249789326892,3.5100000000000002
0.028821012978964684,0.019331724807788175,9.726488312000559,0.009344592582899745,0.009218337098326953,-0.022952042672201748,3.52
-0.015634285326194864,-0.14921023124191513,9.73696192603141,0.010178727053727264,-0.0012292049571140256,-0.015338195216817936,3.5300000000000002
0.07221798238028991,-0.0008220877015386054,9.740563780464251,-0.011309891336017914,0.013786342138058459,-0.006604309278694079,3.54
-0.030978521797282978,-0.003259186453537717,9.72750802276109,-0.013353699839448632,-0.014081896015894591,-0.006439740757311302,3.5500000000000003
-0.01609257745173611,-0.09870394067080973,9.898399570373067,-0.0019606396957290795,0.016324245248501616,0.0031731913989568646,3.56
-0.01617530289574922,0.010237564817333698,9.852226060103122,-0.007557938071276114,-0.01323994998083912,-0.0036479127585572315,3.5700000000000003
-0.01553303754610985,0.005536757659834521,9.811969895253247,0.016243690630217834,-0.005545207547984084,-0.0018833956766114985,3.58
0.013817922831878361,-0.034978303841778434,9.732671901159392,0.004183694530657917,-0.0055366744903965785,-0.012145194443325688,3.59
-0.0825942095483389,0.14397384295439344,9.837348112478155,-0.002131479773514521,-0.012208922265074374,0.0037344753852096087,3.6
-0.056142134009516065,0.12919673477328614,9.81109207158172,-0.010405836944786258,0.001723545009840529,-0.02045329971391645,3.61
-0.11396941187118276,-0.08381801408673467,9.826401095180206,-0.0066314352287056705,0.014015010476800788,-0.006591019339496578,3.62
-0.052146320038661945,-0.016205426983454726,9.73042197698706,0.005211375540198556,-0.02169909687705005,0.015819122299478877,3.63
-0.10728049829617921,-0.014112375968868435,9.768002934496113,0.00042346432364344367,-0.0002868221766285015,0.018131537844090974,3.64
-0.026763759785553422,-0.044823326651826555,9.907557377960629,0.004680280931519708,-0.001632764493433765,0.01118353290821728,3.65
0.09344404003854677,-0.05091733275095739,9.783672092755777,-0.009376856058992128,0.01603234633898814,0.00683890107055795,3.66
-0.02585969184061141,-0.03783457870134845,9.761370797310825,-0.0007213660956455544,0.007282842028247376,0.0011517773205862558,3.67
0.2136762105918475,0.1386790307392942,9.726580170505054,0.0004790156593207081,-0.010448326193405149,-0.018907954312094015,3.68
-0.04359002721392796,0.16565173373807296,9.737852150352957,0.015279929479641565,0.0014222113874109473,0.008346277940188643,3.69
-0.0738182478989704,-0.025592311223012434,9.950532697926402,0.007787876323411912,0.004848012630472835,-0.01063803126413322,3.7
0.024718291192362303,0.008377326330265986,9.761883603961719,-3.7208334137550616e-05,0.0021972897413007632,0.007601457287469154,3.71
-0.11492586146228323,0.023542641674812154,9.746293359729421,-0.005648399781919927,0.0018240478732142156,-0.007656260644329155,3.72
-0.005220846567834131,-0.08950798842597853,9.87583840355631,0.0004513840279002053,-0.011825804002783746,0.0015270764006254111,3.73
-0.11278060324397013,-0.06655313972775427,9.747927318509912,0.0018735014766971634,0.006452178097008094,-0.011963750489113932,3.74
0.019479023755886515,-0.026126178513307275,9.885322372469577,0.007888870439846978,-0.01517825101801647,0.005141929163143844,3.75
-0.04153026532515041,0.15239268347574927,9.729728081514562,-0.003079155525966211,-0.005963789002182633,0.021557214320861592,3.7600000000000002
-0.02717351448905644,0.08354509702203429,9.914864106338387,0.005801742023064314,0.01175738598902132,-0.007706986063561214,3.77
-0.007155223182225542,-0.049073157664609374,9.842557876837077,-0.0016305427241375561,0.0062131326558019576,-0.011310829171643739,3.7800000000000002
-0.1605000388086189,0.044906481858338815,9.824924764053657,0.009419967216457633,-0.0058881395637266735,-0.0029702479012698965,3.79
-0.053631661503178475,-0.07684137039764352,9.702019801400395,-0.006020837940097482,-0.0019842008355401754,0.012313007098028446,3.8000000000000003
-0.028241044918695103,-0.08547267536699273,9.496807940025374,-0.0011839501972489785,0.003224125314135058,0.0030306423017695617,3.81
0.05668120412803204,0.15183962876942203,9.805527236696431,-0.004909098804067395,0.0018676386846033846,0.006563096902094993,3.8200000000000003
0.06968959984037454,0.07750216100592738,9.711822039100236,-0.006374897538024785,0.006709874049978334,0.004536020188444908,3.83
-0.0024933498606997703,-0.03653891365672163,9.791031515329204,0.007411334487337649,0.014111555313169228,-0.00897593751596065,3.84
0.011192619530296752,0.007078220299207759,9.786029446999258,-0.015262609022475112,0.00879818722250012,-0.01840084449777121,3.85
0.02994908942198395,0.10218949037154107,9.766916623065061,-0.006342475998798077,0.0032725819007374994,-0.009017941385438877,3.86
-0.03219520049065857,-0.013902907752102973,9.788884791695438,0.0017453338563872425,-0.009015912473107781,0.00217182844872652,3.87
-0.04234719584771417,0.12568738715713057,9.822606438529768,-0.0012054522990742412,-0.007996062238271371,0.0201482947720587,3.88
-0.18870873565645188,0.10015237719652964,9.894604357559686,-0.00857879897282954,-0.011296990717679018,0.0011895126490460005,3.89
0.011879494204541598,0.08057582195130807,9.76778246831377,0.007118878601238108,-0.0022019534459377316,-0.011784215065474382,3.9
0.1163170059975591,0.14210478223486225,9.765762469173444,0.0008780190136155382,0.010110401434052358,0.01541427927539194,3.91
0.12371380542846144,0.10741048549043478,9.886764012377009,-0.0016580302221936944,-0.004662866142044247,0.015814012870670458,3.92
-0.055825792563139236,-0.10863952900673286,9.76576559956065,0.026086903153947127,0.005937088680218942,-0.0013039318829623978,3.93
0.030060966283378746,-0.05183871799598655,9.743097836480711,0.008606261580584374,0.003285070843841425,0.013247519033009383,3.94
0.09965029119566148,-0.22512445112452314,9.816157805090624,-0.0007654025070702655,-0.013412421509737043,0.0003938098568597504,3.95
-0.09134368432306711,0.07522485003938567,9.757908392564095,-0.009657314732922997,-0.0036240980515775643,0.013238313946439869,3.96
-0.07282725385821466,0.08565115371490166,9.858821221367334,-0.02202442915140712,0.01122502831335069,-0.019349785414743255,3.97
-0.06378112090559972,0.10940405943217729,9.90357833072258,0.0012386688878402061,0.004560639297509287,0.011687496161715587,3.98
-0.04423292441009222,-0.10114111012890117,9.813753881642826,0.014772285905244709,-0.01151354195034465,-0.00872354773491349,3.99
0.07201202351661086,-0.1090368753254599,9.750263994573938,-0.00569952414878054,0.01765007641056766,0.012590565644394074,4.0
-0.2100927798293903,0.052949754408737074,9.74545454266564,0.007468986176745721,0.013574065706356562,0.0035848040062386862,4.01
-0.08678895231901368,-0.04991608568301126,9.61323872500238,-0.0012646482680346847,-0.021225320881274327,0.014647374253469323,4.0200000000000005
-0.07240060571553754,0.17704891093381442,9.906994194969176,-0.0015849909109024855,0.01852810860850117,-0.00043885905058139296,4.03
0.051162544677697125,0.047949847977023556,9.83273640518746,-0.0012479908665976747,0.009842556514202414,0.01159396300142882,4.04
-0.023201924119484418,0.058297798172893295,9.905634982802928,-0.011613543165863844,-0.00198089007285398,-0.011585308214927455,4.05
-0.06011624452077209,-0.030881828905660713,9.702830314748073,-0.00804595771378664,0.008045808227055464,0.008073186733710686,4.0600000000000005
-0.1663465826140389,-0.029103818815049,9.883141375501388,0.004748939275732558,0.00752902781404707,0.019719709978015677,4.07
0.07043568100524014,-0.009728682115201483,9.757744663644615,-0.01574063775238735,0.005487493519006278,-0.011658488598642033,4.08
0.06244822972959631,0.19188929913855737,9.899607541286993,-0.0002177259259406273,-0.00753494081489277,-0.012390487375645881,4.09
-0.007440053603843673,0.12084996898331546,9.805614441229826,0.01937956016628101,0.014267003345814256,0.01837632644088784,4.1
-0.0035260442048699833,-0.008772905065455517,9.884783236287252,-0.0010632066329041433,0.0032082974136166697,-0.009964153794154733,4.11
-0.11441001213640777,-0.012581371128544086,9.847531530180524,-0.014045326905382382,0.02057508383218333,0.006170603563105802,4.12
-0.0016375352774316545,0.09917455076778292,10.025828976565338,-0.002321903153285429,-0.016406352766586165,-0.004524350118629002,4.13
-0.071764630261608,0.14369528888768518,9.992860526374534,-0.0032408923189046926,0.0008343917162391161,-0.0026929227132436546,4.14
-0.22337532059711807,-0.08384079720650361,9.960257004556363,-0.021127840334708718,0.008860727187282294,0.008215473423583145,4.15
0.06703567750584531,-0.009037719490397205,9.823705929685152,-0.0040638039919313465,-0.009540388228159292,-0.01007589660349958,4.16
0.017428676462090443,-0.26721651940106356,9.822175702205193,-0.0046723561534318695,-0.005264278773828485,-0.021250281101103444,4.17
0.014560327371295617,-0.05736943630122291,9.69677241954426,0.013227121064964832,0.009491341535154475,0.0019182040855506108,4.18
0.005963909962867935,0.004814162194884021,9.922005029619694,-0.0016989009936667274,0.003911742115698267,0.006423244404409775,4.19
-0.053072333533293076,0.08072424003403439,9.872542226744217,0.0014138501486551398,-0.0023906828950819655,0.013696143292208892,4.2
0.24111544452229805,-0.12298575450607903,9.783663535174401,-0.012479848673398282,0.00281112409033636,0.012050535376063477,4.21
0.03569488546776664,-0.03686568045614217,9.95856778233546,0.007230950120362734,0.015550369476653475,-0.006247403000164805,4.22
0.2313123122060491,-0.06545271142434415,9.853006335995675,-0.0016133196975235368,-0.0030905038204862563,0.0017813493347912832,4.23
0.09458459300458187,0.10462715685491804,9.78460557443434,-0.0007322164489217653,-0.007228047245632918,-0.00314908212417777,4.24
0.003966854621967014,3.511598942035391e-05,9.807513180925627,-0.0020424220236930726,0.015957686533036183,-0.008573956099852143,4.25
0.22378618197054467,0.1684689527676289,9.90947354197935,0.007701323398567146,-0.00018157928225249253,-0.014351307599422342,4.26
-0.014094241636599586,0.041904315737806036,9.5065984744599,-0.010070612147938892,-0.008197942492874316,-0.009184978045006911,4.2700000000000005
0.007294280935394532,-0.20991064383441818,9.7945707604037,0.02069990166228305,-0.001542925243938048,-0.031078246145801708,4.28
-0.14743006621289897,-0.04365888058619552,9.942979038669593,0.005747278302016072,-0.01824207177438078,0.004988584884765304,4.29
0.1082200083635404,-0.039293932063714614,9.744613586405446,0.007957966061345575,0.0007694177254053914,-0.0032196253068548946,4.3
0.11509865570208287,-0.05567999957730947,9.859103753738163,0.0052445571484725515,0.001022336600862004,-0.0003710617013431126,4.3100000000000005
-0.07314393401356684,0.08358578056934939,9.927651188739906,0.009767678343421083,-0.0046129060406303445,-0.002597792419483882,4.32
0.055291811153361285,0.027353611117936816,9.790014965488073,-0.0021612362438497767,-0.006266538872391055,0.007674100650727433,4.33
-0.12740905875184602,-0.005485046031578637,9.893689752795927,-0.0011837658280843863,0.010550647215899463,0.017449457142797224,4.34
0.024816960065852794,0.1542580315008349,9.726239966508928,-0.007415228566825924,0.011044269986573636,0.0011857303116550688,4.3500000000000005
0.026257104677677934,-0.1244619250437661,9.775114783382897,0.0020266671562184694,0.006538537996174809,-0.007155034000998181,4.36
-0.03983092230269484,0.1327866747081231,9.944738546335223,-0.0011600402738128342,-0.0014840476171909928,0.014312548673782602,4.37
0.019533148958612037,-0.010606527444830047,9.661260425018757,-0.012749129595602092,-0.001532821681671192,0.01213993722711295,4.38
-0.11205602513930278,0.07455404053297564,9.656765536135856,0.006696460864864195,-0.021629145597968517,-0.013506147532005216,4.39
0.016395555811230762,-0.07887175853320615,9.659683603950384,-0.005184261416363232,0.004232781558469911,-0.019243388061031687,4.4
-0.142489297081656,-0.0451952502926463,9.868833592075863,-0.01760882065572208,-0.01697872880129719,0.0013330305229165846,4.41
-0.05172097534209757,0.06031474657123331,9.77714449403593,0.006214970060778139,0.003953358857871002,0.005917967285284989,4.42
-0.11434585814715743,0.036626732760625134,9.771133319108962,-0.006184467429286588,0.004078945459866028,0.0027246272561304856,4.43
-0.08455952045347698,0.08873890422529601,9.68388175566519,-0.01396812608761364,-0.01726758907944052,0.002759896117245471,4.44
0.025520356135046707,-0.13276511222358253,9.83199855884793,0.006025956059904344,0.0023465566226366134,0.005945140341502214,4.45
0.10990522775710171,-0.24601982790428265,9.853207091032935,0.0065202633170740355,-0.007065998286045713,0.0060687515348802745,4.46
0.03233379497392104,-0.034990925296111426,9.790643418218977,-0.020040509565800085,0.001206245567300274,-0.0034556964617983897,4.47
0.006103563130056973,-0.20785774500281118,9.741353882518025,0.007514084542824238,-0.005329926530626099,-0.003645183824020874,4.48
0.028647387669829605,-0.04690976887427068,9.881407866306638,-0.00825142782823992,-0.00855803629332959,0.01420120466057403,4.49
-0.029607288689416172,0.00782842966573381,9.847972700539641,0.0003911524947553933,0.014128532660712503,-0.007615621338967774,4.5
0.07853091192457853,-0.025733589415202835,9.800322076237203,-0.011006694241663218,-0.009990158721617038,0.01696752132296552,4.51
-0.1651044068574402,0.21028019446832202,9.757256075579544,-0.012928092757129837,-0.006284606215978974,-0.009020658024544227,4.5200000000000005
0.013536208629414771,-0.012651196881082181,9.978420562756385,0.008644061194699917,0.015262427535922862,0.011810346744321116,4.53
-0.17726734467495114,-0.08039814461532081,9.885293324743461,-0.006004375633307622,0.002635999882432876,0.007258444454644679,4.54
-0.059811690981747795,-0.012127018833867062,9.792403070843235,-0.0023894896737391316,-0.005293406814709859,-0.004421798018443798,4.55
-0.0037452740116309677,-0.14125030958416837,9.704377858995834,-0.007514355543794512,-0.01414571129309089,0.0009616802677663122,4.5600000000000005
0.05145255466441966,-0.02470359236220426,9.814321680001088,0.0044184950200183,0.005585279488236165,0.024029436487619186,4.57
-0.0643246828919498,-0.05299534333605471,9.931866892021668,0.01526251454101845,-0.024635524267482084,-0.0005483481961889021,4.58
0.03476022745157988,0.01994336965973445,9.906305600133189,-0.004327638215499243,-0.012544106080346023,-0.005303382451619407,4.59
-0.01957511370494342,0.16020920416481757,9.936351953745962,-0.007883585161074428,-0.009891551299473502,0.00911592122572302,4.6000000000000005
0.046894020515910455,0.0376979282957163,9.83338052179953,-0.0081846044226955,0.004469258537656121,0.001774367771363999,4.61
0.17221771932635854,-0.09879677006333341,9.644770850838624,0.00156146702496796,-0.007240174158486615,-0.0005910477544120643,4.62
0.1413013462107998,0.13891568718873365,9.708820843791367,-0.0026691904917663907,0.01313424149448633,-0.009924841414398065,4.63
0.04586489516574136,0.05628903191534659,10.008683460638265,-0.02096465828171988,0.004114760761723154,0.009644038920539971,4.64
-0.12259860990741751,0.006744497713595407,9.946568902696013,-0.0006027737180422211,-0.012713134231905149,0.0007620115112873847,4.65
-0.0874080727707341,0.0909246681000278,9.80998948698476,0.0088311759654769,0.00591983116491448,0.008398550940678316,4.66
0.03222304889276863,0.03339747359579022,9.822301663997758,0.0014685431367212377,-0.0017908976680742709,0.002164396709417335,4.67
0.06500431330903067,-0.19313867355986045,9.97821920301729,-0.026186081530498364,0.004303932066491355,0.0016744704723359145,4.68
-0.059485684650099374,0.0458769010626167,9.746460800031846,0.0019091159207793096,0.012529929288727475,0.0021980790594830347,4.69
-0.017551192317045484,0.001515117510396409,9.78219925655624,-0.00592545194975861,-0.009170481298511392,-0.0039587979082853645,4.7
-0.207606055953124,-0.09153071385354472,9.678949529269866,0.0032940916816811172,-0.0016129449015720619,-0.01878091025379414,4.71
-0.09179512236504596,0.00981587285766863,9.723285626490702,-0.012202047331053845,-0.002065163217802115,0.005023359341266072,4.72
0.12870566730282984,-0.027664183552246348,9.668915284032376,-0.015351947168207597,-0.0022148603463689764,-0.016047209041449424,4.73
-0.026281648753591954,-0.07664575146716629,9.74932441508078,0.017127337193800597,0.019871685641427172,0.004487076493233958,4.74
-0.0971592541290272,-0.1471094015248385,9.85329513232805,0.005851669073151957,-0.011458656590206444,-0.007032560512854965,4.75
-0.007074838882377692,-0.07197816040246832,9.862731165647567,0.00393753387906738,0.008580750746028107,0.01750366969384428,4.76
0.09632677490983278,0.009811532700990049,9.921987399699823,0.0016704996563208082,0.001976820396203705,0.015001175138998953,4.7700000000000005
-0.12421245777368489,-0.07878661886289876,9.977808682007554,-0.0021903833221967005,-0.0019634802041796273,0.004973991814185534,4.78
-0.020391200831901057,-0.17237491419314277,9.884695511353595,0.0007236360602616712,0.0007697159055150037,0.02876113394074231,4.79
-0.09584749779284903,0.06628913098936474,9.726971101626145,0.009922694457112588,-0.001610927783939538,0.00871007139592472,4.8
0.17196575658690902,0.10125498899401818,9.751486534330438,-0.005133645912732615,-0.001604815214624373,-0.0008893414386027636,4.8100000000000005
0.048213059171716977,0.17565942602603024,9.780491841610425,0.012080417364264349,0.0011492020498760685,-0.01709308155563417,4.82
0.15736242685303922,0.20748750370388486,9.924988502718392,-0.002933870254042625,-0.004931754088851095,0.012424459174759706,4.83
0.09380993827877633,-0.1670969209148201,9.70543904507082,-0.014966450852592846,0.0005429079935827542,0.007450112350143298,4.84
0.05103241881383683,-0.046090608247221235,9.883124199620383,-0.0035571553002257832,-0.005356399319581428,-0.001538094998460014,4.8500000000000005
0.21228595961386976,-0.0798769662411883,9.787153767058749,0.006967483265751179,0.010165449788075456,0.006749271573923933,4.86
0.07223568789222386,-0.11905612713058973,9.84798271439608,-0.006532701461929703,-0.008131331513419708,-0.012877331940003175,4.87
0.1467520314269479,-0.04707080970683757,9.67339348675513,-0.011872625684156477,0.010914133567809434,0.007837640138225244,4.88
-0.1469711280209179,-0.01893760214076284,9.889378021839253,0.006839455141032286,-0.008492188778944731,-0.0027464991216108047,4.89
0.009708117102192527,0.1197293841661772,9.864697828558295,0.012048445793878924,0.015862782914725482,0.01104450822851379,4.9
0.08552037596774364,0.0747212183838672,9.994982479038761,-0.014239146898165172,-0.008477466167166136,0.0019256410734284325,4.91
0.06358912241874681,-0.10478736578872878,9.814616985664712,0.004128948823219527,-0.00010741127859326555,-0.002846025464371696,4.92
0.13633993700350105,0.18126169371572864,9.832545403072466,-0.020096516277191504,-0.009411201271218845,0.008109291522167258,4.93
-0.16581873558906468,-0.04751129901312609,9.83003355360335,0.0037439590355025686,-0.001062708139591157,0.013945817165017544,4.94
0.006810504052722559,-0.18791927406073825,9.901540130960788,-0.006919530771007747,0.010149534769320583,-0.009327801886309144,4.95
0.07059196359537386,0.24926390309802393,9.875866579395062,0.00773826942079522,0.00938501742439609,-0.005747559983354752,4.96
0.08936485595681913,0.19955616662298487,9.890347729001476,-0.0012688813333936245,-0.0039017163417772323,0.0049563905203957245,4.97
-0.34044213244625554,0.02375691790070175,9.795382578248962,-0.019000484277381338,0.016841663022411225,-0.020744557430191435,4.98
-0.13325007282851506,0.05357516883629916,9.69726889344874,-0.00630881329624431,0.017976889122334784,0.009443815740934823,4.99
-0.03966332147353672,0.00975791381065504,9.684445572903293,-0.007627202980946754,0.007288493220610806,-0.0033963268453140027,5.0
-0.12681006520275395,-0.09256098274397076,9.772133798990657,0.008705580838557431,-0.0025628290982052395,0.0018017527122829399,5.01
0.022686895514665836,0.08453986718846981,9.723718576966348,0.00034764419319018795,-0.012636577994619187,-0.020193086065133373,5.0200000000000005
-0.12258876193884949,0.03719122645503566,9.594653142230335,0.011560348440483061,0.009019832432187541,-0.0038093507110065067,5.03
0.08272091812772872,-0.007823710345270988,10.046476809085178,0.007498186180587546,-0.0019720062662218736,0.0030785711467371654,5.04
0.11649674116289957,-0.009601588788577024,9.822077894134246,0.0029412198604150956,0.008808563631284586,-0.015508109656725944,5.05
0.11417911140642352,0.020870642433576742,9.689886636799958,0.0020470296982435868,-0.009277930770401123,0.0005476455337970067,5.0600000000000005
-0.020308655503117792,-0.1599360770211964,10.021042513494107,-0.0024072947350017577,-0.0014171065859815038,-0.016065356439886526,5.07
-0.08408328516989522,0.006761144064481817,9.923381727347815,-0.009650048854248356,-0.009947655744510429,0.007521076161693272,5.08
-0.07603419999808425,0.05443770591418421,9.941528195638407,-0.00807501628886059,-0.014857555688111201,0.009558949457598012,5.09
0.1417455648294019,0.02818368014177852,9.930189688954313,-0.005586123020791688,-0.009293423722824663,0.0020273925052589907,5.1000000000000005
-0.0037767482573925837,-0.1266265460619864,9.875671350564799,0.015553022402640592,-0.010649007120278246,0.006000887669884931,5.11
0.054216184220336916,0.06824780477365082,9.92750203134932,0.003874874408551693,-0.004127951084339014,-0.00940818251903193,5.12
-0.07989404312899556,0.05224312460211414,9.726254749341216,0.006321127340071484,0.01284439159804084,-0.010058808566336164,5.13
-0.07956193963096003,0.012533268878445324,9.889444450424492,0.011477917014262776,-0.02248959988409635,-0.0012243145085926743,5.14
-0.023650110219275218,0.06388054329510882,9.606786681376747,0.0200581188496202,0.010377005506083326,0.012100885575287998,5.15
0.015712270300203876,0.02655858195778199,9.96670179848402,0.0022095569869285347,0.016563135529648103,-0.00513881903017371,5.16
0.19350263382562055,-0.08672696626916737,9.648077622517437,0.0025166089795889248,-0.01891396908288645,-0.007323400622338506,5.17
0.05031736375114371,0.15592887239265338,9.926953880284852,-0.005976074365847806,-0.0014453921964821532,0.01382616552234137,5.18
0.08110017284701806,0.0593299377870003,9.876887211658975,-0.01642501705342304,0.025324424182273587,-0.018588250582728845,5.19
-0.302339520096025,-0.13926995461804148,9.768311862001468,0.00488322698036603,-0.00887032781740659,0.004331106189485701,5.2
0.17017482098672834,0.1447850328717769,9.845961613078128,0.005514155048827574,-0.006472484304920565,-0.012578557528028243,5.21
-0.055221092567136566,0.07602026078423897,9.757322073256324,0.014380785631148234,-0.009115334980878239,0.010109707846114114,5.22
0.2041345976251118,0.009691851727961484,9.814449813508178,0.004359665227761932,0.014522879876458922,-0.013084896237442873,5.23
-0.06693712857591541,0.011251126175728609,9.75137169460941,0.0031343394077998042,-0.0022460479494455367,0.0019931365048051547,5.24
0.04942576973891155,-0.027022679878599937,9.821056543486712,-0.001547540149232336,0.00394267922691796,0.008138684798042329,5.25
-0.18904736299286184,0.010701665066972657,9.774057770846861,-0.0004463750001810454,-0.017913849492609178,0.015264262071565088,5.26
-0.10097339452023142,0.14531133492330625,9.856472293297022,-0.0027926782677309137,-0.004703293273324662,0.007092511186412762,5.2700000000000005
0.16287267482002163,-0.14729665580788795,9.81878921669537,-0.003607643980443848,0.0024640603771307404,-0.002657669442493294,5.28
-0.04532556404106061,0.029054451307183288,9.93862425597328,-0.006735385503590822,0.002060292035789788,0.0001517932649585038,5.29
0.04666029387803886,0.0834443868506049,9.711304248019138,-0.0015522457797910764,0.010219610211027385,0.011578803306826679,5.3
0.24346831244949044,-0.0244170263201184,9.687188506452497,0.01406885928245224,-0.014573625495071919,-0.010647077196984964,5.3100000000000005
0.13553247608507346,-0.10814763677232353,9.9074517656837,0.002228703828946132,0.01152072105082076,0.009812173776899979,5.32
-0.1439217684912112,-0.08608367796486258,9.942279289641656,0.010491709102014643,0.004390249907964634,-0.004256219463478158,5.33
0.07113707253044547,-0.09943610709238394,9.819453788068255,-0.008354589559640045,0.0042533407235066725,0.00093674572432561,5.34
-0.10779895284829631,0.14752614328899086,9.798672423845527,0.002577013433747125,0.011405310537475637,-0.004521925012928908,5.3500000000000005
-0.059434414959034614,-0.15044000076685982,9.603470179836616,-0.004795983365722804,-0.01512256071385307,-0.011331645731209084,5.36
-0.14919493868293338,-0.12418602262835504,9.795288951551662,-0.007093584087278144,-0.01114295773832359,-0.002684135307525677,5.37
-0.0788863269171276,-0.04765974720715038,10.035075391072844,-0.0012673717431982948,0.018851286578438643,-0.001410682979814041,5.38
-0.12648488624224993,-0.002120350327985751,9.827060138899402,-0.003619030434542032,-0.017072530178515996,0.00650106590007106,5.39
0.20122688893218005,0.09769893625357062,10.190100691547078,0.003987974533929959,-0.014014556590467893,-0.000643536993551016,5.4
-0.09752349210220601,0.1133969398758302,9.876835964195852,0.0037861233343953883,-0.005285749863408013,-0.004234348977440317,5.41
-0.0414960989253546,-0.03619091382373428,9.676051876514286,-0.008858229789163655,0.017767273648847087,-0.009207982145226128,5.42
0.042829371429529285,-0.05029422730535783,9.718422098634289,0.01279522323012429,-0.00387834644533563,0.008765610965236509,5.43
-0.07047586917686391,-0.048591213017901626,9.776944838220299,0.008776325505268093,0.004908378290035495,-0.0016357517901049309,5.44
-0.028782967982667287,-0.19092801220092992,9.723075118868145,0.0023029769865355806,0.0009994249300048785,0.006294974011109186,5.45
-0.01267525212346338,0.12221445846486001,9.963832547823971,-0.0013249099478784998,-0.0010472431471603577,0.007780491081165006,5.46
0.1873667117640511,0.05901545068772392,9.677901152297826,-0.009234273225969605,-0.010959397941485172,0.012215581661687147,5.47
-0.1159503885877432,0.04560511792186134,9.78925504668035,0.007297666728415868,0.008479934456153228,0.004698897533048125,5.48
-0.10245697589216865,-0.01949687569118376,10.001717238594466,-0.010651180227201733,-0.004968537915494777,0.002783505301890706,5.49
-0.05076840095903589,0.09137706842945886,9.903135368022257,0.007044088934750953,0.0009473613790314833,-0.003436739336308322,5.5
0.10617860409544298,-0.04376046325716024,9.860712034502676,0.0021626906271334447,-0.005312185454647295,0.00963435266309325,5.51
0.20492320851507131,-0.1654541014752232,9.877814899459848,0.012905684637001933,-0.009612010216532303,0.007900382393756646,5.5200000000000005
-0.05735116665648754,0.012266861635861694,9.759598099888345,-0.008251656925414692,0.002079748864229056,-0.013774636224511727,5.53
-0.04114528593263386,-0.018843020860604326,9.831568314367662,-0.014841903773451466,-0.007777595395775267,-0.008249839937508035,5.54
0.006001004751640341,0.015298500442441278,9.799705632449045,0.005257521794708249,0.0023605791049770347,0.011556325078754384,5.55
0.0486351904605692,-0.10481527364561534,9.768200069581482,0.012060846477557334,-0.004718760237215911,0.002116906795879092,5.5600000000000005
-0.21182008369658065,0.13697615827649187,9.659221161007101,0.010780967630913643,-0.010226255319411988,-0.0007828649340481508,5.57
-0.09262669818249965,-0.08217523754116217,9.753490400271765,-0.007338829792351683,-0.007574090649538646,-0.0004613237431305229,5.58
-0.11347283082463051,0.14310431707650229,9.849686452635867,0.0014642691143879742,0.001337055576340227,-0.006762609690036605,5.59
0.1537799566534851,-0.033889697759727104,9.929252430006708,0.009928473560799553,0.010244743603020152,0.0028731034423468693,5.6000000000000005
-0.036767121114169785,-0.12214667155455228,9.817980861750195,-0.006231989685390855,0.007795933652549548,-0.006818154305705175,5.61
-0.015835146382436428,0.0068948256220391,9.630830648092289,-0.00019215566444420797,-0.00446806137477968,-0.006725743219502156,5.62
-0.05148529211600315,0.018846453047141366,9.78095295931474,0.015428159609092138,0.0009796215519010712,0.008398882175175388,5.63
0.004231951320610834,0.011749093512869,9.909444236312478,0.00703638330100776,0.006848531593167996,-0.014453143305374859,5.64
0.013468677047677641,0.07141402154116391,9.52923695738777,-0.016032507173947438,0.01586829133173815,0.0019315526487793512,5.65
0.21900844445288456,-0.11278944502064198,9.936065129935162,0.0039020652166154145,-0.0003991495611540866,0.004868971208795415,5.66
0.11204238078220595,-0.008840563042630561,9.760086957770362,-0.01080901488989886,-0.003396578070591539,-0.01401385481982478,5.67
-0.15639717891404464,0.11601009053128403,9.715003387831764,0.006786460493932504,-0.002874258205448436,0.009132347907303948,5.68
0.167867981857218,-0.08015897400920163,9.7193107992284,-0.0005251687728362905,0.007497111045985492,-0.006307172435317813,5.69
0.011945989025200957,-0.04799270301106961,9.799245258525994,0.002131474961656096,0.0030124764815653293,0.004747068070293047,5.7
0.02030129626972301,-0.026835819572075793,9.778627149397387,-0.014024862707894959,-0.008857489548672343,-0.006607397700098891,5.71
0.015807431196282636,-0.023879308178008853,9.769734710490793,0.0033400134349870336,0.00029596215272690023,0.007097859241730704,5.72
-0.03694863111878984,-0.025707409871648258,9.832587406210848,0.004695243869891855,0.01815894591755598,0.008688871555122718,5.73
-0.06829226968602033,0.05804315725069531,9.761895149756146,0.00489730594013347,-0.019765145936221903,-0.007017883118631073,5.74
-0.0404470042892231,0.14915011440219858,9.84209687278238,-0.022981914353212115,0.01980019799973314,-0.005372522474356124,5.75
-0.055715300670249296,-0.0243493697195229,9.933728801778845,0.012878298378324984,-0.005103463087902131,0.01220502006789919,5.76
-0.003131317385472528,8.386995765682888e-05,9.7500838668924,-0.002345965822327344,-0.004287998546770994,0.0003820436412898838,5.7700000000000005
0.20278573276373013,-0.06604521162372355,9.851871053192376,-0.00081821433606543,0.008427643560250091,0.016273087073972833,5.78
-0.026346962717929003,-0.13967546383739946,9.733016682739393,-0.006260615108911867,0.007535909217070035,0.006746045516931777,5.79
0.0078682257113795,0.17353150046156401,9.771156890878839,-0.009871047153950232,-0.0058461748908156365,-0.024415378976462176,5.8
-0.07498945602003652,0.3713352742658439,9.837912836721348,-0.011807776048076488,-0.004217098075853991,-0.004534327217763939,5.8100000000000005
0.050908324295311516,0.11452116286667123,9.840708629801014,0.0035583785807902796,0.009771581478781675,-0.0143722454844568,5.82
0.10672951392409807,-0.05515156975930138,9.844022073917623,0.004053345569710216,-0.003796208875351043,-0.005719999697333126,5.83
0.12171905007662709,-0.04021858981510937,9.737932406101812,0.009424703799861453,0.0055161392969741456,-0.021699648578384703,5.84
-0.08425764804927664,0.0706884720419421,9.829769964016451,-0.00481847264550228,-0.0013716648577394022,-0.011602949702180952,5.8500000000000005
0.11815338389507134,0.2680103281987154,9.87078099560748,-0.0033767418386368847,-0.005010418714009417,-0.02131229642775053,5.86
0.04604809033914173,0.050392494022643654,9.713758456312364,-0.0062122269351577025,-0.010923615623866064,-0.0065957483709537,5.87
-0.17550093326779626,0.1191333875000084,9.736034451782633,-0.003439473573275923,0.003793846314018988,-0.0009003700484191233,5.88
-0.19672226926095615,0.21659195475225457,9.599409025828532,0.005763339173843248,0.007345080122480121,-0.004694987002181198,5.89
-0.04203961021105161,0.21198478223421963,9.81996420700872,0.01809135502262472,0.0060536394989827635,0.005708407751064073,5.9
0.021003830039108235,-0.21311436059125088,9.750783697558594,0.0006602667355441162,-0.017153388293022317,0.005518658906717849,5.91
0.0966541884972381,-0.09446220288473887,9.741931310553548,-0.0040585572892811875,-0.005501550170985471,-0.010899676700457122,5.92
-0.15878491330781072,0.08543229529311014,9.76576400423321,-0.005316124515837678,-0.006325029945231059,-0.006283587771747663,5.93
-0.10285092385169176,0.04772605701086959,10.07775030486496,0.013843842404452281,-0.00869800237152133,0.001193391320509873,5.94
0.07737595616897334,-0.06197712028916942,9.770539011086033,-0.006279798108392473,-0.013782340930572061,-0.01445965217887914,5.95
-0.16479477819282978,-0.10269278188651519,9.845900572707366,0.0006295020374065878,0.0051396409439980455,-0.0034633029966093577,5.96
0.14340014551483257,-0.13018920992268335,9.600368722563827,0.00037134529542020715,0.0019267374458475756,0.002148091499318935,5.97
0.11032983152963492,0.11897554579677899,9.679350284679705,0.002803979802537593,-0.01648530341456494,0.002697417366040637,5.98
0.0022461686621357583,0.043197567438479315,9.86884135040938,-0.0030162978934608815,0.0028963069915341516,0.013989143113846088,5.99
-0.08962085178791422,0.019548275914301652,9.793638528167552,-0.007523156438227172,-0.0105954251345804,-0.005357920821312885,6.0
-0.13626276360173026,0.06872774946880326,9.714480996053645,0.015844879711427683,-0.007423612314673048,-0.0018442740231185382,6.01
-0.016272955274846602,-0.031600558999121876,9.870319500505236,-0.00851784929806964,-0.0031842808651091044,0.018843460864706233,6.0200000000000005
-0.0375344587914525,-0.023786717482680686,9.644275691918624,-0.002672666106913145,0.02512519036227906,-0.02092521368139368,6.03
-0.054159446865377964,0.06824886376305078,9.706913757591161,-0.014050372686676018,0.0015051381396422074,-0.0020383613544554154,6.04
0.039689107979872754,0.11356436648995663,9.759779201644532,0.008991303479235116,0.007343362596493239,-0.0064999633112879105,6.05
-0.02319910768780061,-0.10699848057817506,9.792181191899747,0.005522563775393336,0.016356549055122342,0.005528105610463515,6.0600000000000005
0.04808215165780472,-0.06321829200854572,9.86560041260937,0.008785915514443087,-0.00463590659466914,-0.00433489244394697,6.07
0.10806836991205118,-0.01636852582513274,9.786233979636382,0.013953182938600208,-0.0022170868094274617,-0.007166571690199419,6.08
0.11527669555828542,0.06359241938691353,9.78541477581425,0.01056178003544952,0.019102076793261015,-0.011426173356219847,6.09
-0.08347546682355117,0.13592360179961446,9.758758114834604,0.0010338970590595558,0.014927018489583513,-0.010259176850272634,6.1000000000000005
-0.040666970017654215,-0.20159620127037892,9.953968013752922,0.003277273612305973,-0.006753023282318908,-0.0017952733137115238,6.11
0.021200910179641715,0.07288863285084952,9.810890118608697,-0.006487504320818045,-0.009691825542785406,-0.011482059893301748,6.12
-0.13476194973201047,-0.15353347444076437,9.930510662621273,-0.01752322982331693,-0.0020856362136361553,-0.008219202742054175,6.13
-0.08259276973314231,0.1405960766694267,9.721030111447764,-0.007949301330880676,0.007400052996600117,-0.004250360956420403,6.140000000000001
-0.03155983306114101,-0.18405241772008582,9.7410616450926,0.005272763570263908,-0.0128639669159776,0.02092840474208961,6.15
0.17082528621143586,0.06041138067189492,9.84642809513357,-0.01871696804435721,-0.0030007818417168053,0.006584162089777793,6.16
0.14189216844942537,-0.0800664673583744,9.872234823783993,0.008606193738282348,0.00014939391067944765,0.007962500365136724,6.17
-0.009799158018544352,0.04284747367511685,9.588972701972692,5.225565401704859e-05,0.011322370237347022,0.0029580195458331184,6.18
-0.1636235866085479,0.11592854169297168,9.704038590867942,-0.016074514799883474,0.005636656780037952,0.007292010167337876,6.19
0.13692008037892264,0.0938388232675667,9.796707379718242,0.018363314462352655,-0.012603435661686417,-0.01586397857482469,6.2
-0.05124755642694049,0.1105715172481713,9.85664248191321,-0.0027817185920114775,-0.006288106659085832,0.00817808530440833,6.21
0.04296396526376095,-0.03196106352065889,9.774816134719174,-0.000538211020660181,-0.003544452875043231,0.0079100444538496,6.22
0.018379428852518233,-0.08386021643756249,9.557123486420643,0.011684743958807043,0.01673557422591663,-0.003043038776371303,6.23
-0.02020950641343567,0.08635724334157285,9.783282738411877,0.004584800512034535,-0.0011315482600147329,0.003848069607070365,6.24
-0.07595462252796197,0.03612307756905882,9.98978742810825,-0.0076967440285426545,0.011307073018203525,0.023646477255951762,6.25
-0.2533569371364857,-0.02726808079255362,9.746601773410198,0.006318770315462744,0.005717495334542275,-0.0029389661688495284,6.26
0.042505170997345604,-0.0727180078122869,9.90086635598423,-0.005576584196389154,0.018967070159953345,0.012245669527808185,6.2700000000000005
-0.16470197138644216,-0.1570539040557287,9.828654459409844,0.00636752276821325,0.011468574786732286,0.0006763395902886323,6.28
-0.0529142203991218,0.23160422419806725,9.769538840033395,0.0024010712960363285,-0.010366985023673822,-0.004459185933321306,6.29
-0.10767532880981966,-0.03682815934846111,9.984035155534599,0.012615036194903022,0.012154930519831984,-0.0044031830990109416,6.3
-0.1985749569976036,-0.13733613929079447,9.829476476522231,-0.008445163754560597,-0.011438719081500886,0.0048914508760047135,6.3100000000000005
-0.015554377181147161,0.04957783749221903,9.774268627637259,-0.006759346663025515,-0.01970851079521427,0.004114512560315405,6.32
0.04345867096271747,0.0651148216300125,9.805476230781283,-0.0006848052901527214,-0.008891337228776355,0.004302927336187755,6.33
-0.06878399305169776,-0.0964453753218826,9.914325984499284,0.004167159146562544,0.010468612563764008,-0.01858575010400154,6.34
0.17025753304368377,-0.05654283227353492,9.779901955106379,0.014326997308217864,-0.011545514247485598,-0.004585103150055656,6.3500000000000005
0.15516194647625017,-0.05972687902810721,9.837376159255646,0.005874090044588684,-0.007451216720740603,-0.00689237150679424,6.36
0.043904946682225526,-0.012327196327895291,9.733662739623808,0.014519633274375127,0.014848392757345823,-0.002351700644527132,6.37
-0.01822476970723928,0.05851988299266714,9.96317891507806,0.006042762806017984,0.020972592675132233,0.0024646515001866868,6.38
0.0371928113224417,0.1450637821823467,9.871016110920019,0.006381161378187057,-0.0006259384180425212,-0.006816354781951669,6.390000000000001
-0.04562582559096409,-0.031338672404923315,9.869884729123278,-0.004967969097061537,-0.005578067901185869,-0.005878120611616229,6.4
0.05959256430293286,0.21412788107888203,9.780530438756843,0.0034000470180685772,0.0036603611670090286,0.0020720088427773637,6.41
0.08432204772309733,-0.04569688324452468,9.770819635934666,-0.015217090940278453,0.00588094869679063,0.001244727239409994,6.42
0.06068484876755734,-0.11414301312602136,9.859989483664176,-0.01049091463464509,-0.0008572431395309241,0.0003112662751307797,6.43
0.10236422300476328,0.04153354052610856,9.70695269521939,-0.01365956761028074,0.011621338374027027,-0.00758713539672341,6.44
0.1281131989528818,-0.05286767012629693,9.735285982022383,0.00069981413631148,0.0001249262357916068,-0.009049598499082778,6.45
0.23402115298372683,-0.07084056285943735,9.733520891582309,1.9210365586033862e-05,0.024318786349599365,0.005509681772874268,6.46
-0.14321736028094778,-0.1518520408698207,9.830752914628421,-0.002657469186348212,0.01109767688729895,0.006940156692748838,6.47
-0.021570140853913178,0.11607370351413307,9.63107591639916,-0.008602239927533478,0.0033091898060282803,0.01678198820936032,6.48
-0.03586608481986435,-0.01074130783435126,9.78677820611192,-0.0075558113954379,-0.008342949005550325,0.0049668311241511534,6.49
-0.09441661889233564,0.058157921802472715,9.809316081526054,-0.006789180751947998,-0.005936541343690213,0.021551392739932767,6.5
-0.07485948328626715,-0.08693008216806654,9.910757640501087,0.0339364618942525,-0.004769314759685168,-0.003864053457590587,6.51
-0.03758560110070913,-0.0796826601846734,9.578893412932482,-0.010211765792045384,-0.02470555041021777,0.004126069700256259,6.5200000000000005
0.13313610571866608,-0.03352680909284771,9.831104676256569,0.0025533943943224953,0.00864344094538539,-0.00020979306417315486,6.53
-0.04543589011474458,0.0722378473124227,9.819470358812998,-0.01949965134563048,-0.0028675848015369634,-0.006697257819206546,6.54
0.002359379884531138,0.03534773534211778,9.855073298332268,0.003593119386928796,0.0036494168853231095,-0.008639172806740106,6.55
-0.11246881530421007,0.11071247438670453,9.990660720819301,-0.006733800430235845,-0.010045027847230657,0.008201385056889063,6.5600000000000005
-0.05429327429680848,0.010585178451486562,9.926392680556138,-0.004982774919826291,-0.007381711958570013,0.005518147822977144,6.57
0.0010519623081774062,-0.1841031745134598,9.640369130511777,-0.01013584204150998,0.00017466024833603537,-0.015279855276354521,6.58
0.17629730609617525,0.13534939204226923,9.714006531141832,-0.003847209477537526,0.004710522059679735,0.004487117900831821,6.59
-0.06713566245864853,-0.06892938709412766,9.892029861346046,0.010382348038092104,0.012099408006484463,-0.0076472131461479955,6.6000000000000005
-0.059945096258940046,-0.030691342470294005,9.78611148052621,-0.023756695514999388,-0.007102045560671474,-0.0021961059728357714,6.61
0.043039660238155975,0.11015334051216251,9.912951396140897,-0.007066712813691914,-0.01024243930498302,0.0007345081587395057,6.62
0.04053100053087856,-0.06889541336388248,9.830661741799528,0.014590159893974575,-0.01840405804083112,-0.00464997613497011,6.63
0.028125362614479926,-0.06527292963070547,9.829918005327283,0.0032556527196115482,0.020694634509956202,-0.009124879882166485,6.640000000000001
-0.03648897442459114,0.014073158780902704,9.803158072031824,-0.0023599347049886015,0.009605195387196902,-0.013596545457883458,6.65
0.006213454700952209,-0.12016764525541007,9.78912083691595,-0.009826189214105538,0.002508368970125657,-0.0049899421427388865,6.66
0.10527068282014929,0.04764700391536791,9.753069349173556,0.00018442277562850953,-0.014536646152233436,0.010810070095672784,6.67
0.0710304801348318,-0.0890965276714933,9.595124930732302,-0.012221309744412916,-0.00138157073817059,8.185845076064196e-06,6.68
-0.04215929040700464,0.3164226145555955,9.67813393909776,0.002151184606630589,0.002199935414066205,0.004329348324903445,6.69
0.15007717095512993,0.005156545409624541,9.890295383028539,-0.014846506073532937,0.00301131804760065,-8.84133729869137e-05,6.7
0.03910151222943736,0.10219421113801452,9.451365160697247,0.02069008615243496,-0.005871085640119024,-0.0033270159255797426,6.71
0.06035089862155194,0.13860226105750348,9.785989715527949,-0.008748787519839187,-0.007950669952754945,0.007811309900036851,6.72
-0.04941111776282417,-0.015881787437850643,9.872353726584917,-0.0027821220395445653,0.011490598340544092,-0.002226101817466763,6.73
0.04320042714144488,-0.08858226172225452,9.80363823036861,-0.002514089652138391,-0.004600656147505929,0.015738069173630857,6.74
-0.17607961600827932,-0.08928587147677242,9.803224214328074,0.0035005479562378616,0.0009519258255614744,0.013059575073791416,6.75
0.17600390087486492,-0.11020673118643293,9.807605412711238,-0.001505509123751409,-0.0014454988776340858,-0.016704611149220158,6.76
0.17128256523615776,0.08626995347522838,9.914805894820459,0.015643863862103032,-0.015433962312468493,0.00812222453103836,6.7700000000000005
0.11139526734312298,-0.13207220241996878,9.96325991212949,-0.02114563553819829,0.003342115281785335,0.004003361807712557,6.78
0.10042161897665579,-0.018032388137236118,9.905387294921963,-0.008733999133070098,-0.009598098011105744,0.004350885007225672,6.79
-0.015381973632526955,-0.05366872713567242,9.720484889312013,-0.00261997671164468,-0.0016557343349164466,0.00248110633756549,6.8
-0.07724322779897332,0.16092625934666072,9.742698556527248,-0.0046050246797991285,0.0077596861546535,-0.009069408567772842,6.8100000000000005
-0.24006523931802676,-0.0840827657450911,9.87408098279896,-0.00443698553593956,-0.006854448357069354,0.010181114922945765,6.82
0.05034729514280661,0.10336880484224775,9.734768949104337,-0.006054203005449943,-0.015258827998675681,0.011552595374018253,6.83
0.20364499937214378,-0.06353469470073238,9.836892869813974,-0.002793036225359703,0.013337663598208963,-0.002329266350207692,6.84
-0.06768344257296768,0.01753600533919893,9.927328397332591,-0.0070656409078451365,0.011744636120532989,0.003273084956714869,6.8500000000000005
0.04263559331711767,-0.1887729506574205,9.81354011456729,-0.003600775745850936,-0.0059789214996436735,-0.018069811885703474,6.86
0.07354055629988841,0.08199480028543718,9.788452135019272,-0.017848631226083857,0.008057796075856076,0.017568654866252278,6.87
0.0718250267655049,0.07002250364248445,9.771413768471229,0.00037514010318384405,-0.004123044950836826,-0.014631026704598246,6.88
-0.005317436493277136,-0.05954298088648714,9.747703034981738,-0.01876368925832472,-0.006651618170629401,-0.00754482416252564,6.890000000000001
-0.13354433827195386,0.0699460663367296,9.766146323829716,0.004296433866328227,0.022539434231789727,-0.0082236999653615,6.9
0.05367078479268278,-0.03812704174423598,9.995956036863486,-0.013467802723700073,-0.030105229156314396,0.0033369831692871017,6.91
-0.10214226557219896,-0.0017346446789224168,9.818154813496102,0.008624394580439738,-0.020832104078012323,-0.014551462420103007,6.92
-0.03272991512664652,-0.15579770551287073,9.924989106196584,0.006041104639729915,-0.020412090659544187,0.004402023217587109,6.93
-0.01740007142834071,-0.08567814188359663,9.956504819870394,-0.02007422213142372,-0.014348103647613852,0.0159870297230849,6.94
-0.12720189132677584,-0.085441949987665,9.817231231609597,0.011735938683320972,-0.002282853568360834,-0.00014653540446946575,6.95
-0.06758011054410415,0.06401137725591143,9.775078056086961,0.005196094454695492,0.024148976082054907,0.013154220158532067,6.96
-0.0019681891243460868,-0.003782154401220336,9.801809733541953,0.006109093099590652,-0.005188592465662801,-0.0010280169537027098,6.97
-0.019099701872605446,0.06845641295942889,9.597784919799533,0.0064805535604149315,-0.017096443134168974,0.014705035645593015,6.98
-0.008768383656339985,0.06627338098848952,9.797375659086361,-0.003116418624248668,-0.0109123532574829,-0.001494974206347015,6.99
0.1351751073025548,-0.005171539551659356,9.779208511027177,0.00031122255313990307,-0.006551851558172784,0.006929550533266085,7.0
0.1536157136641192,-0.036229776122222286,9.850134423497476,-0.006178367569726358,0.013906007400238729,0.009407310787601934,7.01
-0.02776730081009192,-0.04749709841675573,9.889683733108324,-0.009623516262287619,0.007463852062263648,-0.010287836737018542,7.0200000000000005
-0.10920784680395544,-0.17133125983663827,9.92298005298212,-0.008762807030321474,0.0023258973273034304,-0.006941292889326112,7.03
-0.11213490514740641,0.0629144395604537,9.781481105095999,-0.01185803597191059,-0.013536376260653876,-0.0039243333765465885,7.04
-0.0072189447350796705,0.07861397855255038,9.656795084719942,-0.00025152887670995707,0.004258326882553646,-0.002903923616131612,7.05
-0.029367251641116268,0.11197207479985825,9.803859173431036,0.023118176673198095,-0.006176334452772062,-0.00033232984358323123,7.0600000000000005
-0.02408129907842628,0.18376078260231793,9.680179400342606,-0.013222392599355684,0.009959934614743102,-0.0068389528086726095,7.07
-0.18238724119215707,-0.04325350023415353,9.671228519856246,0.02350510549297586,0.006176078802108685,0.0008726451290948554,7.08
0.0027818364259850226,-0.03511554483727238,9.849867234429414,-0.004718899255131584,-0.0064545083557194065,0.003039723049101272,7.09
-0.03881133284631273,-0.15688509608616005,9.698774225665339,-0.010823243280714443,-0.03317518426634349,0.006275381490820839,7.1000000000000005
-0.12165981105859783,-0.1339147934627998,9.694022363628058,-0.0032098945276870057,0.011246322330226672,0.012874337806114505,7.11
0.036514027681145214,0.10615549381417887,9.755847752988977,-0.01199695319023458,-0.0010384778475853846,0.013569349858768301,7.12
-0.032257922023381666,-0.023307438745971645,9.680204602682085,-0.0004717213625422924,-0.008353061029790361,-0.00751913334983505,7.13
0.16375426585361802,0.05735353762012907,9.843613960827732,-0.002586660538478056,0.006455635544333298,0.008478889462012657,7.140000000000001
0.045807179185798706,0.10342990640053261,9.884150013668556,0.00785926916404553,0.011352445878332595,0.006031833497382971,7.15
0.12238216450322102,-0.04935297669684511,9.749772971617034,0.015258659884182868,0.014630044305824966,0.008939616746407867,7.16
0.020046289993898438,0.11146232286364575,9.982073854575544,-0.0001669481631227237,0.014733499221285697,0.004989607181793356,7.17
0.05832837449357195,0.18795720385989084,9.717263912169319,-0.014552094929690186,0.006683639673052762,-0.003800846396432368,7.18
0.16747287704460623,-0.09194259812738778,9.710619974972582,0.005102373116828596,0.015116594060718904,-0.010224751193637176,7.19
-0.16459185226311404,-0.05153457929282902,9.728373873947008,-0.001794473712836227,-0.004082506000586473,-0.0007719938070959564,7.2
-0.0665437216199011,-0.0775436371403203,9.64318834394679,0.005255655723677508,0.010417287225643078,0.003080232873643109,7.21
0.20227663475479557,0.10228114585823822,9.885029944346968,0.001310265098117295,-0.015316865031011786,0.004905043919939721,7.22
-0.13198678397275582,0.045301196146557116,9.715074547438205,-0.013272250204129935,-0.0019367650250258636,-0.002566203581410956,7.23
-0.019126322040263943,-0.07157887200112527,9.871033641965393,0.008184473692234363,-0.011436159887698536,-0.0003324361162264674,7.24
-0.001441429823397226,-0.07867538185379959,9.753425912913766,-7.191079311298759e-05,0.005586304139444177,0.012236445619651141,7.25
-0.07748570478074178,-0.0054293862831287865,9.817259285759034,0.00287039472471166,0.01091528901175995,0.00302894218506517,7.26
0.038935939473875254,0.12975733106001863,9.840326389352425,-0.016470943259113507,0.006241520961405637,-0.005530642678788465,7.2700000000000005
-0.03962728363801133,0.014575324472498576,9.737156825265261,-0.007395589290010169,0.004329262039183368,0.01180715325719063,7.28
-0.0027307013538749726,0.010146187522999294,9.844482095456565,0.01466475589287233,0.008328174639753258,0.013797721779791739,7.29
-0.04952214600801702,0.06998935526464761,9.83019684119444,-0.0010728840391984783,0.016908874190686086,0.008793488786768283,7.3
-0.10427986970311376,-0.10876002191010464,9.8756062389384,0.005045232772744141,0.01298285235410973,-0.0033249796332689005,7.3100000000000005
0.15939299953415187,0.06373436489912025,9.834235443758029,0.004066630756369454,-0.006866745677030926,0.008591458514791844,7.32
0.0024875667175274173,0.10406705652360693,9.875008091899897,-0.0026536385029775973,0.01487493487018087,0.016024276268720276,7.33
-0.03496738823164299,0.12939126021817593,9.936363303722866,0.02517435055512426,-0.006231570867276556,-0.011432165996099131,7.34
-0.09214122468478705,0.08506914563493045,10.025701469307203,0.008914235726055396,-0.001499142102725897,0.00852110206244837,7.3500000000000005
-0.07104846190127657,0.08755387321232275,9.865539334688997,-0.0036016872707694924,-0.002403378470711178,0.00647418905246484,7.36
0.10342681769320486,-0.2147642892572304,9.883132114158897,-0.0023762260165298326,0.005872692209540413,-0.012767416710066204,7.37
0.01338643445283169,0.01208850474767283,9.812561340740865,-0.0040325658694762906,0.008417722481955185,-0.005720155969572687,7.38
-0.030094439151127042,0.14912960841849301,9.840980114980606,-0.01771125545290937,-0.005582247917606823,-0.019154756246112098,7.390000000000001
0.006136723666290144,0.05566199896874672,9.849098043073528,-0.008456529241436481,-0.007273011365130496,-0.004366665142440588,7.4
0.03578137950336669,0.014649502529061213,9.794534097464421,0.003330005414158214,-0.004723613447521628,0.0046428149680263365,7.41
-0.07619412698701818,0.07172206489536657,9.620912044485387,-0.0036225782303720452,-0.003469109735235246,0.0030430084157430566,7.42
-0.025299608474770294,-0.007860615388704651,9.876896598773017,0.0038635565511488785,0.0012740128621391816,-0.0060155011915090165,7.43
-0.007430471509662923,-0.14104309155084496,9.796033463235004,-0.011776346299232455,0.015266405028924132,-0.011401558153652354,7.44
0.14488188837823307,0.1502025772451342,9.67392913540349,0.0016454890709503736,-0.025456578613841523,-0.0007432282495586784,7.45
-0.056634248629058054,-0.18863641769325867,9.954478533735953,-0.013266639185018317,0.00749075915311718,-0.006588511317793199,7.46
-0.004466906330093475,0.13139679169677174,9.709713792683377,-0.007599529551211856,-0.019040842420707634,0.004291916573744458,7.47
0.033357874470081615,-0.11085299614009742,9.73419782966899,0.0018841416530989469,0.010709721889138317,0.0033992067332753555,7.48
-0.03264145284964122,0.13444281022365498,9.658571953297288,-0.008398530264536675,-0.0006809540192577916,0.007892632556427977,7.49
-0.12774764096698601,-0.07104693647738217,9.734863485379282,-0.0023196484933651405,0.012105151202619678,0.003361536507327263,7.5
0.008859408102070752,0.010497877323619627,10.024789967558311,0.005955658868956021,-0.0023713170461688708,0.004690049861631341,7.51
0.04220398967895095,0.010757820433095245,9.80335730201025,0.024666119575920256,0.00021489811563972933,-0.0008593357167999336,7.5200000000000005
-0.005791745293159447,-0.09151259723535439,9.733472642838908,-0.002651808785336527,-0.0015228497998399063,0.016860808631754962,7.53
-0.16137436220449794,-0.055651880793587793,9.96175544228669,0.005143424354516735,-0.008595001777164738,0.012322410605182308,7.54
0.04270862610343297,-0.05680856280621972,9.735002953017204,-0.013006301219928566,0.003578326480408446,0.01002832183817073,7.55
0.008649089275206637,-0.008793143808519963,9.931854694624814,-0.01601678834689338,-0.003370666858074235,-0.005851980142518161,7.5600000000000005
0.14761963387701346,-0.17773323124928933,9.621384572894959,0.0018439138574143183,-0.010475082165933262,0.0016194893374183923,7.57
-0.13504490530687926,-0.08295875037511516,9.845706430174555,0.004525042447771748,0.0015329856609888025,0.011775195906569487,7.58
-0.0946536526079378,-0.1125204769417294,9.822654105395594,0.0205236993574995,0.0008209967754052219,-0.005793041826288314,7.59
0.09773332955482618,0.16834226691740992,9.736262470859048,0.004283066577262541,-0.01707668776550652,-0.02167413999939489,7.6000000000000005
-0.02206455043066289,-0.052366448208437846,9.951402603312618,0.017309305915706282,-0.02940354561776474,0.0024475033577369123,7.61
0.005518605869246969,-0.05174194992958282,9.779481394001568,0.022343545601295155,0.008058660935347269,0.012221318572097316,7.62
0.05360725662094501,0.1340082376003492,9.788777460430355,0.0012159645596040082,-0.017506131247221546,-0.007856179616652834,7.63
0.13211318643097897,0.006510102479784937,9.612873218780575,0.012122225043239891,-0.008602660302369804,-0.006437003338654592,7.640000000000001
-0.06980065026340185,-0.0659135432132912,9.984018952067114,0.0033343187652871992,0.01238707817693692,0.017777108014538776,7.65
0.024315940294173756,-0.04157064873398892,9.846653695081928,0.007050653589967139,-0.00814084680957285,0.010234921527297715,7.66
0.2310779866168071,0.07946939816351789,9.808999490270653,-0.005224032925868075,-0.0016468450045215744,0.008340314171164044,7.67
-0.1520679721402976,-0.020738834573919025,9.88941105630198,-0.00153605838944944,0.002034721105811178,-0.004879091402227837,7.68
0.09601410254836917,-0.20242366331134393,9.800539056174088,0.0001238774149613342,0.029216649776979034,-0.008971377953121158,7.69
0.05202784031327017,0.010221527899151928,9.612062374703562,0.008751988517016307,-0.0076756970602647814,0.008420736944001151,7.7
0.07831692345943006,0.169280980780795,9.812462309553927,0.008282115504941515,-0.010551606141604955,0.0019788635323114527,7.71
0.12346328959812813,-0.13644200002883286,9.95107548225107,0.0013975394070390695,0.003819460504207876,-0.008889700175097976,7.72
-0.23272628356639796,-0.05558568652719923,9.900050539994055,0.010048671240749882,0.021833745888754447,0.011639603433261295,7.73
0.09078141807194698,0.006066215299268947,9.735220620638819,-0.0028393751155562216,-0.0006909514136052877,-0.007861133549021428,7.74
0.05903809768429318,0.0741795695125588,9.841430549297682,0.0018910638746748242,-0.0039021231620152436,-0.0085955418670746,7.75
-0.13202557626869785,0.16368531493750846,9.59352034887263,-0.0040248809260503135,0.004228921574577292,0.012543981577546331,7.76
0.1269599597897988,0.003994551075028657,9.796919662520775,-0.005682328736565887,0.004414569895506899,-0.003320772685198523,7.7700000000000005
0.04088180203595871,-0.02575002882243088,9.802774130628887,0.006311088744797787,0.011325982284971153,0.0008299174996427031,7.78
-0.08601604876644103,0.09803877511409798,9.806145941705955,0.005514306722809812,-0.01007951677117291,-0.002925784150877235,7.79
-0.12228485546563553,0.1212494181463618,9.5848043346032,-0.010800266884733394,0.013569595405270758,0.006747326886332635,7.8
0.18079988655957582,-0.12575952682080857,9.942850896672931,-0.001975841315069045,0.012207155941379626,-0.004247163256349923,7.8100000000000005
-0.0683894229291294,0.07014949127731394,9.891436087278125,-0.008527728673631703,-0.012288749359409205,-0.00535690415159215,7.82
-0.17448174601768077,0.010888554731131275,9.792151705975293,0.00838073137244569,-0.005763260197743163,0.0043806788000131346,7.83
-0.1850590250155428,-0.07502799378239833,10.01140994412127,0.0030502002791124782,-0.006907941476199557,-0.006150624750964636,7.84
-0.0071300121450135895,-0.14653841005311508,9.708192134047703,-0.004568891772871429,-0.018092427336616316,0.0014602778787291798,7.8500000000000005
-0.031667287437936335,0.012793285853166218,9.804190113071899,0.010798174282252963,0.000491017808156018,-0.001341597553100971,7.86
-0.0021337239848602794,-0.1633437102576483,9.825591984199377,-0.006900829061289756,0.008256779307093,0.010070815367161758,7.87
0.15163708620587688,0.09014375121631407,9.69592874295787,-0.005907038153940364,-0.0026300891502265256,-0.006752155124033888,7.88
-0.17101351642451343,-0.011600311789261375,9.86841755631064,0.0014486856352929757,0.015266718246084035,-0.010517240473903445,7.890000000000001
-0.12295660911311049,0.025000236027047887,9.841567389320502,-0.007583493856920983,0.019218532330681687,0.014613420557162356,7.9
0.14956618087361226,-0.023389985874702167,9.801619193357025,0.0177218313235917,-0.004921596244137681,0.02187538872406926,7.91
-0.05204493077449949,-0.001456941238837545,10.028268844322753,0.0004956966222235808,-0.002216333631193778,-0.00894121894627427,7.92
0.07266752310914319,-0.11725354876857273,9.6180058537014,-0.005910612663005542,0.003289136701098252,-0.016365864729521337,7.930000000000001
-0.16570397916877036,-0.012722246797025927,9.824585707259603,0.004954647094634927,0.02652931718531077,0.0012310718536131095,7.94
-0.11170725669860389,0.05187878980817957,9.88376932028562,0.010416199738365153,0.004101101319644559,-0.016854574314816656,7.95
0.07030169692556597,0.03195090976311623,9.81378161397389,0.0007005113975870272,0.0047999766008401295,0.00037604530556742573,7.96
0.010530132674861284,0.017254957748331332,9.82745108837883,-0.0021032937801378957,0.013562298104421722,0.0007486440096714804,7.97
0.11526924794616081,-0.0729082597986598,9.676685812648463,-0.0011475064577984014,-0.004777278010941186,-0.002115539837844851,7.98
-0.03937813932852919,0.030753335897717712,9.69046954384039,-0.01240300074886563,0.012786719234887214,-0.0003720782758570769,7.99
0.028174220537881323,-0.15813025455837826,9.837897848795741,-0.012567928736581652,0.009569812768248006,0.007154627485860082,8.0
0.02321902938943865,0.045928728746709384,9.784983866013572,-0.00796701516375371,-0.0040604150559704275,-0.006037859089336206,8.01
0.04940467944553714,0.07457741864276306,9.682924135044397,0.012312018916086454,-0.0021360532963269085,-0.004673077579958598,8.02
-0.005750799954694849,0.053357317977547704,9.864358394655305,0.013149675232479374,0.004558505560625216,-0.004774407188922007,8.03
-0.12773384414204367,-0.08696600603155608,9.779706136054239,0.021626891716958033,-0.0032796015473189545,0.006110618170623026,8.040000000000001
0.058125814898062594,-0.15149781301652726,9.715750649369083,-0.002127864777647665,0.010002895118380128,0.006513929763549939,8.05
0.11022467146039035,0.064388017041924,9.755338245999539,-0.007827932362297256,-0.021542970173174882,0.008963366944850783,8.06
0.035223690637902615,0.0720019814745689,9.903873799371963,0.008516969946468682,-0.010448658586676627,-0.018699170869206826,8.07
0.12133553938325364,-0.0077907788704844085,9.66554011008364,-0.007559038350770304,-0.0038064538800033575,-0.008684753670805522,8.08
0.05943326113317976,-0.02214984824158323,9.817855705614855,-0.011557453989466697,0.005978689867174625,-0.010474098135460434,8.09
0.097759060832353,-0.10796331103169443,9.779764900365286,0.004949657014201073,0.0020034764469483656,0.004547527917999354,8.1
-0.13549222610102213,0.14903448461160818,9.842402028828538,-0.004178506735782558,0.017901931347712858,-0.00829214904219864,8.11
0.08306851029745345,0.030829526718153866,9.756649283723846,0.010472228253428565,0.0043229897990254024,-0.0025584965441807954,8.120000000000001
0.045502723667775316,-0.04769058521451518,9.858919035409686,-0.004228306600678505,0.019100888389294364,0.008849559486124255,8.13
0.0700807741311091,-0.17466859620690608,9.746787494816473,-0.012222732070386329,0.0067791026320537465,0.0014380171891058317,8.14
-0.08123572588263601,0.0002502247509430101,9.93889607609872,0.01263058014660178,0.0022968316468152247,0.011734490375803297,8.15
0.07430581920214666,-0.1679051094164884,9.866663761801997,7.251682591164744e-05,0.0028511084088307004,-0.0012384613818651146,8.16
-0.05361727545947247,0.14955571880015436,9.714394669485278,-0.0024491780995536463,0.00994869859240918,0.0007907423568414621,8.17
-0.05504914517539348,0.09423977492336545,9.907901138153212,-0.006889346241130718,0.013068464527976624,0.003455937382163874,8.18
-0.02277957150591237,-0.13633879079179284,9.664427116280775,-0.006191734412764004,0.003596728959037389,0.005974130302430356,8.19
0.07332449325172366,0.02609062804908954,9.781527094851636,0.009656568578195537,-0.02118508513114455,-0.004548082883952473,8.2
0.03013606556546923,0.004289404739923165,9.661579712123189,0.005026892664855791,-0.0035388957834704532,0.0007430057757608018,8.21
-0.08802653840521074,0.0667007905444389,9.838901253259598,-0.020795987997953493,-0.010089271090988892,-0.020571432189582534,8.22
0.10809874002231204,-0.07354421139879777,9.814835830035369,0.005120747576943244,0.0071936862878300934,-0.0028844674823120574,8.23
0.16464158463210996,0.05166290795497888,9.888113225878797,-0.016570402191021558,-0.003774706732776869,-0.010934867833675114,8.24
0.1162958175839338,-0.14620657236300946,9.6883174728134,0.0011881099147047192,-0.0008349975320491126,0.006920764202197085,8.25
-0.012205793108045745,0.006684965324797135,9.783866112018051,0.004811646410648129,-0.0029848728901946437,-0.01018077378993008,8.26
0.013777036058783538,-0.019272711943109793,9.837164329768532,0.010223765517216874,0.010470335890860254,-0.0038012461625777432,8.27
0.0540358643903994,-0.027281231649903495,9.779440855110122,-0.0035482887464979847,-0.009466438757483856,-0.015664995702512247,8.28
-0.12552696637600502,0.05219818065411869,9.772647822676724,0.017577054120250922,0.0018750925064133785,0.010893120685980102,8.290000000000001
-0.05874533742065117,-0.21243185477202142,9.793423233817403,-0.0016640864282225743,0.007228741989050594,-0.01590212760479076,8.3
0.18756235624266349,0.08849672248883514,9.911564909669101,0.0005854878561172598,0.010142622180306092,0.0018780257500741954,8.31
-0.06158227855573598,0.01566514976108551,9.871256527391614,0.016708082246325837,-0.010002317712697589,0.006228699767876337,8.32
0.10987921122891808,0.23624341039362726,9.870102222345894,-0.003986471970370601,0.005156980816454684,0.00040592421664088226,8.33
0.08067550134940803,-0.08083385172831807,9.793122185883954,-0.011409579427854458,0.009020096388410422,0.009574262625856648,8.34
0.13801023694020018,0.04323499609398371,10.010423201456753,-0.002567519119997528,0.004498390067394737,-0.016482485090097494,8.35
-0.07535930709685569,0.08183930801627748,9.708027198552555,0.0015559235319167525,0.0037579291109006824,0.0010861719882355892,8.36
-0.06848730301422457,0.024603342046026704,9.841045165772407,-0.01348129611172643,0.010889854501447612,0.018631476685937367,8.370000000000001
-0.021972413824457946,-0.10658946541256827,9.758395427488903,0.008228234931644141,0.00019833238571189231,-0.01431831191379483,8.38
0.04802836205349403,-0.006728063562903428,9.703498410329908,0.026711790482394502,0.02220772115644484,-0.001227971947330421,8.39
-0.0960042714310198,-0.19326927540134767,9.793942660098603,-0.014527405467572814,0.012441618707119264,0.007726101591338397,8.4
0.01794573418879322,0.038173199706859784,9.783862142185495,0.0016747156823112058,-0.012536935849767483,-0.003960252784451914,8.41
-0.08968192122882832,0.015817580442614314,9.736038218821342,0.0035257735224430136,-0.0010733656273848489,-0.007180212121423038,8.42
0.20902599811254075,0.03198648375191661,9.889992674279858,0.013021942634641683,-0.007155596903146349,-0.00954262280466176,8.43
0.006478182592195567,0.09130699387284769,9.719625092223055,-0.0018533219335356299,0.010362632540237324,-0.010668498918111335,8.44
-0.0886565865255953,0.19208303404658067,9.816563980396424,1.1909183422924999e-05,0.005162165012797163,0.008973744450581857,8.45
0.07380344805095294,-0.06836001379969285,9.622945611136226,-0.0036109711220055863,0.00392547663100168,0.007421263141429567,8.46
0.1863171989185976,0.12104303514292308,10.05688290668047,-0.006866856161502537,-0.007103776711794684,0.020861696472296295,8.47
0.25736053471187936,0.1448728488570221,9.866305533442095,0.008800978053580287,0.010422811437071777,0.0028813708934195986,8.48
0.047061900840512816,-0.08117434984990995,9.769602689618274,0.0008690911630449914,-0.01339599395776989,-0.005665810459445276,8.49
0.06000768555987366,0.0940379911593289,9.89941888355592,-0.013587810486444276,0.005764270139870358,0.016757841376058975,8.5
-0.004367654108705737,-0.007372585996843747,9.834744325720836,-0.008615204339242913,0.005944482005793255,0.0017587220592770495,8.51
-0.10839437857730182,-0.10947627117384506,9.821223925058046,0.010494532663568874,-0.008938940726182938,0.012066755432952079,8.52
-0.05836363124467432,-0.005811436808550882,9.644619658731438,-0.0177146415255364,-0.003836694539730774,0.02301731445756722,8.53
0.006017045948492981,0.015878948727276687,9.792735814106004,-0.0009721524805048565,-0.01301364880733671,0.000663954424069835,8.540000000000001
-0.04103078661700017,0.14555762970794553,9.851158284252103,0.008471253424934109,-0.004953346814016769,0.004328450641576456,8.55
-0.09577655876991525,-0.08085321960675187,9.72706684709302,0.015885655666584845,-0.006997842429144342,0.0024607759388220476,8.56
-0.07411884169661537,-0.10902771757678745,9.878837695117795,0.008211923769927493,0.008692208617942496,0.002350855501887594,8.57
0.19778910190972565,-0.01661887569558587,9.777631542077936,0.010872109621970879,0.0027759468285306348,0.013597798528514955,8.58
-0.10383795909139977,0.10848173288942076,9.943577122720468,-0.007927581327295187,0.023818201251817852,0.0004293315580584559,8.59
0.05796285961621183,0.022030689026362262,9.965278165087163,-0.021613661363782514,-0.005069643905700889,0.0030526165903646593,8.6
0.03597592081575773,-0.11474251578408204,9.745096603546877,-0.00694166117479635,0.0091653603222806,-0.0049855112166534606,8.61
0.15338581073613292,0.1830934282401118,9.717841432839762,-0.004294712002033336,0.008863818774606506,0.009888419306006657,8.620000000000001
-0.04204211438099709,-0.12398227880376066,9.668721432867367,0.002699879726808698,0.014025000249122274,0.003143217228569074,8.63
-0.1525342455455575,0.11126802247213044,9.922067664436621,-0.004767533300536125,-0.005437705851671141,-0.00023246826084809865,8.64
0.12685722240445454,0.05349877388969583,9.945510152005593,-0.018128612869223987,-0.007656446198904587,0.012351227771467861,8.65
-0.08539263103364766,0.031171605882316718,9.744330697252868,-0.004434854161216175,0.00572215793390066,0.013211143462749809,8.66
0.28350131473269685,-0.13363353338837164,9.853514739097074,-0.0009964588281115134,-0.0019527216350870547,-0.014421785741955311,8.67
0.14025443060402185,-0.033104538350244954,9.962301580885454,-0.01974537961584641,0.014217083319730348,0.015465081708082225,8.68
-0.005740292362510138,0.05578638665592646,9.577898315840896,-0.010960087826702528,-0.009529527133734615,0.00840256428622064,8.69
0.0890921952298015,0.11820406642031017,9.773959734791053,-0.002103097759711905,0.006921887314611252,-0.003047837359333775,8.700000000000001
-0.05767743017048197,-0.23713216764585698,9.715569491631202,-0.005448339401401697,0.0215912792199978,0.004798021542681377,8.71
-0.04446073894695188,-0.22896061436768483,9.949705246308119,0.004244788482200802,0.009259178716247487,0.009796932800932608,8.72
0.1497057781073406,-0.06424469210362113,10.012668408798858,-0.010583353253977967,-0.004569960149955344,0.007243662241026896,8.73
-0.3669531371524588,0.11363676696564942,9.815809642807128,-0.004751620874918783,-0.005057239202645579,0.01768076636398026,8.74
0.04425864164734039,-0.16898944526239554,9.860047013985387,0.015999161586069885,0.009677532072192487,0.004268290970310873,8.75
-0.08968264783243421,0.03822126062336482,9.934892815207828,0.016907204712117305,0.003488222944931285,0.0037990919546904223,8.76
-0.06340001341325935,-0.03956329708264601,9.817307900790029,-0.0044901748287357246,0.01864060091857091,-0.009290883580566445,8.77
0.056376946475228486,-0.08904044085528205,9.717318106795236,0.0029046171886223655,0.005009405519411064,0.002867554523309701,8.78
-0.0007871661612040582,0.030950460281859233,9.92811537384398,-0.019380554600328344,-0.0017513271691038685,0.014340752288108086,8.790000000000001
0.031032129946316562,-0.03384407280932936,9.731469210783727,0.0032552677346071317,0.005128456343804033,-0.012325320187187143,8.8
0.12169225906510191,-0.05249814017825725,9.818112933554907,0.010610421826618322,-0.01142112457462309,-0.00566816485096582,8.81
-0.008990967468649951,-0.17407138836052138,9.736538714399199,0.011771653884756981,0.004476629682653299,0.010494234693619025,8.82
-0.018446643893876635,0.1445790673839449,9.762156779705586,-0.001278875530038105,-0.012229374527283027,-0.00497546839989469,8.83
-0.0051438929266384575,0.06813035343150817,9.814050198173309,0.010679649706012113,0.009532469880209697,0.005749179789247384,8.84
0.14921031580728608,0.1164166977079803,9.670780471742102,-0.0031287215713806343,-0.0026802320316926137,-0.009451758863002467,8.85
-0.12629485200908822,0.01868172076394362,9.750891673407887,0.011767082994629401,0.009533915290040038,-0.0013562122680712877,8.86
-0.03553427591696885,-0.08819650113344628,9.972056343408868,0.003509404686370394,-0.003840777373015753,-0.008400657917277999,8.870000000000001
-0.10901877253895609,0.066834980685037,9.815500157221075,-0.0022383547429802118,-0.002402956810648432,0.008598119682488055,8.88
-0.06103889916708987,0.059948176042095375,9.897330681430326,-0.0003878977808411438,0.0002561498816977732,-0.005431107905590864,8.89
0.28047243801230387,0.017217395095189738,10.030124895611834,-0.018535738819724878,-0.0022724389339715398,0.014936342271383869,8.9
0.03105488507841461,0.03292774384517472,9.813056072350163,0.009660644079460715,0.00513246545509922,-0.013928816539669478,8.91
0.028170580662007158,0.0977660535955581,9.828846818401132,0.0022148852025300324,-0.0070082985750626325,-0.006505385608427818,8.92
-0.15154698670182656,0.12086691772725883,9.825820588934516,0.0049333173525970995,0.011698081188261114,-0.010834193448957766,8.93
-0.002987255682093225,-0.0018448691662778507,9.774352153363191,-0.010364515243703363,-0.0014820383504916645,-0.012330911566249802,8.94
-0.0769505251488786,-0.02874487195130352,9.892355087714726,-0.008541214453105392,0.006969485676073639,-0.01606662316303073,8.950000000000001
-0.011280173227288949,0.049240378256475224,9.879653122486383,0.007274503575208835,0.005277457854725808,-0.005227125579851487,8.96
-0.006127068659050353,0.14262419517788075,9.964695261822689,0.006069815327526444,0.0003848414275281546,0.006819641979275959,8.97
0.05352057785843481,-0.022965522238425594,9.956050961295183,0.0029560275041612123,-0.006643165173776766,0.009570285153029313,8.98
-0.07130660041824421,0.08076696472597732,9.678305735717721,-0.0019508585512744818,0.0010641498472626647,-0.0033029360844144344,8.99
-0.1725304838650541,-0.04330390927420792,9.854605803808868,0.002412229335396136,0.004232376947674982,-0.003429408573806588,9.0
-0.06469305691142833,0.053015092686874,9.69036421722856,-0.013526036409690228,-0.01678448202330648,-0.010504652277328807,9.01
-0.05629305814681171,-0.06937083189687164,9.854012484691905,-0.0010095513971802087,-0.00936945174195524,0.010605618902737425,9.02
0.12078681001856195,-0.3240606308796011,9.74394193291043,0.003620776589478271,0.009064293126015067,-0.0027810940261011425,9.03
0.07892462739422174,-0.155997740896229,10.017251601189633,0.002900669192622629,-0.007945833322354342,0.009678510575283584,9.040000000000001
0.0948385332638162,-0.02284739722175559,9.66203331118026,-0.007781513168306789,-0.015115247392799876,0.004253043270612904,9.05
-0.01054905306497425,0.06488174871237479,9.777505543397181,-0.003791501506579517,-0.0045382395931983085,-0.00538665880685777,9.06
-0.19858973311776537,-0.08304348325841368,9.918216525474374,-0.0013840290460323044,0.021221987408645858,0.0026238605603636027,9.07
0.02638021839337001,0.0012402527661285138,9.62453823972212,-0.00887444067150883,0.006170363051482768,0.01580892457315588,9.08
0.06536265405600845,0.20355559054563432,9.772881875206437,-0.0038455595103557196,-0.007267925275363655,0.010805410545282371,9.09
-0.009442386144707458,0.011139452180800757,9.780775559255112,0.006428037946657579,-0.008961609301238805,-0.011695044508044683,9.1
-0.04998168103345613,-0.1167224094780459,9.641311001244057,0.01194783211986213,0.003993777300534238,-0.011227774389316412,9.11
0.0076587230626829015,0.04491402299721679,9.717700993728258,0.0019665907174537685,0.006769149527730285,0.007734718571421963,9.120000000000001
0.09730209889841536,-0.02900198103163101,9.78068672141785,-0.001862015867544635,-0.006853939592676241,0.009547196854800934,9.13
-0.13100035276589114,-0.02086898813528845,9.638716270074328,-0.0006886242557606569,0.008499134881496844,-0.007496700443122705,9.14
0.015005755601172356,0.17992080177049685,10.043295681417789,0.022725802889012034,0.0033047342044203666,0.0009059995845634467,9.15
-0.14342421880575057,0.006130376646938724,10.04286744472277,-0.006921913565184444,-0.00161059200998533,-0.0030329158583339596,9.16
-0.05183205591858661,-0.16369355980060407,9.821250508237066,-0.00690665814148419,-0.0126215684059649,0.02598031165363408,9.17
