ax,ay,az,gx,gy,gz,timestamp
0.04668823128649152,0.09144000582330407,9.812522724804294,0.012384333653685338,-0.007411724268260839,-0.00012562248946178258,0.0
-0.04579556174832226,0.047452965057223934,9.898638424268658,0.0085268430750905,0.001977751538109676,0.015668582855636486,0.01
-0.0006770720012806605,0.12770433868227662,9.96351952864378,0.016778237157814745,0.028352488118886125,-0.012873774079945785,0.02
0.09558568379538829,0.12980605080281854,9.776159439576098,0.0013768915168421046,-0.013270947764764235,-0.0031074497065796377,0.03
0.03545780274434487,-0.009546411756301684,9.698972561407043,-0.0026144127490737713,0.016989021725836547,0.009201183054128462,0.04
0.028539964080837612,-0.07856847362873458,9.773516753802017,0.01663380766006817,0.008995846235236764,-0.008582147563957677,0.05
-0.0896414139168522,-0.07834308809509116,9.902430406434014,0.015038715007758923,0.007756633001613222,-0.013496679700559977,0.06
-0.09528463825629374,0.0451732495129802,9.84761250072117,0.006351215759318239,-0.0047120879054682666,-0.0023942375731687408,0.07
-0.018326454514820185,-0.008935202700561026,9.87807264112532,0.0017602200650683097,-0.004761792931597556,0.0056247808534662345,0.08
0.08186440522974267,0.13008883154738668,9.697667697060615,-0.00848034421450912,0.0054763277519968056,-0.0008623498081613513,0.09
-0.18185928778766408,-0.0027600292422280803,9.866964269049145,0.001053713975705153,-0.003143777205000754,0.005119721988703612,0.1
0.006589106572418649,-0.04594074337445071,9.816882407003774,0.014660458273293943,0.005336465147249938,0.0085279927574978,0.11
-0.011451371708792582,-0.09288796588826367,9.81997504370081,0.004553520989991898,-0.008504766121852195,0.0029130282576969235,0.12
0.04874747841107078,-0.009269849684180386,9.812277872072915,0.005327411426299357,0.00837890690209419,-0.002343659764002774,0.13
-0.17666536488987,-0.09190579303098678,9.83957863188702,-0.004755481462892112,0.012759937730669451,0.006526624568176728,0.14
0.041865602448033626,-0.12247411052826387,9.776648545853448,0.0021758851933820454,0.01747191380965073,-0.006788360461897923,0.15
-0.039373679989369276,-0.007731590497014433,9.779378751907842,0.003536119421229745,0.0010019555192036405,0.01658903532018607,0.16
-0.1345074517049593,-0.0223588166508039,9.913012559632664,0.0002773686777527699,-0.008436845206760813,-0.00802030907094561,0.17
0.043454139704348936,0.015343896304389943,9.926627257730537,0.002703136853617532,0.010408168174780755,-0.00783539272576664,0.18
-0.035249684484630055,-0.06494252974977453,9.78055722249405,-0.003998230690786136,-0.009039085947659118,0.013362693544574268,0.19
0.018867607846377782,0.033153696673448176,9.798862508964035,-0.0031713231644946607,-0.016212504515758796,0.005187490284513675,0.2
-0.10901410081538339,-0.04778588173007017,9.894370111657501,-0.004171361734632893,0.002684133125305201,0.0030319859111135896,0.21
0.11489129064433286,-0.159844840063474,9.863998149518412,0.012849916326729851,-0.015917680275741336,0.02631372324559155,0.22
0.0030528047834328534,-0.07982808759319873,9.692749178099888,-0.010375405370989639,0.0019241096706589128,-0.008660383450723152,0.23
-0.006450736014068853,-0.10869482501527938,9.93500953882973,-0.005399816258816517,-0.00878022838164985,-0.01639544030160471,0.24
0.1994175123229027,0.21031019419620953,9.769812121442788,-0.008232707405972655,-0.014482750738113113,0.0008691992234526696,0.25
-0.0356933475203294,-0.13556206070779245,9.808484724776118,0.008574498516348585,-0.010110795273784582,0.003179371322671605,0.26
0.13540908364146217,-0.021025869694028965,9.85898933667477,-0.0019460366737351071,0.014418586381725365,0.006928147987850749,0.27
-0.07530496214673414,0.0451283252323175,9.833815520869297,-0.002125995610374552,0.0019376225015121829,0.015138213943572905,0.28
-0.00473885986981843,0.06520537384430784,9.842364375671036,-0.007451746319374858,0.0075607684692734845,-0.007971727046221904,0.29
0.06042888923009287,0.15284038915589526,9.734420601272374,0.0007863821754863924,0.007568987748715419,0.0029614495816835213,0.3
-0.1996991190944658,0.07708641346886874,9.801772001582354,-0.00999118236077881,-0.005537654235586819,-0.003980654031981759,0.31
0.04609877945266889,0.14491299422758977,9.724724868945131,0.008398766353516104,0.005750358964229195,-0.0022231245510198334,0.32
-0.20910324596239627,0.16466316515336252,9.804042917263656,-0.006228183602539061,-0.0010195507536623757,0.011225246280686328,0.33
-0.07033760840893644,-0.0472722336850897,9.72584429737788,0.007901672819058127,0.0002421539536609566,0.001230943821214624,0.34
-0.02467469708828761,-0.02938146198062926,9.767076211257448,0.004285435683481343,-0.007399598256442434,-0.0028012687481970408,0.35000000000000003
-0.16396543840265762,0.05118209342334898,9.76906823801108,0.009548829064374766,-0.0062308624929376675,-0.0002047836100113001,0.36
0.01895604663265116,-0.06920200235242695,9.871195618075689,0.0028624603424156347,0.0009560117494218358,0.023393996576224842,0.37
-0.2225292320468195,0.03035506450614871,9.82022477935132,0.0037926857703076767,-0.0012855752086258995,0.011559947891957799,0.38
0.10804481900721935,-0.0174066782839964,9.890222869944054,-0.002333063526852125,0.0013969024428907859,0.0034951016162175835,0.39
0.14872248130103874,0.1026049379585141,9.775939819331299,-0.006036666873940476,0.0030319323948061385,0.0038127124729163166,0.4
0.08043635064024307,0.04467321266227809,9.73138580967138,9.424735392221492e-05,-0.011267232710031811,0.006149981368121278,0.41000000000000003
0.037424591913676496,-0.1052417189475669,9.735064234461495,0.019212989676271174,0.002410495561537915,0.023476985063728386,0.42
0.009743830635161191,0.13815281980517022,9.807308571395026,0.010048139773606577,0.014990635325883586,-0.013852849290990232,0.43
0.0002634037182742384,-0.10524010384724614,9.862116446945507,0.008910927708302896,0.0102928497794896,-0.017089713839718707,0.44
-0.12800495964952666,0.09330799938510877,9.761628313284799,-0.007100488431300185,0.002087926652940867,0.02141180102468359,0.45
0.13976843015425122,0.05296591261032475,9.93553647144075,-0.015229735530488177,0.008161394611177151,-0.016512889701627616,0.46
-0.05006651719175044,-0.06033614387976163,9.875867075741334,-0.0011616043182246427,0.00607136707020785,0.009345030736970636,0.47000000000000003
-0.0357499927701477,0.2513852020596911,9.82556212725103,-0.0036078710216629483,-0.012528222800362795,0.0006997159564794571,0.48
0.11957996024135394,0.013048453059232855,9.828275941777964,-0.005044143031382619,-0.002360432236128817,-0.001651772710022597,0.49
0.045311065049963656,-0.04022511620537892,9.71636782345394,0.0032260435662158668,0.0009924384250859458,-0.005478373219869182,0.5
0.03808986829462349,0.05390126905361693,9.640276729764139,-0.009650442297287848,0.005638412906311597,0.021774720955148857,0.51
-0.08540308646185384,0.04230774720738737,9.633010954101136,-0.009232051813787098,0.0020560365733881553,-0.004894946681101842,0.52
0.15201310675867424,-0.09560407984536078,9.806570643808504,0.01957694715021476,0.013282607201632298,0.005309344313358796,0.53
0.05265401399760664,0.06052799018334774,9.710941435663287,-0.0016790191470210302,0.013607879177497615,-0.0033903517504759355,0.54
-0.07844549687981918,0.12546372455288032,9.733404686605363,0.01018561186572075,-0.007090021272605764,0.007536545104749536,0.55
0.13250504068023208,0.1079669958641387,10.00526023971487,0.008363685280760483,0.011296644200346375,-0.005956603605766746,0.56
-0.11217500889513068,-0.0946815602865466,9.784478992343086,-0.0013918206559181193,-0.004977042168399846,0.013213565233315438,0.5700000000000001
0.030203234936278064,0.08000763657180451,9.86836356666518,0.011223167799313465,0.00290970439059604,-0.008526062130125254,0.58
-0.08833211356182585,0.08343124871812346,9.670592245988013,0.0079608720434153,-0.014307075054096197,-0.0012004685322776077,0.59
-0.17962560317013013,0.045848652584349225,9.686097565885737,-0.013169930225481803,-0.004375793312301813,-0.003122075566896204,0.6
-0.00659855824348509,0.13504655474969565,9.82071526909538,-0.00448446234412253,-0.013362923926491917,-0.0079404585787038,0.61
-0.09380023018708264,-0.05589160008381804,9.758012845521424,-0.009963855910548613,0.007326518215422205,-0.0034882909114947575,0.62
-0.11008614465710974,-0.03194160413515197,9.874087779941988,0.006843135981781679,0.002869797253956079,-0.016461346377460363,0.63
0.15855526570991096,0.006053559656125795,9.83007667006961,0.007423944897124848,0.003257113897013527,0.010360400396462851,0.64
0.02716010462705647,0.05543363379769887,9.783600800139313,-0.01030565948742851,0.015029400653090018,-0.010580544769914765,0.65
-0.15649829837495455,-0.04494566446556951,9.828520754816834,-0.0046824731590738265,0.017450203064578226,-0.008241652083791925,0.66
-0.08089582119584211,0.04519987985807275,9.80875916170261,0.0076367076586023735,-0.005903165438174194,-0.007130942983154841,0.67
0.033351273158955703,0.061002769863144214,9.877707384304658,0.006743290374488049,-0.0025404126330715966,0.02931258558353351,0.68
0.12075482349408076,-0.0033910423128173106,9.641322381562652,-0.004353396300253099,0.0028474262286852514,-0.01876724486483175,0.6900000000000001
-0.07906993083069024,0.1200474856730828,9.696353566560331,-0.013467651338454551,0.0031623888574268772,-0.005026771974773425,0.7000000000000001
-0.05346079928289156,0.20191494955052694,9.711220822749215,0.00782773374556862,-0.0013530194567641124,-0.009671882816231298,0.71
0.08260347647317443,0.23085512370031733,9.915035948669201,0.006171090240616846,-0.0019228884913583403,0.008184955605953961,0.72
-0.03785665271723226,0.04845647447194555,9.856385873237468,0.005986269969871587,0.012314886343244858,-0.008669321131856797,0.73
0.12292663768651868,-0.09581001734252657,9.786049573201938,-0.014987067170015059,-0.0061567209691524285,0.0064676678587703845,0.74
0.04495092882918818,-0.06839471839406337,9.90757976835134,0.00438930189191915,0.004883056110096547,-0.018392093447949495,0.75
-0.1208357988995102,-0.25475531598999746,9.83497443016451,-0.0029667608441209855,0.02505995241159102,0.021081301857514462,0.76
-0.0017393590210259815,0.1418384354060866,9.770636530902093,0.013580631213669881,-0.011862412265847798,0.0034631354916517987,0.77
0.13881279361854598,-0.08564057506124556,9.728637588720341,0.010238287353338291,-0.003643329145113763,-0.02061585372748088,0.78
0.1384330531859553,-0.0990643657780565,9.832898717427636,-0.004646237608699352,0.021228872440435066,0.01041707743467098,0.79
-0.031196484268756104,-0.09057789540434198,9.756205323390413,-0.00878634285067892,-0.01811458829954254,0.012810071240439251,0.8
-0.007689767063011316,-0.030369402618130304,9.671972903039627,-0.0022884322073467916,0.0023133957754865684,-0.0049640316028651075,0.81
-0.13233294770719292,-0.1050108973718882,9.74324371473367,-0.031046277881735966,0.000394250373488332,-0.00016133398236387373,0.8200000000000001
-0.04804407955344364,0.03653691202611986,9.66681831361048,-0.0019858442220304475,0.007718876505648339,0.0012578951136891392,0.8300000000000001
-0.05578472063927114,-0.1104492868449249,9.733358792805728,-0.00032565682880487197,0.006789374610239215,0.0066647751464694914,0.84
0.04288499764101292,-0.04245366507030668,9.694301735573973,-0.00646569505073184,-0.00029382786937661625,-0.006169270661150384,0.85
0.008879091769361342,0.018309854307457737,9.834167884314628,0.002402965782886267,0.0026817220322003263,-0.003783005426257266,0.86
-0.002258187785498052,-0.11238628450174713,9.692461192548452,0.012125264804403384,-0.009404143122300309,-0.0035935185958527005,0.87
0.10704678622644431,0.025049976600276448,9.886607250104365,0.027568185084884903,-0.017835711744208678,0.008448078689919869,0.88
-0.029852054664680425,0.024629285325107764,9.679303187737661,0.011011826467230137,0.013230393162355997,-0.009108701093134827,0.89
-0.01739439108986301,0.06755435120319934,9.875795082696786,-0.008170169307893625,0.02244018988322457,0.007028130470602072,0.9
-0.02742982757331341,-0.0504553102971307,9.804634847074514,0.0002808457576609341,-0.011535089125882228,0.011363978359909302,0.91
0.03778579150843767,0.15931412091093267,9.822632295944032,-0.0109612412781672,-0.005565357928369787,-0.0008145839919427799,0.92
-0.0074392806387156875,-0.06605339136388914,9.92394703614875,0.011476622767293627,-0.0008107111416339801,-0.00038168842669252906,0.93
-0.058118434987865446,-0.03055929637462261,9.792932788718499,-0.0017171636542731344,0.010335073203955342,0.0036413518966745503,0.9400000000000001
-0.02703093047002511,0.05253213861949692,9.732297256466321,0.020982698060013235,0.007163193794381461,0.002769736714006571,0.9500000000000001
-0.11204761657281595,0.0676239924643474,9.716436031683433,-0.010440617214573383,4.185041562157092e-05,-0.006848641778059765,0.96
0.007735787814926909,0.05372375406159609,9.884418393944184,-0.013984939644577712,0.0007183754255393806,0.009681370335058677,0.97
0.04995458049959304,0.06875290303301752,9.833107963118492,-0.006130416208130971,0.01233065076443147,-0.015775030816018838,0.98
0.024622191179936994,0.11312863914631902,9.853143551963266,-0.0010570245281616862,-0.006174077089823542,0.008053229555545795,0.99
-0.028336816499344383,0.08710689129156818,9.72965564708921,-0.0006728782155656138,-0.012389464933719396,0.011919728528099123,1.0
0.04617228799362755,-0.022428120694920606,9.81828254002385,0.011246927360761598,-0.00039157226759080815,0.0017101986470361822,1.01
-0.021036820270229684,-0.05013310000355338,9.790261400054987,9.507078143345954e-05,0.00820128598153858,-0.012363559271485944,1.02
0.08915681176097812,-0.0871715416981047,9.962123425531045,-0.013164914197790518,0.005519964817236366,-0.012659649081473443,1.03
0.1952788044223039,0.106731147844975,9.853624657402511,-0.0036202563658605724,-0.014899384805022823,-0.00862501123331152,1.04
0.12465628493554384,-0.00839746934259975,9.947242576486143,-0.008621150554216661,0.0018800004029090806,-0.016796158644917288,1.05
-0.08468774420068674,0.09752780091002616,9.653848120871748,0.0013822075706272255,-0.012903975308852818,0.009205952832518308,1.06
0.116404259209278,0.020220599365836575,9.840077096998723,0.007640775508503533,0.0016819694408067585,-0.010903501065236638,1.07
-0.1391086275327463,0.06687320085397605,9.907070316397268,-0.013517271705554352,-0.0014235050767075514,-0.00028753224005689305,1.08
0.0644447727234376,-0.032505543751720815,9.746918398074948,0.0010969399611917012,0.010617228250981645,-0.004845286839652383,1.09
-0.13879776333928648,0.2216765041790767,9.729041745055238,0.0032359444485059313,-0.006404506105982583,-0.019905827734315915,1.1
-0.055900887394900636,0.049323845117969195,9.792386882535236,0.002350821799349081,-0.003990846804490974,-0.012654996929470013,1.11
-0.14505171275971926,-0.17488090426599848,9.856848940256752,-0.012436700250937195,-0.003614828110100396,0.008272878148939702,1.12
0.07305519779728994,0.05545921997012021,9.609670002989226,0.006862325090839639,0.0069945942559970845,-0.0030743998119388987,1.1300000000000001
-0.10475842391587703,-0.061146685746777375,9.828472740443225,-0.0004926871922166138,-0.01608404670869463,-0.006834317775057091,1.1400000000000001
0.01554554972374985,0.00424657066130708,9.881080238376692,0.004440242063620055,-0.0195000682751656,-0.004834049619669691,1.1500000000000001
-0.06845353278203269,0.03217550711971949,9.690213791897975,-0.00300953326609001,-0.0009760827855451039,0.013516750493037447,1.16
-0.15605326553902546,-0.10770012268960936,9.740849147473062,0.015721554810753876,0.0047366001107778935,-0.008095057988364431,1.17
-0.16959868474938156,-0.0563277833059444,9.868551787196823,0.01608107723659276,-0.008931904451243025,0.0060264106462396575,1.18
-0.11667692827629222,-0.05808838639803907,9.736458817081255,-0.00477001325995496,0.010114226290125924,0.01851144800508454,1.19
0.08901265692575883,0.041089322363973786,9.71219958881646,0.005007102896681333,-0.0009850512070872972,-0.010292957436614339,1.2
-0.17531292161419298,0.03642235763975958,9.95844042781177,-0.008221359917037404,0.008502017467633275,0.0003191320500157597,1.21
0.0394015706555489,0.10971742599829765,9.82361694151235,0.0026344357683440183,-0.004093261886338125,-0.003354311761949064,1.22
-0.11530926649661376,-0.2032245722931891,9.781795568925771,-0.015517500841267379,0.0004031166764843617,0.012813100206449235,1.23
-0.005906702468411397,0.021740443566706052,9.698348076056192,-0.013390843248172577,0.010303043744011673,-0.010375802040540229,1.24
-0.06840107166236416,0.11224144922586064,9.550185941990113,0.004801978065875637,-0.0029432671514723636,-0.021216959414075007,1.25
-0.06844657015731424,-0.04607520947711267,9.603789944293723,-0.0009302650862434216,0.006222742922941747,-0.010974851742998669,1.26
-0.0986336106463932,-0.20940569137449608,9.898223895730673,0.00011480329451748723,0.029188806906425616,-0.018231237915945057,1.27
-0.1679010935548823,-0.08055920550905371,9.766759569322302,-0.0016272682814947293,-0.005464386063166191,-0.0006797232094586268,1.28
0.24260384295417514,-0.12332240036419671,9.725002028703798,0.0032120629669951514,0.005899317083844945,0.002027502198795001,1.29
-0.01902734535294809,-0.01574101426556265,9.772023990045808,-0.00812910995472854,0.013145760419137396,-0.007397025094905714,1.3
0.05376298696329396,-0.07883300617541454,9.82991488629874,-0.000624770509943164,-0.004483667673003339,-0.0062575131917143555,1.31
-0.005368651182893833,-0.06718656886171033,9.693325341365048,-0.00945453493249422,0.0036161419480926753,0.009867395159903033,1.32
-0.01970732606567037,0.11698592349135312,9.89457254143404,-0.0016174175868413688,0.013051445464153053,0.0005064462815986474,1.33
0.0879385153953615,0.018301174216370977,9.880456206748166,-0.002150915557167238,0.01264121549705775,0.010116759337667066,1.34
-0.03800014446770323,0.12418352717510078,9.765777330532341,0.00016334554188971478,-0.010797147133100728,-0.007596048637667442,1.35
0.10822609758883968,-0.04819802863978552,9.90930517485641,-0.010729963047860332,-0.0028861726366439778,2.8321728236182503e-05,1.36
0.02706508358806279,-0.08853673561576027,9.997569328872533,-0.004568129876297508,-0.0017663894119499977,-0.01379052065652406,1.37
-0.08876461215190543,-0.09856664324834585,9.638051635681858,0.007546013308653415,0.010015363879296328,-0.015344578840128366,1.3800000000000001
0.14694131089902077,0.06316642684366006,9.741293730748605,-0.014596328881317695,-0.018863588359902008,0.014677622032394961,1.3900000000000001
-0.05741309983840575,0.01679925432587014,9.843167306322755,-0.004804529677267023,0.012108309892815751,-0.022862485375461712,1.4000000000000001
-0.02921117204190556,0.07593327507324965,9.790287593600386,0.00500938232840039,0.0011921445384555976,0.0030356575472291094,1.41
0.026646926435204655,-0.14139743948206787,9.801339978003275,0.0018965784825477833,0.005505980350819474,-0.003104307395078216,1.42
-0.07175012043822575,0.0049102198235927395,9.669530127929258,-0.012719716730623574,0.0022383213647100236,-0.00028491896133878456,1.43
0.09270685995297588,-0.17354438902605307,9.674885024200341,-0.007472069101692911,-0.009679872029451957,0.007475464913901333,1.44
-0.18478192901015755,0.06845281809646253,9.80254898067811,0.009581677136004618,0.00037259955579099405,0.009628982193118066,1.45
0.036659650405950546,0.05809868410894035,9.806088292844017,-0.01955554522133761,-0.011262129922286243,0.009477414982619482,1.46
0.03967695335208417,0.09511661837532905,9.833225808504421,-0.011456143584549024,-0.0173038331948851,0.0008691659902034853,1.47
-0.07799178085751957,-0.06562703162293307,9.969639314496241,0.002157440587710778,-0.007583600262078176,-0.006742967715425321,1.48
0.01743209825788866,-0.15250877470727722,9.83620338423269,0.006989126215483143,0.006272105959891304,0.010766210034063457,1.49
-0.1074233388376783,0.16014983309634817,9.780594186920434,-0.009235627524604243,0.005392237364393772,-0.000604952908705608,1.5
-0.040636648664723926,-0.07974713139168384,9.940642648802628,-0.0030067122786377916,-0.004630302507512663,0.0003033384344626739,1.51
-0.09716037675383572,0.028280546021671845,9.921584097217778,-0.0032839159649823463,-0.007265356971468576,-0.0038364457082081965,1.52
0.05839692114116617,0.13400330679317699,9.80031783567117,0.0002458177498169665,-0.0009259294164205715,-0.0020659621875140696,1.53
0.04316071065604942,-0.16850046682718808,9.695849368197766,-0.004510427395585782,0.0057741293533736925,-0.014559540301899378,1.54
0.04401742948759701,0.16921555112435063,9.849765340933152,-0.0062607705120486115,0.010915152597087148,0.021978058658365978,1.55
0.031466117183809476,-0.19303637829739864,9.84694125710808,-0.007051488938322559,0.006700478215071342,0.012970938979182332,1.56
0.08789081652947968,-0.01676149554588138,9.713816065277683,-0.010164322484918355,0.022303691599661075,0.0006942575496439609,1.57
-0.04043688103231299,0.08009879436811551,9.839143927258126,0.00446270663717507,0.012086001229571016,0.0033049922271012576,1.58
-0.15138137309143332,-0.09870714198146378,9.877743827387713,0.007810047774081502,-0.005900429474079431,0.008016776100524876,1.59
0.037340224654879,-0.060072782455290255,9.80421971937135,-0.01768640778514336,0.0003177489284907961,-0.005543713426908366,1.6
-0.04339924918652765,0.09782833814490738,9.701737602632655,0.014967121733440293,-0.009057540163340786,0.009485367419984276,1.61
0.12514867552962342,0.07931941015397707,9.760923408059291,0.0005077166312422539,0.020707353412053646,0.008311962639432234,1.62
-0.074760815022156,0.045850827513912305,10.009567009534384,0.007724010188718485,0.01653684090717968,-0.0034991731167267094,1.6300000000000001
-0.03550828517604307,-0.060911644938616484,9.766082438118504,0.009814073824170351,0.003633994671617284,0.012370965585992561,1.6400000000000001
-0.0007067978191851506,-0.21190648771276155,10.081004056107462,0.014096288944033792,-0.0066665393701404035,0.011963304115389919,1.6500000000000001
-0.1546580857608678,0.17338399410872793,9.788740664771712,-0.016356122220505868,-0.003149465923810302,0.013157240484328763,1.6600000000000001
-0.1222641667714024,-0.1698525353277628,9.819118174740042,0.010041255251374996,-0.006019848611585296,-0.015433843497449485,1.67
0.0734455487520324,0.01871527466983034,9.701771162021272,-0.009429960991863396,0.018247269015394914,-0.017598717919439386,1.68
-0.18155120690446047,-0.11327354574774562,9.96379777607393,0.0009034654442671803,-0.015328443280768945,0.0034393669916392405,1.69
-0.11937095864104458,-0.13748013768431186,9.825158995285852,-0.0019881804180996126,-0.015985077414905347,-0.013566136813284883,1.7
-0.09586606902551062,-0.030765505352167124,9.847230489164101,0.006900925104024428,0.0017995979463856372,0.006075662251930383,1.71
0.04578763666602853,-0.17340666621616793,9.851742507516091,0.01792121256130037,0.012269245016931125,0.014116712683428208,1.72
-0.21354485122728728,-0.12052317643176767,9.744586164595516,-0.008319421321648302,0.018035528423764036,0.004303236658419345,1.73
-0.055457664987046344,0.04831089434494246,9.829158586374726,-0.010468527361836703,-0.0038052122791304033,0.002958181585494376,1.74
-0.02343692829178487,0.014863960664436042,9.855238427671592,0.0062400726284295325,0.021312367178845517,-0.015173784123703021,1.75
0.0050900228155490584,-0.10966091001403339,9.877765122564421,-0.009256281501738536,0.016375687100316973,-0.002644452947660322,1.76
0.0658576709710117,-0.1663202185125078,9.976495506071462,0.014918079940231744,0.01491685946027,0.003410852354307216,1.77
0.015480884473494633,0.027065140578467952,9.796782289984318,-0.004897637548026647,-0.017912759596807125,0.017537094211752022,1.78
-0.0973445421806594,0.016584280972011305,9.666467180333454,-0.009015072350356921,-0.005942463048132477,-0.005360355372139886,1.79
-0.060681554698475186,-0.05535831362017779,9.81996428284772,-0.007134349084040404,0.004838040152643187,-0.006596538805452087,1.8
0.15375459259085913,-0.11924282037913998,9.908871621992844,0.005174047007469677,0.0005404081000488447,-0.010884789325010422,1.81
0.11253589515858171,0.20804052586567492,9.564784438520112,-0.0010038704237163613,0.021339311497233972,0.011144521139715202,1.82
0.03125560069709314,0.1727917677625107,9.742411666142464,-0.004160999507030139,0.002585259829060753,0.010262987536616197,1.83
0.07156603139894312,-0.18498644317497245,9.801597624843627,-0.009479562931510165,0.0053697001527144685,0.0006024034656351149,1.84
0.17956300096469255,-0.05566333244957483,9.798588305278363,-0.005809140460654119,0.004966754652261929,-0.0029258276482416385,1.85
0.019595814184106535,-0.12302561367181264,9.954397983047826,-0.01601423462737022,-0.010064415427266975,-0.003455328743116019,1.86
0.15307984837467403,-0.03781045760093703,9.759002865364495,0.008664702394333144,-0.00525892183748297,0.003853212675105956,1.87
0.059578637939140824,-0.06566215671328389,9.595745120532891,0.008220857795735757,0.02761686817916006,-0.005884073722520469,1.8800000000000001
-0.026026867017800572,0.15131554545904224,9.80645933068404,-0.012459612400005496,0.00849159940335584,0.005817062767043318,1.8900000000000001
0.15626503758251825,-0.020821342738317466,9.75608870664543,0.005875078908952891,0.007140435129177455,0.0024016461835703836,1.9000000000000001
0.079855630746548,-0.06269550668843807,9.940219100361663,-0.0034036653518893633,-0.006636098619038493,-0.012804148900942659,1.9100000000000001
-0.08033354402307212,-0.12517667265378593,9.90392608001754,0.01948260814810486,-0.011947654648073014,-0.011854965458597518,1.92
0.0072910233085445,-0.20125333381500804,9.696805348473585,-0.003552315831636077,0.013405462468147672,0.01194096301703372,1.93
-0.10189081416262691,0.09426209056386387,9.814150365648969,0.003000024861015919,-0.000887739569851507,-0.014723125230360828,1.94
0.08546053570412956,0.005967073034450432,9.798378571346518,-0.0002371112224560377,-0.0058946604282694316,0.00536340030130661,1.95
-0.04602268908368365,-0.14641315741410296,9.859157094360658,0.014631401491307821,0.007836511145281775,-0.0005203327597846461,1.96
0.01183521732610723,0.08130575712758253,9.98424553661436,-0.01046682169371165,0.0010835839619773339,0.013004283018688013,1.97
0.10211694696155411,-0.18605574961111557,9.688964077001927,-0.00584175627566984,0.002468168291171906,0.008602732470630823,1.98
0.015444121002012602,0.17179022828142299,9.800640693092653,0.01872969899814116,-0.0010943571549271514,0.0054776805975403995,1.99
0.10123819799458572,-0.1618884964899239,9.724071894103275,-0.009760550682228536,-0.011897204456089043,0.004923796162717255,2.0
-0.04214379296999827,-0.20105254675250556,9.636594942226735,0.004214228474057433,-0.011214796655870853,-0.008428273510617422,2.0100000000000002
-0.03390836183428503,0.020936276877111193,9.955638912440643,0.01493333450385346,0.000981076587298044,-0.012994336479945643,2.02
0.10011710169729658,0.010402014529109256,9.872978924975435,-0.00044885392972308854,-0.005494499874848849,0.004447266807547044,2.0300000000000002
-0.16262877308299753,0.046929357151340334,9.606298425636142,0.0037301295355900393,0.0052980681290811325,-0.0018880315375661284,2.04
0.22598012945705476,0.048968699881332116,9.75902374632425,-0.003266232367129925,-0.011532934036359603,-0.011573521370120363,2.05
0.15086766276354813,-0.1990818429755992,9.774501051284675,0.006971928725285716,0.0005049587724753263,0.007222870032243376,2.06
0.09258471232864351,0.023794897458207235,9.868918268454413,-0.0019200169968272849,0.00036062807819061153,0.007449769923179368,2.07
0.22212561401218,-0.06103010070848741,9.806550113747695,-0.010095116519136325,-0.0049325602376892935,-0.0005131645073064866,2.08
0.04419680829011006,0.07472433820843422,9.829906929130141,-0.0018045906707534532,-0.001591942653603099,0.010784129958639564,2.09
0.15125187535931994,0.08745034292513638,9.857703431956436,-0.019872043952362455,0.009857632898669332,-0.02007171037264526,2.1
0.1552411944062575,-0.1960715255616613,9.850191385806033,-0.005727507606469493,0.0005993664397189704,-0.006179024591810312,2.11
0.1350863738200407,0.10625110874114695,9.753190336562225,-0.005223796291796774,0.011101597189209524,-0.008888854655169415,2.12
0.030095209417093007,0.03373318282907991,9.761941440397047,-0.0035903935419374844,-0.0011320680547544525,0.0005726709090691897,2.13
-0.07704522616012655,-0.006336967879563976,9.79927616006276,0.015222955657480759,0.0023212087875155423,0.005952456666802354,2.14
-0.04074349341476548,0.08712248679412261,9.850963421069098,-0.011527713534707518,-0.014265152942701734,0.0169590608991978,2.15
-0.18963596351323808,-0.058531429373665816,9.816270056519148,-0.009428302617375857,0.0152300990728126,-0.0023276169865719706,2.16
0.009792896186215339,-0.007143149642120816,9.924169727069891,-0.027616630964498182,0.014406024446358353,-0.010320674473993142,2.17
-0.004072985149575644,0.10971481671269545,9.772559201064803,0.01691203610005099,0.00041242363744120695,0.001038947592948229,2.18
0.20023014991864563,0.09313824315661937,9.648665320623824,-0.005527575729269801,-0.012246523825928316,0.008619838851066448,2.19
0.053930073178606,0.0026086564383267356,9.896414150277625,-0.006913858510928162,0.007746054493737902,0.0005049936351970661,2.2
-0.06087699862060393,0.06077494571983482,9.860134512511443,0.004765312993901731,-0.0012268141779626814,0.004871986439448243,2.21
-0.15311571559718742,-0.1826867291699285,9.768036990685852,0.00028736806083829277,0.0029038811298562985,-0.0013291673903317678,2.22
0.02471036776661045,0.07365984343992582,9.731328161883969,-0.012913899745073329,0.004920469638065877,0.00014097507400980227,2.23
0.007922252705375601,0.07049922967900044,9.747305982271225,0.008494167939302721,0.0052405817609834275,-0.0034320014636124835,2.24
-0.23458207752026491,0.022988838358154434,9.802235049337966,0.0008273853425033726,-0.00693326791430425,-0.010755580814725208,2.25
0.038611706127467664,-0.06056281128266642,9.71751861573095,-0.0026081114565072137,0.002094777940366863,0.0010159966743757713,2.2600000000000002
0.19707024936993855,0.005433384139813196,9.770322341648022,-0.0030204376085348358,-0.014366856317301889,-0.0027855840444025513,2.27
-0.027621835395285815,0.10342021563927291,9.890215071328507,-0.010810566702925099,0.004690838211041457,-0.01396347191114089,2.2800000000000002
-0.04383122608657697,-1.5365947141669035e-05,9.842887435261478,-0.0012369096921667382,0.022832164184194852,-0.00931770571066782,2.29
0.0787537252166297,0.10264866710209775,10.062985847277753,-0.0024657485171634664,0.013542119792891263,-0.013455738039080161,2.3000000000000003
0.004129130019019811,0.1763571568968559,9.802964018562752,0.013550665645898727,0.0029635373325206616,0.002851671742347297,2.31
-0.11977118298125074,0.028657047948054522,9.563512308669203,-0.00989961810101241,0.004338924760978826,0.013232881883009187,2.32
0.04171428836369967,0.09284078461989012,9.976373048845282,0.0005770009186675035,-0.01106634689693379,0.002887233178316697,2.33
-0.16839971794512354,-0.1280558223199573,9.815286298264619,0.0009789705663448517,0.0013832183862088527,0.004699003960736146,2.34
0.09511173255043141,0.050494159220457274,9.767252175199031,-0.00811979583802503,-0.000873072274655024,0.006268908125611381,2.35
-0.050147360885297546,-0.009632566919543045,9.886860314470965,-0.012518067674169714,-0.00753720982122392,0.0032032322119803958,2.36
-0.07239967063402424,-0.10553267069062673,9.70103786972018,0.026922696306803297,-5.066928488632053e-05,-0.008375296534223118,2.37
0.010678357250039898,-0.012974088204137202,9.874224831284055,0.01758000417996219,0.014158228481052972,-0.003945395376522653,2.38
0.1042405541452103,0.11630007365851994,9.86045700034384,0.0002567063965995804,0.0013067124987120374,0.004799569186951922,2.39
0.013732479332100964,-0.18324526920654371,9.815269110067593,0.008867218745588072,-0.0010014256867316507,0.0007765850490860392,2.4
-0.1563583353393624,0.023877704104302542,9.893184679414745,-0.01649247178505763,0.010818708279904417,0.006411407737029052,2.41
-0.00309376744378777,-0.026587814977342056,9.900493435028737,6.23035132854665e-05,0.0054747204765959005,-0.005118140155210876,2.42
-0.13775012797188288,-0.18403759375555256,9.52426714136724,0.007342600960857704,-0.014285572862212619,0.002385670050418679,2.43
0.05356182157647637,-0.07916479946428204,9.669410556176897,-0.011041843363633572,-0.014382561540981808,0.0013126343089574092,2.44
-0.16813019852840294,0.10894850255435361,9.863353027060334,-0.011677896498895819,0.001877064037739987,0.006962583165806581,2.45
0.029826262036325962,0.0006000211316126905,9.963354193873352,0.00862237633790271,0.00022060909782977605,-0.004571083362739408,2.46
0.10634249784888944,-0.08577293358246169,9.704254395784783,0.003956608222138986,0.024865891553206447,0.019175289345889874,2.47
-0.023794356397080628,0.33959659638517986,9.856751456517427,-0.00258399132465256,-0.007288102593553111,0.0046169263618318895,2.48
-0.052700793303101415,-0.029414250024528257,9.845106696796623,-0.011031560488402493,-0.0025315013389596666,0.004901244544021112,2.49
-0.0775486183495035,0.0880615914521096,9.669520980786427,0.00778952522834414,0.004376854937302492,-0.005252078658566159,2.5
0.013040807982163375,-0.17798936314491554,9.759332345630629,-0.015699559066072795,-0.013077787754335046,-0.0025704498452522834,2.5100000000000002
-0.04813922464062035,-0.2296938290193341,9.786147282461531,-0.0015054110025704576,0.012722431600283603,0.011306292554912943,2.52
0.11344889327485719,-0.05013738952846386,9.86148372586683,-0.009052861894245468,0.009341607231313942,-0.016940221290502207,2.5300000000000002
0.0931796019525298,0.2360935471425437,9.794382891649077,0.0052886031035533545,-0.005644126821003673,-0.0018013931625312368,2.54
0.035383998687366594,0.11907987179779547,9.95241807843608,0.01018989169083709,-0.0009347588644925596,-0.008934724925721768,2.5500000000000003
0.004206187312219778,-0.06515824548120543,9.80806600803743,0.018603452590626287,0.008201670802147537,0.0028894919396519948,2.56
-0.2052799300146182,-0.03241864264595962,9.88075350790416,0.006079434662364065,-0.01812306205454747,0.006776202128113166,2.57
-0.10189986589262273,-0.08607034294678956,9.855333232470242,0.007835616666333083,-0.0034017236882941887,0.03120674655733367,2.58
-0.02312753076000318,-0.16636985037596297,9.814510207910699,0.023504140918432562,0.0016807263154789347,0.0030094642277337796,2.59
-0.2227137066957029,-0.050501825168324334,9.876982040968535,-0.004568485930954552,0.004102387470129259,-0.013157640499555095,2.6
-0.0192737938840899,-0.002939120624621226,9.539818196944058,-0.004842570237720344,0.0031775503448339994,-0.012974620609773958,2.61
0.1199688582565617,0.04833038584609603,9.818570951688276,-0.01814307485720866,-0.0029970948473458736,0.0059152866097438445,2.62
-0.0695253752766691,-0.03910429286121959,9.878146922829307,-0.012728497477154188,0.023781109107741755,0.01700681965836055,2.63
0.2501001066385891,0.25559310398229723,9.809820961664862,0.0018758806353292498,0.014275973531972904,-0.015097327280805818,2.64
-0.08668959025373725,0.16362105096121138,9.707247494785907,0.005015627713899969,0.0008402194791980123,-0.002334863197811538,2.65
-0.24643753956601727,-0.022174026360028486,9.870358757098293,-0.02074009786901551,0.0018374154412249463,-0.01006538912688074,2.66
0.02933111055743441,0.14456698643326002,9.695259961378058,0.00011817005296515021,-0.015550260995928614,-0.005746971916333886,2.67
-0.05777578096214106,-0.12062287191554816,9.814488519472942,0.006906514945336441,0.007849198577963092,0.00852488498073553,2.68
-0.1043876781765655,-0.20235229601579166,9.873108550488523,-0.008984086835438542,-0.013212201571341911,0.00017481542620414515,2.69
-0.09610893689463024,0.13691300750684982,9.902051417857198,-0.00034718514794905293,0.004146112984207156,-0.0010299536216639017,2.7
-0.15747269574480147,-0.10954128293127315,9.757820172787374,0.00815261382659666,0.0011408630889944281,0.007985331135107597,2.71
-0.047867981333253914,-0.08158263543530707,9.74999756084936,0.01210462815829165,0.005177154904356598,0.0024768861184753864,2.72
0.028410025858281802,-0.14105725489986629,9.685451205325098,0.0014611562654914653,-0.016445724504618713,-0.004135288267933695,2.73
-0.1209137563635233,0.09746278848288535,9.739876854912382,0.022083991787551542,-0.0021016069316691947,-0.007454711518456534,2.74
0.11480529897268132,-0.05016367846773132,9.746172039280454,-0.007090020064643562,0.0067876240419182535,-0.004258660660900178,2.75
0.04770641534294195,0.15244560546880798,9.891053741915226,0.006779739172954767,0.016488719066465377,-0.005545872736483535,2.7600000000000002
-0.040771501990365,0.0885511749510567,9.876430579400873,0.008513221374078214,0.013385995856742636,0.0005748862339511637,2.77
0.16330810091926462,0.07037543479813867,9.776976270816684,0.00491368754753891,0.0026860864497123957,0.01436208177768495,2.7800000000000002
-0.20849292739616374,-0.1055413312316572,9.799636325120671,-0.006881444473508372,0.0063803460196736874,0.01676967429369137,2.79
-0.025267913066637577,0.00629026882729485,9.895568179836816,-0.0018145205216342605,0.003429223373427312,-0.009735246685417073,2.8000000000000003
0.024786373072251913,-0.18707716602269076,9.841727655357964,-0.0062204800950005565,-0.006736093509196416,0.008952381190177085,2.81
-0.12518793646605306,-0.012749388635010484,9.875968365272527,-0.0016232642354591209,-0.00743157514072582,-0.013964881017041228,2.82
-0.03217118474061369,-0.07409494645011334,9.930849633382676,0.015509529429941183,0.0012571683047410808,-0.0005352649798175005,2.83
0.12752009974029227,-0.17662693643748023,9.849900852656605,-0.0010461919239443855,0.0004579307620366985,-0.0016089631461573106,2.84
0.019231109618210923,-0.08053781743774942,9.679953834203797,0.011575442154575009,-0.01620903279196711,-0.017734854187799316,2.85
-0.06146744416715197,-0.02225067979751012,9.70927297809487,0.005608711762841065,-0.007913786965926461,0.00047603056983147173,2.86
-0.12833213575354968,-0.003970550625663957,9.732616135899322,-0.014631557136560884,0.0005146387018008726,0.007738291479923385,2.87
0.14166644662206648,0.033221226090992914,9.890450310782352,-0.013838038258091719,-0.0005802889965168939,-0.0056872858214207156,2.88
0.027234724035434223,0.03819643012043034,9.682494188543641,0.009090165108688146,-0.0022048942589936427,0.0170854987658877,2.89
0.057754845351500654,-0.1024014084086185,9.806591473102051,-0.0019059691728373568,-0.0004649583738721585,-0.008429520286646695,2.9
0.00031018344193236007,-0.05457837513114958,9.680663825063176,0.0012671159373294802,-0.018543401721644977,0.003947270082896599,2.91
0.033922532648834096,-0.045902958384856585,9.752445575612606,-0.007537555990307919,-0.0032093453072055745,0.01073021030208505,2.92
0.0014548231973160756,-0.007415348973373665,9.86423789112704,-0.003069377060198338,-0.005742814391303475,-0.013117452366801506,2.93
0.10434670490513565,0.13126208382374294,9.912943871511025,0.005518976408145003,-0.005814329741264444,0.003726680828078074,2.94
-0.015057317395643198,0.13999656536057,9.802094206597587,0.015553456463773605,0.004952915267318597,-0.0010283010177049396,2.95
-0.04655205284713085,0.1497358292092705,9.995714810049229,0.021835179026811966,-0.008007012465406357,-0.0006134743700589621,2.96
-0.0012739296339381997,0.02242846245268089,9.840908176286883,0.01605234879095797,-0.004121158581689911,-0.019752563687215244,2.97
-0.159114519885992,0.16140581622785588,9.811709481142918,-0.0069255193939816795,-0.01618060484948006,-0.0031495079600619047,2.98
0.05456824306284569,-0.13450978217985451,9.80150218173251,-0.01825226403942417,0.012473092040356435,0.016396431220975033,2.99
-0.06367474188811247,-0.16298089726618023,9.719974883559745,0.002061787775327781,-0.0059032926882146754,-0.01302309790036777,3.0
0.11424469490160555,0.041899313171376996,9.686824786677972,0.0015540450243955173,-0.00834569841868675,-0.015710782820089406,3.0100000000000002
-0.056793777593129084,0.04130531794600134,9.856970176526463,0.010376627269996837,-0.008893415729422177,-0.009423717753100884,3.02
0.2778088502136036,-0.14033117969584633,9.49585562173113,0.005750924372458518,-0.010192129889269609,0.006176718418084835,3.0300000000000002
0.1087543122415064,-0.05192741770759464,9.911465553881445,0.01869198698517732,0.018325694125369437,0.007946352812629717,3.04
0.10459558583992833,0.10361699087601467,9.913627969669031,0.004065388405470262,0.004359462602115595,0.00428258990200727,3.0500000000000003
0.007798859824703475,0.059852253928321456,9.709304524813613,-0.010545976828520614,0.02275233671985984,-0.0067701773079353765,3.06
0.08001382803587836,0.06485713361899373,9.63031421926947,0.004650443518108069,0.004528562196512041,0.00891841323755364,3.0700000000000003
-0.08974199713944729,0.16913647493630196,9.98207492502512,0.010769523372482015,0.012507025378674763,-0.008476336983244289,3.08
-0.08476840020794596,-0.11234239324264222,9.845670294199644,-0.0034018737409626095,-0.01974475880123774,0.013556485597623192,3.09
0.20402434377970846,-0.09413619317105842,9.892955073712603,0.01591398429654261,-0.001278547286726894,0.005519204448014022,3.1
-0.0373456941390691,0.08326120361481128,9.85961388930803,0.01013644343160221,0.0073812485699589385,0.0024060994111747727,3.11
-0.24062419202721116,-0.03389505088003671,9.982838053539233,-0.008223904916906827,-0.0017567144354238141,-0.010337740049424518,3.12
-0.03745899459847314,-0.014056830830732364,9.809020687594389,-0.010316596100726804,-0.023061439605188586,0.01018788403852235,3.13
0.0754303014640864,0.08694220190153523,9.919836342031992,0.020487436945018356,-0.0008587791389233668,-0.0026690576260581383,3.14
-0.051734717137119204,-0.2303000595175614,9.68032971047407,-0.01383739926126469,0.017382944941246998,0.002382324135424523,3.15
0.041337901403814825,0.0953911541453153,10.065730051638244,0.018787626820358685,0.010800019627048445,-0.02158767466773359,3.16
0.1189456646853951,0.20205897292628308,9.825250350524994,-0.007141500893962339,0.01404991047612827,0.017364314283833494,3.17
0.1374843066060226,0.0649650214236146,9.749593635718686,-0.003362382682539591,0.00023696011391040206,-0.006399635346103002,3.18
0.12944788734836218,0.0819928043380368,9.809763475775501,0.006156672799710281,0.0035120335839351332,0.010478172868418135,3.19
0.09859822588524687,-3.600359780517413e-06,9.94236902732752,0.00915089086685341,-0.004412590893886815,-0.020194713477021366,3.2
0.1383170641716502,-0.053213303051476216,9.859677172530791,0.008567472251705645,-0.011938922162511459,0.013564895775795201,3.21
-0.0230248074578433,0.12519930767177156,9.748295109904902,-0.006881237359031313,-0.01862163125365487,-0.001101332173725657,3.22
-0.1391794091510779,-0.11721187183191369,9.815919333963654,-0.007745631040063836,0.004876080761489325,-0.012973154221067706,3.23
0.010287155542792857,-0.08719456631004895,9.753056193146561,0.007832597070991522,0.00010734300640442468,-0.012579062183532917,3.24
0.06213164413611031,0.14400227161827545,9.77497627107561,-0.009490730264973173,-0.015522019788535974,3.117355451113808e-05,3.25
-0.1484599859899409,0.0035451861470167053,9.900498137055088,-0.01176647623448421,-0.011202514044133766,-0.007924608429944014,3.2600000000000002
-0.016151698688563056,0.1438799189238805,9.958991007234513,0.009093002489383996,-0.003390316254067104,0.0028206596042533783,3.27
0.0050828485157866626,0.02219318313883628,9.628798980209883,-0.014797367227819158,-0.009689445773114402,-0.005386697840135222,3.2800000000000002
-0.15867449517148163,0.0352410268148369,9.759937454012142,-0.0006656323395816259,0.017111538262171388,0.010107393751021675,3.29
0.10036959942839169,0.10041465768630263,9.748359960256531,0.005308745861869641,-0.0018434897789889968,0.006987630641603313,3.3000000000000003
-0.003386908720563039,-0.08777810554022825,9.650774598143082,-0.006195339499759211,0.001408150058764475,0.010899905151619538,3.31
0.1741833512382495,-0.04803342570948031,9.988349803656055,-0.006714168298881395,0.012140276581933689,0.01205989183080527,3.3200000000000003
-0.037884484036519006,0.17720357574409853,9.515475579816613,-0.017536121026585322,-0.010852146051747356,0.0009301899511643926,3.33
-0.2193718358512892,-0.029444057750044272,9.859567538545818,-0.027332868339034998,0.005716853392335578,-0.013554551524806285,3.34
0.09001122086209072,0.07168606569940088,9.886600804488788,-0.007295986090913421,0.010749988711847161,0.004532264558505765,3.35
-0.06590648483857457,-0.09345404257394047,9.517609340845047,-0.011870799462807585,0.004530794233114521,-0.004361904267244114,3.36
0.17172726481603373,0.06373317604972899,9.835041175090158,-0.017217118883168094,0.01053206088565664,-0.000283287895097493,3.37
0.07521223569214923,0.1346727883160748,9.754503887306708,0.013807199906548938,-0.004738036978562542,-0.003558992578662803,3.38
-0.04214681923703065,-0.05973832833298878,9.576421712546924,-0.006829351663924213,0.006765966154008594,0.003952697163985997,3.39
0.11127184099809212,0.08677023293367758,9.810650563874772,0.01044905873221628,0.0038434198135554225,0.01544971555681867,3.4
0.06765054858786851,-0.1813631170768778,9.999113897491883,0.010531451770725453,0.01590574270382824,0.002045058465820914,3.41
0.13027967264088733,0.12690010740744836,9.667751062217432,-0.0005868322577897541,-0.0018178087590887163,0.004586707555806295,3.42
0.011039332712638005,-0.018457772115701567,9.881840720114111,-0.00031388991207107023,-0.013615632659674665,-0.01929609017829269,3.43
0.02236654742857501,0.013190888092485312,10.116442552122296,0.012779661819293913,0.004269205144880725,-0.010457345813330013,3.44
0.22111129788503248,0.05883497579535422,9.778004213804103,0.0035890369799606338,-0.006871271546526396,-0.009029332685866006,3.45
0.03677311887443657,0.15876997986106936,9.750348475614981,0.005369977685244707,0.00033940714166087954,0.0019936537385522495,3.46
0.12835363300328587,-0.011614974196943934,9.916073250244176,-0.0036024966104773633,0.003108136120025505,0.005233170767142681,3.47
0.049223969132013184,0.1337656451342288,9.67930994685108,0.012038445772546905,0.018244767305997257,-0.007649185484789868,3.48
0.0221974153144852,-0.11504955429922746,9.702844063649733,-0.016048016011120533,-0.0183355964923458,-0.016803611783709586,3.49
-0.07051624478689744,0.011641457141586787,9.675657858079438,-0.011790214808613069,-0.004217262686104522,0.011919211016898381,3.5
-0.028666922950599895,0.11829910720422075,9.979784181867345,-8.638268351305373e-05,0.0036236741612621867,-0.0012671397222714326,3.5100000000000002
0.006830240161953819,-0.1357313403764724,9.772562896337133,-0.021710662929562023,-0.00043994610073047044,-0.00821143897566443,3.52
-0.17709139743591448,-0.05566849630693382,9.930327565652197,0.019676230523266076,0.006461334960483858,-0.009852004908356065,3.5300000000000002
-0.06760623034515593,0.04527743599148265,9.661616583419697,0.014272911381129714,-0.01469458511216899,0.022505237538065177,3.54
-0.35781566946299836,-0.1052643500076346,9.67051003268766,-0.017960248975436018,0.002732371923692118,0.006901355250001021,3.5500000000000003
-0.03636601046835243,-0.15331660696905988,9.887278561011836,-0.005754314916251609,-0.0014114767821902109,-0.0185073373994667,3.56
0.0050765095534246255,0.003740117570186022,9.723899832274226,0.011588009147263116,-8.554929414299771e-05,-0.0031181397994588197,3.5700000000000003
-0.06267098767146596,0.034379306728308044,9.76028866001568,0.012492191220434592,-0.003886431332991541,-0.005969059401614283,3.58
0.09380346597569061,-0.09412438912914273,9.9681678604197,-0.01810439712372572,0.000456047047915234,0.018777055734374798,3.59
0.059217666962804144,0.020766274927520124,9.720555369034575,-0.025032648602632036,-0.004828855993767144,0.010525869237024605,3.6
0.13757028266022545,-0.12244172750820566,9.920467705007232,0.0037751429589546947,-0.005706071841091589,0.006352206048207341,3.61
0.037499532867118976,-0.0016741799041071984,9.754102833887012,-0.010756193381218256,0.013695625913487646,0.019334942835489446,3.62
0.0554552387111083,-0.10724909532522149,9.686529918973973,-0.004522121998662209,0.014084029627712632,-0.008192930620231935,3.63
0.06044593030855053,0.12880965266163066,9.790634045002802,0.002260199063445995,-0.005313105960446247,-0.008373772344386816,3.64
0.11528328131401261,-0.2325842211948379,9.780946363426292,0.004833901044138951,-0.010175709719509532,0.014371102425049529,3.65
-0.02452361029396065,0.02240595302158451,9.758332371956877,-0.002263059244147549,-0.008609625576406444,0.013465790861999487,3.66
0.06000592307221839,0.0020096347097084354,9.874075816423272,0.017102322116470347,-0.009490700880216217,0.011027686228914717,3.67
0.08718765643993141,-0.24880305445249742,9.65177365728353,0.003842047652040829,-0.0011602616890809454,0.002213645193955157,3.68
-0.0811264488744977,-0.1519320747945866,9.878090719235088,-0.004003196884462382,0.008564851240925183,0.010515009960594257,3.69
-0.014322602989390146,0.08708981534556366,9.730063404196793,-0.0004933775531050105,0.0024937539660696726,0.004802617519388682,3.7
-0.013408648864141554,0.01668670124163807,10.036786504667049,-0.0013226199281857138,-0.01014462303156409,0.008576785332593942,3.71
-0.11305492689687423,-0.20689215485657872,9.72390031352398,0.00784908197174815,-0.009491254069741958,0.0056766418767647785,3.72
-0.024787948621131983,-0.0522633319796334,9.63446526215855,0.019733293751167304,0.000858127578900071,0.00043458230269844203,3.73
0.026805199578943097,0.10773727779519049,9.933796380142216,-0.0017591409682752726,0.010316558093628104,-0.008353264983477847,3.74
-0.02062560225217856,0.014730034125872891,9.908846384904326,-0.010235762424349712,-0.01918497461741755,-0.0034463536652782766,3.75
0.05725308266545617,-0.0003248561249662609,9.844335514282108,0.011258374812782483,-0.01603538363431186,0.0013279880411674796,3.7600000000000002
0.02492736649663958,0.02100899724411931,9.94822493160884,0.00392360720163571,0.013828881227832608,-0.017722962684494924,3.77
-0.07114760679121983,0.008630853268085664,9.656949466830012,-0.005479864488093816,0.004223609374475773,-0.004833458010196293,3.7800000000000002
-0.09068549928238952,-0.07677707126281844,9.788263520823117,-0.005108256436856434,-0.004488603456456918,-0.007904360118178003,3.79
-0.043568746398246455,0.01875909523449519,9.88303773351959,0.005966548906479765,-0.006814439439940766,0.0012285220125094558,3.8000000000000003
-0.07782843313284427,-0.07059461842101726,9.906598895329832,0.004198578321700406,-0.0003175569887387541,-0.014577716142491868,3.81
-0.1621631226261455,0.08572787120121178,9.811499674975911,0.013444524247449366,0.008970539777586353,-2.7987796833895967e-05,3.8200000000000003
-0.011361371301480098,0.058167631633001794,9.807903505427017,-0.01756819277378326,0.014879591781431252,-0.0040590967531712215,3.83
0.163147085308946,-0.051919752984316885,9.660597084029687,0.001570475507778752,0.006571033174546259,0.0024623512900036996,3.84
0.037625495795868324,0.10813550211010636,9.803957325101639,0.004658708791025523,-0.004888898343638016,0.006146786828162947,3.85
0.06120328762052173,0.14487739314314782,9.669920264948603,0.0061850400347262455,-0.0007639736246044951,-0.0026699242974771754,3.86
0.03335510972741292,-0.05011423488265278,9.869082018065386,0.012175345735587047,0.0037132495686360194,-0.008693384309745734,3.87
0.08279459348177132,0.0061324043300441285,9.769272024194636,-0.0146167376048661,0.006726872949476541,0.002848151598308517,3.88
0.204517310430168,0.08596142012471153,9.7265526593922,-0.013852753412464667,-0.0006535044044143529,-0.016026983157584516,3.89
0.06533659974988604,0.16853551372727305,9.714120495933594,0.0039377955444176785,0.009872520613456058,0.014963727878195141,3.9
-0.030185369570440934,0.1742615252975851,9.795589111197755,-0.004520995088491774,0.003292541438636537,0.012632944226467595,3.91
0.0955249354104107,0.007587528413014296,9.774307610586849,-0.0003800768085902763,-0.0031009859329382246,0.0030396254811946868,3.92
0.07783169452024125,0.04547356417402456,9.890966871596305,-0.004047623263664754,0.013963143454142925,0.0015461668284881404,3.93
-0.0741041154265512,0.0740611870946054,9.805149873141046,-0.02031163814196606,0.005039863033555365,-0.001085859073015909,3.94
-0.01709915320053845,-0.11967462534819162,9.751301729907915,0.0007255101650882363,-0.008937605518196794,0.004960395176997476,3.95
0.12582277928228794,0.18268467991502668,9.653186367916518,-0.013524955957405516,-0.003951526521002927,0.007505438239474628,3.96
-0.03863329408335804,-0.17352758864031806,10.01231419653682,0.010830314543402442,-0.010937919250967659,0.006529678021516173,3.97
-0.012009866049382084,-0.056987869833106636,9.686074635167017,0.00048585783103353037,0.018488882368062592,0.0161370568457014,3.98
0.05923770550786647,0.1325876814477198,9.807128705062956,-0.01178810443760777,-0.011936296525321808,-0.0035023935144960377,3.99
0.034106766447354255,0.14102100010307198,9.789200371938334,0.01129144113105936,-0.01288900855881226,0.0016978291750374688,4.0
-0.031149195576040574,-0.16952873170892782,9.721165327648098,0.009337381754793579,0.02727293868978382,-0.006449500162760984,4.01
-0.014241458270222093,0.06650123045107358,9.880150072083131,0.006481179812608914,-0.01207701702784207,-0.005637256247858458,4.0200000000000005
-0.2100979900645386,0.051485897328463606,9.745468512068491,-0.0049125787469033585,0.008487860343861908,-0.009408931148071875,4.03
-0.023356376900618574,-0.2460291728760885,9.897734775820808,-0.0040494576670642895,0.012089060149900166,-0.005530884747923505,4.04
-0.08089965744916379,0.10047587722587706,9.829056486121543,-0.007834361586713984,-0.003555732254221445,-0.006502467996736365,4.05
-0.155570932670885,-0.03213476177814569,9.631025376965425,0.00408482801908237,-0.0029202785827465282,0.005244544190526712,4.0600000000000005
-0.013933629615697309,-0.0370829156934298,9.717360576228526,-0.01138438832981083,0.00536723151635512,0.013709290673491263,4.07
0.09077455609755174,-0.0036370894339817147,9.730927382851167,0.00032428945919934273,0.014199055887314934,0.010333481445536223,4.08
-0.04614132584940323,-0.16909027659395484,9.795423174343659,0.0185491422326583,-0.003524635192224802,0.000501920107127937,4.09
-0.1335356019691286,0.007139067339117723,9.548114952572721,-0.01581899183196894,-0.0013839802232416645,0.008041258382181775,4.1
0.05802324251905433,0.14762500971740103,9.936617321424585,-0.0013777717399426547,0.005248850239206244,0.006911791490485139,4.11
0.011953554970115545,-0.015380284477230506,9.884859448513396,-0.008258920134400159,0.000420199293616685,0.007425857057143921,4.12
0.002937581892415888,0.03050642726878914,9.951984758924986,-0.0019847730027790613,-0.001360576286854034,-0.002633500038295308,4.13
0.13158178531556794,-0.07552110327909202,9.878616679031863,0.008369759443101072,-0.00548977781301909,0.006753273272548011,4.14
-0.052400758987620435,-0.06600178793864968,9.685448264570427,-0.009733563635604856,-0.017644692680563102,0.020515699888880544,4.15
0.06149124127118321,-0.000557999852988183,9.776791540094033,0.013156391066317708,0.0035833854589880027,-0.026060961527113253,4.16
-0.13549980389999544,-0.012278642297814259,9.847851097888926,-0.004714902552916714,-0.009615425716342964,-0.0031450471363946375,4.17
-0.008822063365085949,-0.08260339059209018,9.751977424548636,-0.0016812813641940187,-0.006075119826513404,-0.002262342509974716,4.18
-0.048897778680879994,-0.12830009257224306,9.72583923538149,-0.0071466365712939085,-0.002502671107348768,0.010628297565172062,4.19
-0.05503422339193362,-0.12711483407242807,10.024245215514778,0.005017276202145076,-0.014453586011641713,0.0016241973016521574,4.2
0.09661196364746102,0.11740694720778846,9.828929663410639,-0.008994690033633086,-0.006918753269078302,0.0219840567914045,4.21
-0.006315865380636131,0.20092673785557968,9.88581303433459,0.0006081899011689117,0.004437340292783158,-0.012573183418353123,4.22
-0.13706598568820083,-0.17309394439847306,9.838686023911533,0.005909618146889557,0.022105433177631077,0.0005643634497675356,4.23
0.1597756895175576,0.006044731750218888,9.917516015634355,-0.002730700781006262,-0.00927843757544779,0.003760460681651035,4.24
0.04109859902187083,0.024987461723324764,10.056500395889675,0.0008202358019037289,0.01079568211853033,0.00831977767103997,4.25
-0.13876181665414847,0.027095057753262982,9.83388853869062,-0.000968206631129446,0.016147256720988663,0.0036279013835154098,4.26
0.04372045446714135,0.14060661354525858,9.699239836259919,-0.004839355488980295,0.011509939052489475,0.010996845699510953,4.2700000000000005
-0.00998712874670914,0.09919311755911409,9.699767093077096,0.0075132572490498395,-0.00844620058089806,-0.00035804728280040084,4.28
0.18393267151665568,0.06243108375119399,9.786093202863636,0.007880959334135466,0.016325676738066314,-0.008017453710836408,4.29
-0.07278933890308059,0.123430377445855,9.987106549881322,-0.0054913651871868665,-0.017997827591340727,0.006399949366178766,4.3
0.015502900392857908,-0.13006895293107554,9.970159743048807,-0.004249697641282155,-0.015377839908691588,0.002580060388628192,4.3100000000000005
-0.11268983678916134,-0.23295007259421344,9.687822868897412,-0.015258600574993862,-0.007056220004581532,0.004511026735589189,4.32
0.048028235991100426,-0.20387893404637586,9.629220599316424,0.0013705130646231736,-0.014366177278110948,0.005851167524692613,4.33
0.037630582049769996,0.03902250112048288,9.910062417419082,0.005080246416705006,0.015090390233886685,0.004958613824476135,4.34
-0.13988709391512388,0.0823309708776112,9.66959127257329,0.006641791691747612,0.006390473279860262,0.028839238333067813,4.3500000000000005
0.18470744005182924,0.06685778349593466,9.853741218482337,-0.01643170899760564,-0.00043238811265574543,0.007409464365607457,4.36
-0.028591096391275102,0.03921982644417985,9.846693880065589,0.01146255827678444,-0.006089138870900422,-0.0024457322475829706,4.37
-0.027009039307789647,0.027979287189894248,9.829569218977195,0.024958941169975164,-0.001764109818382919,0.002477070348035976,4.38
0.0616694905540965,0.10019307124296013,9.825412774567788,-0.0021595323144653696,0.009379497877242751,0.010018263521795912,4.39
-0.08868716889644154,0.18935235136709094,9.881907832729238,-0.011356139901133433,2.6279883207913746e-05,-0.006340297916196605,4.4
-0.14924383310557318,0.03965914081724095,9.559156835756765,-0.0018869574353969146,0.002897888636517742,-0.01292895287200168,4.41
0.09522268400405925,-0.0476884733814709,9.635747296776547,0.008499511128365415,-0.002125281119695024,-0.006475022462759165,4.42
-0.07199489603608128,0.1257512164247946,9.928981175289806,-0.007200648658064738,0.002150727257563547,-0.002974308449060504,4.43
0.13161675489116836,0.11295387785983335,9.792108604381305,0.0050649960459170085,-0.011305290319590473,0.013294229106050293,4.44
-0.13355997085796442,-0.055829219655773143,9.780408868300338,0.010057266884044827,0.013333077647897023,-0.0075687584932732505,4.45
0.20376763253040014,0.03259834557825096,9.72312493281733,-0.005723432772950434,-0.007331761153652574,-0.011038287446337558,4.46
-0.10755988131387367,0.015216984952824676,9.758314360669905,0.008148828424564433,0.0019259590835213362,-0.0009349368787485647,4.47
-0.12306853733988095,-0.018426991733978434,9.803606795208047,0.00821819227638664,-0.0013847889940738231,-0.010933171192011632,4.48
-0.06929509381290166,-0.04802163608482654,9.807638477267783,-0.006284006218934116,0.011305237424541717,-0.007377963006477622,4.49
-0.012131227351522665,-0.09422874389314922,9.765526417920658,0.00159500701537163,0.019542678976178295,0.0034803566948217236,4.5
0.05330665702006765,-0.1826416297593988,9.805081122701836,0.0004931561492034816,-0.002177541457642485,-0.006256126815897053,4.51
0.11563091892766303,0.1197221484226398,9.424831548310305,-0.008723661773335037,-0.013893317478696002,-0.006785142299108652,4.5200000000000005
0.013459091976724336,-0.03816752651548612,9.854863281599272,-0.00852280605501616,-0.0007879537049060598,-0.010607642742907642,4.53
0.12742295796617176,-0.11477252409278658,9.773331839254555,0.008146007850808504,0.00525577210579811,-0.011619888048612683,4.54
-0.27003152682118153,-0.03162810686868527,9.835175065355697,-0.0018784152279423094,-0.002794660719293897,-0.018621754819569025,4.55
0.1989745574753623,0.13043067950577733,9.789232663564697,-0.0001431043754025852,0.006864507600614662,-0.023007818005871882,4.5600000000000005
0.04570709481480649,0.006307953030368259,9.950442616911984,-0.0011997391840982735,0.004863624542390285,-0.013408439593589457,4.57
-0.04293840931041512,-0.12251518196220852,9.8803251670841,-0.007034925110938044,0.0033299716190254066,0.005874814750690899,4.58
0.16816101077219883,0.11324360918885673,9.843680381147026,-0.0019374752486207409,0.010039711154099944,0.014355790271866604,4.59
0.04236767776686533,-0.10454209536565043,9.785889263660493,-0.0020178411086171993,0.0031821556506335057,0.011210547555490875,4.6000000000000005
0.09229654716509335,-0.113725166499783,9.818342810901056,0.005510814162870742,-0.0008578611360083254,0.0024101386721514235,4.61
-0.021173713882341336,0.1481940145027149,9.74354457063609,-0.010991770474588972,-0.009475953311751707,0.008297119519291461,4.62
0.019349207747968875,-0.1780290149279403,9.871796915271977,-0.03150444671583633,-0.017874268070404903,-0.010037242650498402,4.63
-0.023948491012953738,0.02579642529662836,9.862105422885767,-0.01227760424863756,0.008199093419966831,-0.002257262513217429,4.64
-0.030805996257690788,0.07091004534821091,9.841740062215571,0.013432989686295214,-0.009248171311026813,0.0021778404676025703,4.65
0.056667798703666145,-0.08343735279062753,9.826283666707969,0.0057122656679814065,0.008253941973498274,-0.006181563421317609,4.66
-0.08290939328224589,0.027592717818028446,9.83004105796547,-0.007976542925250988,-0.003871478465507983,-0.004679960903762574,4.67
-0.004023363968043293,-0.12141108073537187,9.671911095991835,-0.0021409792935443922,0.00847239928156219,0.004801758232211543,4.68
-0.092903370408857,-0.051313959574265294,9.938484722749795,-0.007582886234663967,-0.004115433643357987,-0.009871381128017519,4.69
0.022310640802641526,0.10550619470404328,9.859908562722525,-0.0041672353117898474,-0.0014923667306188377,0.00026085094397891584,4.7
-0.1484506240298662,0.03315239452555182,9.702370449156122,0.0012857891010019879,0.0007347031983616518,-0.004931447647132161,4.71
-0.041918836330112355,-0.00935371513975538,9.816362921253049,-0.009681433478633514,0.0015205307200101515,0.006152737075155394,4.72
0.019968640272591563,-0.07996177293688979,9.855263234833707,-0.0036321807905080744,0.00733652966653208,0.003092702619319337,4.73
0.020051291878380312,-0.24804919618755222,9.953271695494141,0.0030057916071777047,0.01237344654307951,0.02749810433692475,4.74
0.14717982731333842,0.08444587266134851,9.809699227182056,-0.00026984031365773003,0.008613191251506181,0.005328151586875119,4.75
-0.000790705610053105,-0.05422826406899204,9.693914097000096,0.008102644323865336,0.013851842356405818,-0.005036728562321746,4.76
-0.21013275385799998,0.007055005929223243,9.816406922986326,-0.010124304835747205,-0.0019381062048306307,-0.005986996005517019,4.7700000000000005
-0.020312737466419747,0.00478395769908493,9.83076146506294,-0.00224180329514154,-0.014386770841331567,0.010370579807559472,4.78
-0.08614906720671169,0.16865690249831428,9.909226647986243,-0.0003561554716724512,-0.010831899980427162,0.008699263324820527,4.79
-0.05230708895034156,0.05698930570861759,9.836311831107341,-0.003569036881697115,-0.0003427115728911199,0.001182382238739501,4.8
0.217197077299108,-0.0340825056426181,9.823314245095276,0.0016934226729390072,0.015425451740096803,0.00758057563694621,4.8100000000000005
0.027419542969242247,0.1155100108349866,9.763024449426705,0.005699450932615043,0.0017977922365013067,0.0037177017018270916,4.82
-0.029008473571204882,0.12059957140721028,9.665978103318817,-0.019985606501762204,-0.01745858243164402,-0.004054510658602103,4.83
-0.04703850088262975,-0.02020657443396738,9.69263210538703,0.004899320153811741,0.013214174388413496,-0.019088947043251217,4.84
0.11894591445151732,-0.10733528037253677,9.695301705024027,0.019427830588313596,-0.011656658845774716,0.0011896292692110822,4.8500000000000005
0.18289353034391326,0.3135008529852692,9.96362135200868,-0.004006882332902866,-0.010359625812261476,0.016923012838072373,4.86
0.014386972446812954,-0.11486898782015763,9.665586236303797,0.007351842017877864,0.006147840302065316,-0.012245733211423715,4.87
-0.013314241292935097,-0.13340651788888633,9.813965224944791,0.002634397146274293,0.008621475972672989,0.01693637386177236,4.88
0.0791025298775627,-0.03832617383356826,9.681489137110626,-0.01514011127312356,-0.004335996036713031,-0.015862410477891584,4.89
-0.1276639691858255,0.12867320455680156,9.83968689703618,0.006140428993428056,0.0050340860156386615,0.0026762944786554365,4.9
-0.02103747604138388,-0.15703933895989974,9.788707870591328,-0.004709388811523445,0.007357335549953008,0.0034434409791628045,4.91
-0.041207396616573896,0.09518577083564955,9.707598012368884,-0.013280648012703261,0.003669277867181308,0.0010427870056899605,4.92
0.02708402882952117,-0.0705308631827721,9.757283394803403,-0.001005359614306351,0.0029627938219122718,-0.00086384854219682,4.93
-0.0034529886631136236,-0.054706756094187285,9.938319059289986,0.0015227045653285552,0.007392552617576275,0.009285874297062463,4.94
-0.20680262295454022,-0.018896682240852964,9.806507177809438,0.012742388954645632,3.443350338989391e-05,-0.002712400911258839,4.95
-0.10483720076289167,-0.1016613045037246,9.876484133559629,-0.002158922673248385,0.010601002154780999,-0.011934711419362155,4.96
0.1880099069049379,-0.01753310370854014,9.617755867884796,0.0060285936471007875,-0.004299727952003658,0.007793074085069445,4.97
0.0034086262252333794,-0.1308065353380324,9.741202782420798,-0.015067249942540915,-0.005411492295852876,-0.0005925485696561003,4.98
0.11970605050934582,-0.002364679989937718,9.792706357263679,-0.013972764252743682,-0.006440512942577365,0.004697645847717257,4.99
-0.08265624169116409,0.09547557174213744,9.867234297349423,0.0078222757129091,0.0030750531444167163,0.012565528197072217,5.0
0.22835053312595943,-0.15816863849019494,9.897647862730054,0.018649208819829406,0.010672089508712266,0.0047001145701380965,5.01
0.02645628232370913,-0.12199404580891181,9.827701925347437,0.003296103940991345,0.009139093210551485,-5.304982264612442e-06,5.0200000000000005
-0.025536581217619477,-0.1109465991041391,9.995378249789756,0.015107086147666846,-0.0002023813501285376,0.015351265432249616,5.03
-0.1272596872724104,0.1602951697517252,10.005406561654572,0.008865112849988411,0.020350958439944417,-0.005445742437145536,5.04
0.11028898947604054,0.05515688883765063,9.808743754058993,0.001032320941377507,0.003172665310827724,-0.006907222790771334,5.05
-0.008406206505937147,0.0440974642706665,9.781048063664025,-0.0033585855732166533,0.009818147402913214,-0.01576762051165585,5.0600000000000005
-0.015494157328880818,0.003341856571590723,9.870125274430597,-0.0045646659893265095,0.016573676453635756,-0.01707995224793002,5.07
-0.06786536868243327,-0.021492066320983442,9.996005653364211,-0.01143742819338448,0.016145349330350684,-0.00510028105916242,5.08
-0.15671543618158892,0.10671569172316289,9.995971857808579,-0.01972123482568288,-0.012101632436718373,-0.013243694566554444,5.09
-0.006952043931731641,-0.04435446671509638,9.954766680333288,0.00048580000516693995,0.016108419167728726,-0.008319654287227564,5.1000000000000005
0.14645565066859953,0.06805700232645749,9.616159407166027,-0.007091375604201326,0.014799044191081504,0.0018724504357211622,5.11
0.10196139039792321,-0.1402525224905479,9.802379083881394,0.01663455606696845,-0.0014824407468090515,-0.011983919344589438,5.12
-0.10178904909478664,-0.19421447964811547,9.810722554310608,-0.011548108370031857,-0.022460525965322446,0.0034212150064302626,5.13
0.09198395995027203,0.01581097160404639,9.863085875922572,0.006130392965187427,0.008159906871404157,0.015794485902164094,5.14
-0.016987773194599206,-0.058129643493081744,9.815427637723646,0.0040514908559455744,0.0019691761287181546,-0.009018720315760993,5.15
0.04167968077307936,-0.1375100280367683,9.753075117544697,0.00483592736529531,0.0033316753082716644,-0.0072021221131221835,5.16
0.14629924377052547,-0.0192065184309145,9.845662772106001,-0.0033986242441799144,0.0021131026804390844,-0.009830902186393403,5.17
-0.16637339456648803,0.21219803999703246,9.877203299090233,-0.015696877680801496,0.0032558598024392403,-0.0016545857840738834,5.18
-0.02070614628695457,-0.0404371058774659,9.615172322559403,-0.00285254330048585,0.0045144438839033125,-0.0149899043259854,5.19
0.1690383546176891,0.005957274779753207,9.896171870219588,-0.02115573841983376,-0.0054658480614683605,-0.0136791756436032,5.2
0.11441426268473143,-0.003219150076893317,9.787357318257591,0.0005458071889411744,-0.003252340646971923,0.003755155454518981,5.21
-0.0897758051356112,-0.01614152432361007,9.815962127487975,0.002473207883778105,0.012794311263105474,-0.007366199094505987,5.22
-0.061995765421239746,0.03435902263183794,9.858032817081353,0.00606725239395285,0.0005650178017145584,0.0002755320945328209,5.23
0.015692268866893185,-0.01793358276097382,9.802920240878358,0.012681031992236387,0.013397275510904685,-0.0035402329906774493,5.24
0.028665239683818563,0.02751702350884023,9.880872750614913,-0.0022475083273643397,0.0008240822943371766,-0.00718017287352206,5.25
-0.07413172622256406,0.06667256028971771,9.775875236549183,0.003594034229675641,0.007340854229641802,0.006337197063059416,5.26
0.046058424128506144,0.06927835557214695,9.946121729586002,-0.0069179814690789165,-0.012326190373155672,0.0012998613532790749,5.2700000000000005
-0.009696945820637149,0.03286269743491721,9.834117437280474,0.002367257798503992,0.01542413991172129,0.00011191707711397995,5.28
-0.08079741483904224,0.07852877639093364,9.834887861835368,-0.005286652822853507,0.006060211005417667,0.007820482021626855,5.29
-0.01078975424949541,-0.2079829838293227,9.91581512827346,0.0039109009580667415,-0.0021102893800866323,-0.01624727628794228,5.3
-0.04703142318024423,0.04583083100062365,9.687763089027213,0.009766793009266165,0.0014482076626754251,0.0011041713835991938,5.3100000000000005
0.060993630865887105,0.07678364506187206,9.741275461032481,0.013913605640416684,-0.003398883629172065,-0.026214708568511932,5.32
0.019845857667909014,-0.1541600634645104,9.66699208557288,-0.012474666996391978,0.014055213357108359,-0.01436677845455838,5.33
0.1391610269133805,0.00730765176543376,9.788643478254812,0.008010522677220983,0.0030117065776869125,0.005984549407471304,5.34
-0.0008892393752227361,0.008000650562690842,9.7866044163297,-0.0028527726792339897,-0.0032956013752412014,-0.012712028332879212,5.3500000000000005
-0.10679293036065217,0.07323900473044206,9.765274492590411,0.020680481960417236,-0.0017980913701154113,0.007232199099308212,5.36
-0.018561605070496878,0.11104941715765687,9.768417775215866,0.001892363383016336,0.01691311041547344,-0.00032414281143670925,5.37
0.10138355049552635,-0.01979188085578296,9.616412889815525,-0.008084317457183356,0.008274180335254105,0.004475250155763632,5.38
-0.04447632004501913,0.017915340778782235,9.74716084206502,-0.003047587058945749,0.005060318233297037,0.005799750275913058,5.39
-0.15413586202633708,-0.052589604276974025,9.843406786652992,0.005348170293918624,-0.004773361934597346,-0.002401588041967945,5.4
0.07152480404282174,0.09364174851143084,9.576541619023478,0.00634265897808476,-0.005346140213935946,-0.0059082417141739195,5.41
-0.11543411663211284,0.05663416169937557,9.803269325351877,-0.004578970447789261,0.023610940190253414,-0.017978898120933968,5.42
-0.0455514225967006,-0.0052073300292155116,9.886010120076724,0.0054080025985749495,0.0015015501275761362,-0.00916590444941369,5.43
-0.04536005268351588,-0.09341933107419748,9.869664513443096,-0.013446311137809384,-0.0006246616190052504,-0.01055946306506704,5.44
-0.07088670205358961,-0.04151888212150498,10.087910889074983,-0.019289126291194187,-0.013809750073808061,-0.00038381737426112556,5.45
0.168364629560068,0.03462753809290692,9.734916333094205,0.008431514368353444,0.01128164852010102,0.017575959789034545,5.46
0.14930364961027928,-0.15904290530902362,9.906534137521973,-0.008428604677597052,-0.0122360189581907,0.0018616289199511612,5.47
0.07469297569898078,0.10930719258979249,9.916761249164006,-0.0040918780970905415,-0.01568994415339256,-0.0017297169749854386,5.48
-0.046016357483987635,0.1709549543603723,9.750433195976802,0.01249025109406689,-0.010062854730813033,-0.001213082790517408,5.49
-0.031072354066663962,-0.04167913646871771,9.819405776564388,-0.0029170103039844494,-0.0013163643326429013,0.007537087502735299,5.5
0.14087566699153317,0.10256586781574317,9.74690393616291,0.01201391784995762,0.0016519619908403615,0.004585262342816076,5.51
-0.05947705758275698,-0.1449093563938287,9.874545174995463,0.00876658019017784,0.0008487287174421087,-0.005884208027804737,5.5200000000000005
-0.07988344375971407,0.03763956091680441,9.85473222409988,0.0037728849794734023,-0.014569554847498336,0.008551723779185625,5.53
-0.11843327264100796,0.28154065367890735,9.8743425610762,-0.0008140531330750563,0.0035913819425691163,0.00031277780292324957,5.54
-0.015998493387321806,0.13624531337030568,9.838709881351722,-0.007979609563014847,0.0027176263850733125,0.01574046658494535,5.55
-0.16604693212223126,0.025303221870854965,9.825874577907836,0.0016729471073251595,0.0012091812880909878,-0.0015435832056604737,5.5600000000000005
0.07146218253451415,-0.0133909791834491,9.869027269150585,-0.004757868105633917,-0.003608088468582424,-0.0034456278528691158,5.57
0.03840226504776616,-0.05604614724017241,9.815544648808402,0.01116667768370661,0.015826885718231064,0.0041556830713973675,5.58
0.015875689092790475,-0.11301342366254973,9.720458580052426,0.000291665846236246,0.0022294309866796144,-0.014066355657282774,5.59
-0.19914164798753556,0.06793696258197714,9.730930688017931,0.004506773595697857,-0.010224260418172119,-0.002758916852906254,5.6000000000000005
0.0007194618980932467,0.12562817455126826,9.88570199451285,-0.010020065744314018,-0.003412897459585732,0.001093196389883544,5.61
0.03433266534865755,0.03330205523090856,9.805304422838935,0.013915861621569825,-0.006613066967328071,0.017777315041267398,5.62
0.009855882211207114,-0.04434155627970619,9.810579750272414,-0.010107259578468166,0.0018847042692936935,-0.00031367003834482986,5.63
0.08909056549184946,0.2485516994490265,9.861315181193584,-0.006036832508757224,0.006416016559445301,0.022585310410669995,5.64
0.0003095794463016668,-0.04886165551189092,9.899774371258557,0.002238343075076034,0.015270389546066755,-1.5162325112619541e-05,5.65
0.017515386831607884,-0.01749788861733139,9.820308692501083,-0.009189207522290854,0.007973173495608159,-0.00037159925388522205,5.66
-0.01866492027127883,-0.04552312571996777,9.869761767972705,0.0026870316339811977,0.005861692011311684,-0.007304073549652739,5.67
-0.08235040086545316,-0.11886000367197679,9.914117158892815,0.016865515799562573,-0.003165314195235819,0.002477681439276467,5.68
0.10068045657631962,0.11473489655722824,9.76220172477297,0.016963751774890116,0.009763712720812327,-0.006739545008527744,5.69
-0.06764107063216449,-0.007193772460115847,9.713611548299596,0.009439000573311752,0.008744861404665677,-0.010980217891432196,5.7
0.08528300404980338,-0.04910508641486509,9.937218896130966,-0.006144079101649947,0.008176517510635264,0.004493125401123899,5.71
0.048056764269534535,-0.018982589204338908,9.85593203267582,0.005559488789751867,0.003704587112032898,0.0032257744217231623,5.72
-0.014491816548360934,0.1339317807085218,9.787518986455888,0.009815010358294796,0.0017932294240398158,-0.009385795863609025,5.73
0.08790444111004793,-0.019576556690123047,9.851682763584545,0.020200899339477524,0.0050156983349981055,0.0007694896492786552,5.74
0.1191679935343349,0.08158546280908441,9.672829187009302,0.0028319741747794653,0.000652244778240734,0.009245800344520586,5.75
0.14458843591485623,-0.022203746907024882,9.944160196360299,-0.006474087224709859,-0.0004342325297055445,0.020305174368844384,5.76
-0.13438870079950635,0.22364435948112096,9.847379365112467,-0.000815195440945601,-0.003590045164752592,-0.015053473528083275,5.7700000000000005
-0.04720238750146191,0.14176965592417276,10.039641672575335,0.008799147016155513,-0.0070451021372917476,-0.004154136261949659,5.78
-0.0034827694830245055,-0.03535663588057867,9.684147528583471,0.01826565149215483,0.006635483544076954,0.0043722944278018145,5.79
0.05487795103329568,0.20703541150049692,9.632964223207878,-0.0013032947078297685,0.00014538653970177243,0.003429288414362713,5.8
-0.03847553793325065,-0.18214251507848722,9.739325081720075,-0.003202461134882242,-0.006032551618565846,0.0011174296931022083,5.8100000000000005
0.30359381657123147,0.12599903390282705,9.845779966170689,0.007762846083069871,-0.004233574604386065,-0.013078347087756792,5.82
0.09027500797684018,-0.1674695125510842,9.97112188045744,-0.0037326834114484388,-0.013564674790386408,0.018205525337160064,5.83
-0.06969644390188658,0.11760551090002314,9.542360710943942,-0.011103627667132148,-0.010802869605208203,0.005470453406136916,5.84
0.0112953252548776,-0.05944929567511414,9.74490343944978,0.013247967418519484,0.001756804793524922,0.006139400861061119,5.8500000000000005
-0.024610567400786893,-0.04283765757088617,9.804069615565634,-0.02710852567182792,0.001589145782170433,0.009412845768317652,5.86
0.028212330709335362,-0.07259352241401268,9.943887449384968,0.007208456998398912,-0.012425109259037333,0.010287124236568222,5.87
-0.02441673120317516,-0.3118770074646519,9.738223255649608,-0.005537472556041963,-0.016504038891403894,-0.025248820235409183,5.88
-0.10598886635365368,-0.05916516995747378,9.882374275800636,-0.006352167846682595,-0.009998151350231606,0.0011015209549024175,5.89
-0.009883155045262567,0.2405011909843082,9.859629801762155,-0.005017506593044614,-0.006255285081034193,0.013001861010069676,5.9
-0.004466864812085474,-0.15500582591872916,9.884800886046337,-0.00783989873888193,0.0008703270753026881,0.020426517555654944,5.91
0.038841392512581736,-0.26772660625300126,9.867103301869067,0.011364791561683234,0.009233992584062538,0.0020772281205402583,5.92
0.03579310202809308,-0.05734895202869056,9.86140308855739,-0.015748908569557078,-0.009963184424516021,-0.006196821650698884,5.93
-0.03222126765754041,-0.023326488574991318,9.956758005127888,0.0005842678062955195,-0.003235471708477641,0.002170481514569209,5.94
-0.022194989261309434,-0.1108493816635342,9.862215963131831,0.006141771687234089,0.007130309363095713,0.0034709812207448514,5.95
0.024248880429293657,-0.02417493109827205,9.631683646683785,-0.0012468960501557582,-0.023348525269654124,-0.0016504230694727605,5.96
-0.10974986218093377,-0.0943829549166089,9.782906636903888,-0.018948516383384868,0.008585350553389232,-0.0020768220267566085,5.97
-0.13435098874385928,0.009495342476111925,9.549757795559378,0.014537343259117637,0.0036457406370001746,0.015421352081673285,5.98
0.07115219761419933,0.0608399275343364,9.677977993471538,-1.0655099017276383e-05,0.004082465522362999,0.00023297272034686703,5.99
0.0035066512565098138,0.018391680855963422,9.8452074054358,-0.00781364112809456,-0.007504641381005228,0.007058797311422127,6.0
-0.08060739090434538,0.029867153777299895,9.959058481079754,-0.0075366260695101375,-0.00473925126561892,0.007728199089966359,6.01
0.12936401300329745,0.10660922286804292,9.818839147190085,0.007141892277898854,0.002340150118030245,-0.00828746199070983,6.0200000000000005
0.04491153344012809,-0.0892633455088978,9.787953178020073,-0.004101976976447903,0.004694621833510228,-0.018537724341481564,6.03
0.12599642323228522,0.11999972937005177,9.590968072689689,0.00262670838578235,0.009657041138374877,-0.00035006063674815444,6.04
0.09219196474316056,0.014107476948556574,9.871259066562239,0.001651198190159791,0.002042105932668705,-0.004588046970162988,6.05
0.007187971054695486,0.15037044937863212,9.935855521176217,-0.009484817160026067,-0.018043213233128238,-0.002491694959860675,6.0600000000000005
-0.05080790962364476,0.05704194351788616,9.946995371447548,0.004019562627907618,0.005124354280052719,-0.0012700562778896651,6.07
0.017888978559377714,0.06561689377332613,9.643403884039902,0.015691360865737306,0.0004996928223951196,-0.010967743734872004,6.08
-0.026892378190293467,0.054561050353704434,9.92857142380057,-0.008237001818833392,0.008528798888888646,-0.01242462283141064,6.09
0.16284677396780758,0.019668539110946674,9.811092913057738,0.0025711656823039237,-0.010460070879066722,-0.02320120981930526,6.1000000000000005
-0.16694454526511304,-0.06036769661635183,9.814981948321455,0.011434957574411698,0.01947697941228198,-0.012860759593843871,6.11
-0.009596140194555965,0.1968135572636631,9.804092428465353,0.0071347655207941235,-0.007693353553901169,-0.003081425096765287,6.12
-0.005531238553157047,-0.015748979537142462,9.876092845791147,-0.01216565454961878,-0.011586831230071752,-0.006665928873349285,6.13
0.05290107528644951,-0.08621267575114501,9.94427443714874,-0.01346521647514368,0.0005087857860425942,0.001307751813502337,6.140000000000001
-0.1746788657684239,-0.010838622571522662,9.940425686478152,0.012211007566489237,-0.00035735055965001024,-0.005928889215713629,6.15
0.03873991220025588,0.05889241498781746,9.763348972886133,-0.0035873726387606777,0.024425652330705844,-0.007200371023853098,6.16
0.04171826892103095,-0.16568146757868724,9.701124177723464,-0.003409359807657743,0.0152436124032222,0.004146357599914195,6.17
-0.012185543459725915,-0.02722965036019903,9.796211450288983,-0.000496843583577701,-0.008529243118014432,0.01146756567820572,6.18
-0.21726618813566143,0.03392082222451867,9.750060927721549,-0.004163551232643185,-0.021958535225916016,0.011870986053736132,6.19
-0.0242229751667876,0.13500658454724532,9.645426051155038,0.007723145896491474,0.007724386190582429,0.009191436086014262,6.2
0.09838477823440758,0.13727390393558067,9.841516428549726,-0.00226834871012217,-0.011346055440471152,0.006208762881418687,6.21
-0.018141662324139878,-0.04381084212938385,9.548115956160842,-0.00013991462208711884,-2.383527062585443e-06,-0.0036590453600136353,6.22
0.07964803513444349,-0.10144655524758928,9.722979428559798,0.008476413343115687,-0.01247018951517515,-0.015049122201303841,6.23
-0.08346874856285488,0.054530154506896904,9.849412860426192,0.006933637667806469,0.007949136488596478,-0.004647260458717232,6.24
0.11610693604014453,0.013845344659007237,9.688975744614298,-0.0026122224296503045,-0.008133348273728962,0.006698592449057889,6.25
-0.0900473732295072,0.06488441482358806,9.666837141404732,-0.005577457114681067,0.006242567331457739,0.010183631088038405,6.26
0.0017821887109612973,-0.03177484437756779,9.859888433432427,-0.007047301988427955,0.01075022321321264,-0.004853318256570345,6.2700000000000005
-0.02820564454538881,-0.16614814163965294,9.728594584339467,-0.0016489027333632014,-0.003350172255734348,-0.006409028762331334,6.28
-0.07603262881208273,-0.0533774984578891,9.864760805054777,0.019317128741692592,-0.003887004289807022,-0.0020457947711330885,6.29
0.059081323823140075,-0.1480232968868715,9.839849996723256,-8.100649263068999e-05,-0.006101851692034612,0.004675015388112133,6.3
-0.027346070591137403,0.08238254904155706,9.755107380751914,-0.005165422170248817,0.007892423846271571,-0.0067164116924443434,6.3100000000000005
-0.059267985855885656,-0.015008717992630219,9.795815953236437,-0.00034928506124766857,0.007557265452739155,0.0026249885949899566,6.32
-0.0262886050127233,-0.014381213873362032,9.972300676401733,-0.003135589423229676,0.0036328021609061873,0.008825244131897765,6.33
-0.18076134200090366,0.030236143874100715,9.936974403946493,-0.0004365793285009139,0.004047080401330284,-0.0038614727444239954,6.34
0.06514469751290751,-0.008568869512097984,9.906974367859027,-0.001555758835238735,0.009667485398280586,-0.008432870197737993,6.3500000000000005
-0.23898919190016496,-0.06418598344756409,9.858855723897445,0.01049323369743317,-0.015362948855836228,0.010347233690086617,6.36
-0.020975790969842627,0.05259165137054218,9.655396050735293,-0.008278303231265391,-0.011478552428759888,0.009833299533396156,6.37
-0.04261687692256785,-0.18638049785022295,9.847719226159837,0.024796088456637923,0.010646239571087074,-0.003794391706776831,6.38
0.09879950503666465,-0.04783894234669462,9.800166000572876,0.00970649971236097,0.0021130733317251964,-0.003697183002696014,6.390000000000001
0.12250916587604053,-0.018205949018146844,9.865792654854442,-0.01752552753789786,-0.0055518818921305646,-0.01720754949170873,6.4
0.11749453764870117,-0.14007363188135208,9.876869648868658,-0.00041680132554860577,-0.014828699168633382,-0.013393268062633173,6.41
0.0974830490340022,0.05339121930388333,9.833955392993785,0.013950977837413248,0.008464193316472957,0.024327468430869224,6.42
-0.0856231205470151,-0.1441204456659827,9.838075861712397,-0.016992288012712985,-0.0010979336254718934,-0.011594031908776377,6.43
-0.05826787871289124,-0.13599569505277295,9.854981916178842,9.618912237618957e-05,-0.007552015792556357,0.009043265542711152,6.44
0.2667227133016831,-0.029708258043064057,9.771698231579627,0.003274008811830737,0.006628124212771377,-0.01791687294063208,6.45
0.05636124202428438,-0.06282680910803393,9.690961362304893,0.0020187646306560883,-0.012579551650882629,-0.004201179841260262,6.46
-0.08800504036440804,-0.12464936843356988,9.868407704930453,0.020329159691767046,-0.0001639620219161953,0.0014126481172372432,6.47
0.10990501400092123,0.004446437924071666,9.842005329679292,-0.019860322896116955,-0.0032675354258666434,-0.0025670255965994015,6.48
-0.0007991958113672897,0.0674147493210449,9.949064897890876,0.005351688066202618,-0.005620587302569416,-0.00277529293784582,6.49
0.04691205892708583,0.21047797253272696,9.75539090409405,0.012069008902720075,0.010659652307730616,0.01096792562582584,6.5
0.07681268663645457,0.06311182880295883,9.89483582925543,-0.0033162938353315918,-0.011182431065160533,-0.0206720479359479,6.51
-0.03070493334273492,0.053975987852914964,9.870003310503801,-0.00936260426924589,0.021956251750376722,0.0003937192452982336,6.5200000000000005
0.0606303140339973,-0.1345352225929653,9.835429323456303,0.009887306123517388,-0.003262834171420835,-0.008978098485659778,6.53
-0.09427120482241474,-0.06941898407915882,9.870566953769604,-0.009896639743636896,0.004794771900689026,0.004506104418074134,6.54
-0.06919327048237463,-0.20172211497481088,9.655979236815563,-0.009637979443351319,0.00659199062792355,-0.0033726860256879975,6.55
-0.029347483509642166,0.25492642014040434,9.833009044365745,-0.011586164076481576,-0.0007473257048963872,-0.013464962679906819,6.5600000000000005
-0.22133049339732405,0.15023256967779516,9.841738673892547,-0.00219783476226808,-0.009709756531497896,0.005826363665060044,6.57
-0.1303485573705013,0.04352757903226278,9.759130238456658,-0.006129593916545178,-0.0019636245854238823,0.004217266418658903,6.58
-0.17701097461391588,-0.07584157189747863,9.800795011536575,0.010565411728260934,0.001718996850166932,-0.0019341914769978605,6.59
-0.07585822228065286,-0.07813731334990474,9.7984169659852,-0.001688102821593383,0.0016848365518331869,-0.00017892865201804358,6.6000000000000005
0.14640767133612903,-0.023630695813180037,9.86178026346871,0.007182874281821925,-0.0062392397181362715,0.01820859541978131,6.61
-0.12293069267100927,0.2319278704243397,9.71481748074458,-0.0058621258381449815,-0.0021936117641072595,-0.00276740938273356,6.62
-0.04692790062883923,0.007880061524766818,9.937938172502475,0.015829141444460702,-0.0014359894812531848,-0.006518005266460719,6.63
-0.03731568190330652,0.01680780118996556,9.875348324854873,-0.008587706928007794,-0.0030244290127184885,-0.004383722297079482,6.640000000000001
0.1179701353587947,0.13306744828101055,9.742286514934253,0.014620234942686673,0.0020227052353708032,0.004032217422800734,6.65
-0.0919239069532,0.030591343811926998,10.001119622295791,0.009737667886431866,0.005185453587646786,0.001698072251484708,6.66
-0.16637997058619924,0.04425169540281251,9.876279359547427,-0.004942916154728762,0.0024451338337934865,-0.011170111929658989,6.67
0.01667401996142857,-0.1703203772393667,9.613800128078205,-0.02252349930226379,0.007472596963034759,-0.003655032187097903,6.68
-0.15501801259640235,-0.13774253720775304,9.91853991502961,-0.0073687820300550105,-0.019943755018408702,0.0010633195716492122,6.69
-0.11200501029737689,0.04906359952018336,9.70819999716254,-0.0007412220834655561,0.009333165738256594,-0.014136325081263468,6.7
0.020247796381325345,-0.024325531422055846,9.927204052676974,0.0005924015003527501,0.007937171004266554,0.00604731813957585,6.71
0.11906125746764135,0.011033534950569052,9.839421262261991,0.0017031678886837767,0.005826667755951709,0.010893890617216944,6.72
-0.07749962918035594,0.027011860193978082,9.73674291140365,0.003752515899891262,-0.011247578867624557,0.018666708674961115,6.73
0.07249268212498258,0.06786088723594919,9.745916929109653,-0.009610435693439341,1.6973547577827372e-05,-0.0058518745004251275,6.74
0.17578054112322047,-0.04634216224328223,9.85210921600034,-0.012382383073473766,-0.007482790749835994,0.009386620375485561,6.75
0.13993076764319132,-0.08694107385367253,9.913582652214457,0.00839000933476298,-0.0003147024649345384,-0.017614367324424358,6.76
-0.011775807878196064,0.0688187901845705,9.836540468064,-0.003886142154153756,0.008285859604539562,0.004862678854946583,6.7700000000000005
0.049399191769806804,0.06545882018241946,9.870712812541646,-0.007120638371117053,-0.0014821877635847296,0.013535720173602897,6.78
-0.02755491250980918,0.0008289895767603387,10.02064598837615,0.0005084211557095242,-0.005332753308356372,-0.0005036075387108858,6.79
-0.05262213459264445,-0.04618147147688052,9.708309719582138,-0.0009218217061619501,0.011478149738637445,-0.008398811822336746,6.8
0.18682310045796569,-0.27569006049272865,9.981924499133026,0.002051329839568136,-0.004499142017276488,-0.0010917719720939664,6.8100000000000005
0.058763516866063396,0.08036532594771481,9.816998878480542,0.0010246950940002869,0.0017520376744957352,-0.006365887004700569,6.82
-0.022157845468118977,0.18707497334976694,9.860085955189486,-0.006533461355327381,0.017145255495858644,0.014026223123111272,6.83
0.12905163117056856,0.05080766950278973,9.962299619269618,0.0010839747621190596,0.009006546237828183,0.0033301434008802563,6.84
0.023884078852646484,-0.18314060126045237,9.829991081697766,0.0031564859143241816,-0.003052920263192831,0.02623623267416078,6.8500000000000005
-0.003992523837686709,0.28207004856758955,9.82225097005447,-0.008174437083424859,-0.00829272329677269,-0.027436489137619736,6.86
0.09037673650698996,0.01283346959529837,9.819685859711527,-0.0040248597550322516,0.004777412748260906,0.0021821424117844258,6.87
-0.022351219900814047,-0.11925963921130343,9.778165502809756,-0.0005576719962933665,-0.010546379334203994,-0.008127309020416215,6.88
-0.02121796812129624,-0.18988642347611556,9.847462045795375,0.0003694936577080559,-0.012977738285315952,-0.002168615124086084,6.890000000000001
-0.11384027523153531,-0.14803246012163923,9.677787949209293,0.006601696885697163,0.000727548200616302,-0.00586242788647939,6.9
-0.10666560362420568,-0.030899495770568816,9.80917435652718,0.02321425277829435,-0.015522350908205914,0.004667904138151854,6.91
0.051540258950932165,0.1712307468804639,9.755554596954623,-0.004473549453163931,0.00040056933569527874,0.01756947217733257,6.92
0.03231966683236553,0.0439237969709447,9.676381990125309,-0.012871298303664118,-0.008927986601618412,-0.014988000469877956,6.93
-0.04743062543952095,-0.11394902795222302,9.898037653188023,0.009270835368191824,-0.00582418407742828,0.006562863489389841,6.94
-0.0470760845330116,0.04341777656636893,9.59285764045706,0.004660459708812714,0.009906225082714775,-0.004435942471812025,6.95
0.06706457204087175,-0.03182332021772038,9.700917608397733,0.012810450979958404,-9.681882633965818e-06,0.006481595258773785,6.96
0.10126092075846001,-0.09976867129979115,9.794752421101897,0.026991428321474272,-0.005149114511070273,-0.0005063830322603331,6.97
-0.10396188468312076,-0.23997612518611577,9.85370883700493,-0.021393356563335783,-0.009003414279377949,-0.010257383399318944,6.98
-0.14262962442367014,-0.12092241454134259,9.940240048902862,0.0033879370646438646,-0.0008789403000165662,0.006724303944909003,6.99
-0.02016577973265004,0.04875143875987491,9.687513878927806,0.0064942435788452385,0.0034842968082767723,0.007214611276073117,7.0
0.057080179099229855,-0.08867106988307724,9.552577635702594,-0.014494720279864795,-0.016411008374952126,-0.014457343834511518,7.01
0.1015668716426575,-0.08511700813219386,9.810485508722723,-0.013012718859603508,-0.0011525982768059299,0.01522434555591602,7.0200000000000005
0.2801570695202776,-0.03044544269177353,9.759282556221326,0.007229990145728311,-0.011497037097362049,0.011689584361904384,7.03
0.05711466041713462,0.13358659995876213,9.803163891647,0.01778659975626837,0.008981448066955734,0.007764554953543805,7.04
0.026791331905752697,0.12263796390064062,9.70778840751323,0.020925363040247915,-0.0018411165153546097,-0.009967208613049049,7.05
-0.01715315820528451,0.09256313201323385,9.933043843568367,0.008115447127156988,0.013243775528052129,0.007939732844006077,7.0600000000000005
-0.16160321859892238,0.10633149956826465,10.030833823063043,0.012913336424740641,-0.013302364143714628,0.01212756969199345,7.07
0.025631208852254284,-0.034811869196456506,9.672699132184578,0.011016469409093533,-0.004545101418085082,-0.0004629117865800913,7.08
-0.03530249687782993,0.0015652782967335186,9.751638136995112,0.004002660517046594,-0.02523446299088795,0.009592673300356075,7.09
-0.0005962933379548754,0.12567705890022338,9.838476963815696,-0.0011579862822747912,0.0006097161621958565,0.004731984192241483,7.1000000000000005
-0.13974949981910742,-0.1203905053002081,9.778828723904471,-0.00017307650479905638,-0.00529796015569812,0.010322166032158755,7.11
-0.2003555225573888,0.07798924450973983,9.90600155558621,-0.019354238735968463,-0.006773246370111494,-0.0010505742870817055,7.12
-0.04266509733227497,0.09256257470913248,9.650573461081816,-0.0011141036345103524,-7.631745389271523e-06,-0.0002478843687015114,7.13
-0.04160813958134393,-0.1709268368712723,9.882068026664435,-0.010220899051515256,-0.009580911380109882,0.01373422074699409,7.140000000000001
-0.1262930833534839,0.0016309434412779935,9.693120956104305,0.012509518870068006,-0.004428148656738156,0.013908168112054848,7.15
0.040693799556877845,-0.07860024362501744,9.70017228520386,-0.004826893291125234,-0.009955774308400396,-0.009838348764468357,7.16
-0.10056569205963564,-0.03801651285318779,9.938902949895128,-0.013059384888252996,0.016647663352052505,-0.012318203090769133,7.17
-0.046106817556070656,-0.0024048107061147884,9.817512710457025,-0.006235395791585936,0.0016375936977489109,-0.000489512694600955,7.18
-0.06978508285946311,0.004832367974704257,9.703653035019267,0.016954575699899523,0.01760415043059125,0.002344939506309534,7.19
0.08726102915926283,0.009944543399416849,9.76418678410691,-0.009617261311463282,0.003874883635155106,-0.0082585037926771,7.2
0.03972704787715997,-0.18243252165791854,9.721877937625516,-0.011293825046608738,0.008022662140099845,0.014696312109107582,7.21
-0.05528097347863936,-0.07893571547690209,9.695782976017776,0.011050549573314472,0.009095929424286915,-0.00248630122993171,7.22
-0.057711158572912674,-0.013803776399245158,9.861008962715243,0.01063213963125067,-0.014674404028804426,-0.013210409572323929,7.23
0.057882580648721565,-0.13142922049848552,9.715463785026175,0.006302894121720931,-0.0028305200305930173,-0.0055009383502170215,7.24
-0.14504650958964652,0.05867229634428542,9.82827899258445,0.0017792620998899114,0.004225058234079254,0.006026171917250145,7.25
-0.16262088792667084,-0.022440589840986746,9.791334978578849,0.0006584159415581653,0.003938417206436853,0.004834875136309463,7.26
-0.095887783796458,-0.1692058960523919,9.936986941412227,0.0016164652126879364,-0.009752630000097226,0.011242030277881645,7.2700000000000005
-0.14728968211991952,0.19118721637173602,9.858324975417247,0.006993525526891039,0.0020918694556746375,0.009602111261331049,7.28
0.025455661975028424,-0.03879207101533721,9.834650500172437,0.018949008794611928,0.005449892392800646,-0.003122224269648244,7.29
0.03551881409387509,-0.023014825997638336,9.861989553432537,0.006764461668905965,-0.011840373088224424,-0.0069525367606543586,7.3
0.1897142260866723,-0.09548302687904536,9.710703391000694,-0.0043385601621092965,-0.0008700746273688774,0.003897770833191361,7.3100000000000005
0.08700475358330788,0.07021894360256041,9.884570897331155,-0.0005883147815919463,0.0056870703883273735,0.0006105707099486146,7.32
0.0530714195507031,-0.01826150573789784,9.64548851441253,-0.003285350414646661,-0.012285015403734324,-0.00953346214015913,7.33
-0.02258214183416787,-0.06263991025238186,9.8793135667547,-0.016388361369642192,0.009288534305054927,0.007038692205870657,7.34
0.0791912314773266,-0.008485663801253622,9.713603683981804,0.007709751778392854,0.013199041996417225,0.004438604844941063,7.3500000000000005
0.016272662323460873,0.07167506145336242,10.046795507292932,0.006777466949918132,-0.0007414790041620339,-0.0017710833781923235,7.36
-0.09205769031980693,0.11030061183261337,9.803127060128668,0.0007519724209428005,0.004743208108826864,0.014012852953801088,7.37
-0.02552721710264882,0.017424273299880357,9.855517057205839,0.007176168630167675,-0.0028397414185776606,-0.010072061860895414,7.38
-0.20499210103699606,0.16773915870249068,9.866080827674113,-0.00401046780478277,-0.00022742817922637273,-0.004026330629511254,7.390000000000001
0.017488115710137166,-0.013460436191119786,9.680159143760275,-0.014073845750890048,-0.009520660504994423,0.002696527765532494,7.4
0.11606599380541427,0.1447150869619416,9.777803938173179,0.0055640921700854514,0.00437542073296923,0.003278635398610479,7.41
0.05699300142363797,-0.019434965321230676,9.945307058164834,-0.01157549509063178,0.01786423475463894,0.013987983756100922,7.42
0.05139516056469552,0.0005062563200142058,9.773570121600907,0.014850233169115473,-0.0002771160262593943,0.016208261803462003,7.43
0.010686593835500649,-0.20688833482863941,9.637646232270459,0.0016677543306543713,0.016179575382711902,0.0008033403014152632,7.44
0.0414027566023529,-0.02294090569097046,9.738392503348033,-0.0033833612088019546,0.003445377194066125,0.005166025220022157,7.45
-0.1927712955033916,0.08534114888685891,9.724615781932163,-0.0036955522250593526,0.017045432514983222,-0.00034736621910087703,7.46
0.06200565514471898,-0.1702562265772957,9.661197580406332,-0.0057171844171511445,-0.017559944926234146,-0.0129509023943565,7.47
-0.08704725363489216,0.15033817267061933,9.765748787116447,-0.012522528516446875,-0.006964489624156522,0.01303741229676777,7.48
0.13140217598314535,-0.1439209031656766,9.69640470425518,-0.003183514304121487,0.015725704910267733,0.011761460941931682,7.49
0.15855176832562864,-0.0492043403498484,9.82919871465193,-0.0044538553948923355,-0.009179957108025159,-0.01355178143994194,7.5
0.1596622886315051,0.04647100819533732,9.820296414430437,-0.006065268500356068,-0.0007666722731644022,-0.005291304497187342,7.51
-0.0246769206484255,-0.0444791391672274,9.866589045194198,0.00459180074291132,-0.0031442786631012956,0.007647865924213436,7.5200000000000005
-0.022871871850775664,-0.0914889927891267,9.897116283529753,0.0103907868655407,-0.010322382947412808,0.00029106620451548347,7.53
0.11803898689892037,-0.1540544363808554,9.8922849221069,-0.008026787120602364,0.003179950548227659,-0.0034800736876450496,7.54
-0.023570453695982724,0.013905955435742946,9.841929626721841,-0.00526581344646751,0.0014754998998214028,-0.0005689421323193105,7.55
-0.04824003546752954,0.11602620878908268,9.958074916413223,-0.003167601704025314,0.03252246981361612,0.0073858218861806045,7.5600000000000005
0.022136258229154743,0.04830641099351196,9.847101121915275,0.0064858975634511885,-0.0005680580221329422,-0.020927600158475917,7.57
0.05406869777606569,-0.0042005403315608725,9.791228970285776,0.0014082709859575702,0.0036720333911290626,-0.013147882087719805,7.58
0.03723356208481389,-0.09833933241624904,9.888550935528569,0.013351544040849556,-0.016342990007998822,0.012162175015683483,7.59
0.017931207686277928,-0.02871647924291434,9.977665260326233,-0.010026432495624652,-0.006195517892277325,0.01239858435971001,7.6000000000000005
-0.0924706871694808,-0.00904864038957195,9.711558367794899,0.003990606284508063,-0.0007877149210059524,-0.0014201781265210872,7.61
-0.03212316090721481,-0.0856631636335777,9.721649424942509,-0.005363005420727707,-0.0013836555158204629,-0.0071649750089761086,7.62
0.14699446458594662,0.06415419427157842,9.754254665447428,-0.013460520585241944,-0.003509716127611346,0.005073749998759801,7.63
-0.050638787882148185,-0.00531466444404953,9.850265555655463,0.004667591627588925,-0.007740509657266399,-0.007238782757921993,7.640000000000001
-0.12025567088150482,-0.07904241978054004,9.650798689525343,0.00523094689992788,0.009427567452699246,0.0038671110174658624,7.65
-0.04615755260517347,0.05455152796476446,9.674805594608433,-0.0101966009181634,-0.0051340789526674495,-0.007349105314306011,7.66
-0.032329524029180316,-0.024530955261966914,9.65743396317623,-0.0038388793840485602,-0.004494401392889591,-0.004638779777016904,7.67
-0.08025185919759108,-0.005378043296803195,9.835986047157416,-0.0006181045006024749,0.0037333131737809382,0.011242017445926754,7.68
-0.09247305091116914,-0.008476997399398988,9.642824048125352,-0.008915191087512207,-0.018924427828770903,0.008472802620417736,7.69
0.03136803586024763,-0.06346144714545286,9.802718057943599,-0.005234516592154383,-0.004951694582896527,0.008470824697494526,7.7
0.01108691856379108,0.04791086345861096,9.837409954925864,-0.008645486808655982,-0.0018867990970603211,0.001832554587869982,7.71
-0.06262806405838754,-0.05390626038645579,9.69631551246752,-0.008453097892550693,-0.0026808975038411053,-0.004537622576293356,7.72
-0.20540727897789035,-0.08746779198371085,9.97145240217203,-0.015092974423259567,-0.003107919290773828,-0.001383083332854832,7.73
0.07182324544240828,-0.11187803734556266,9.846393096830528,-0.00909055677948977,0.00068026875987477,0.01237032051439098,7.74
0.0917380504394126,-0.12520706770662252,9.794732556238873,0.009503841293378007,0.03379995267590649,0.004493732939647159,7.75
-0.08840085301949777,-0.02780248810412756,9.85122714698839,0.0125152208786906,-0.005561276977506772,-0.027817785110317916,7.76
0.020862153504890586,0.10126696350907732,9.827040457091009,-0.00444201699165237,-0.0013053242856020581,0.005428203346163676,7.7700000000000005
-0.04842501694796802,-0.23172895071921698,9.761003626315942,-0.006714201778095712,0.011735888098433773,-0.006607540630734004,7.78
-0.03975551840173744,0.014232592753713144,9.786438527996424,-0.004682796059609639,-0.00783053499079011,0.006629888782627186,7.79
-0.05983034502287049,-0.12605505163227249,9.809818334758491,-0.009992441799413445,0.010054347905048933,-0.007883074177320272,7.8
-0.0606080224536847,0.026103209254957904,9.901621031668293,0.0006187749604536602,-0.0015826480870430116,0.016087724217583043,7.8100000000000005
-0.058235737917601366,-0.03896452461492714,9.786146077735193,-0.007358000053676489,0.00800198553837239,0.010477161538705624,7.82
-0.0928763452054171,0.0008753123192105924,9.867064900614405,-0.006924692177206545,-0.016479322427227914,0.018406269412652467,7.83
0.05640100887972042,-0.03148838859876054,10.000021725243636,-0.0033830609776750883,-0.006295093061518063,-0.00719029844463463,7.84
-0.07962449975448457,-0.031739125267219385,10.014070548297692,-0.018980008136507336,-0.01515873828015697,0.01725911749333929,7.8500000000000005
0.0647090615191032,0.10741220798991032,9.693295989540301,0.003389005634979291,-0.0077839921313990635,-0.024465720304090045,7.86
-0.007936332168969563,-0.1736048552563394,9.78207474177552,0.0013336086388976685,-0.005392164158215977,0.005888145356863904,7.87
0.010510587929765417,-0.10779504858888372,9.912874743092917,-0.0070226290219098245,0.005638658877701144,-0.010674499877717332,7.88
0.08251065988986964,0.0334566536876419,9.953658611370132,-0.006794671183590913,-0.006982112284662806,0.007405749105607485,7.890000000000001
0.06488471449061982,-0.06528996349998073,9.914945726688343,-0.009996944062669011,0.0021995793450465505,-0.003399219787011893,7.9
-0.08227800189990642,0.052053279541038215,9.898153252099807,-0.004208664802285323,0.005190702255368822,0.011623320108599962,7.91
-0.00780436398828239,-0.055297842571082216,9.852375975776319,-0.0035592255282572718,0.0014395975901104123,0.01728883122707781,7.92
0.05718932710861327,0.10882578043036868,9.853781592197503,0.00960548692869713,0.0026611819524094416,-0.006393192553226326,7.930000000000001
0.001397472431271614,-0.025657111813711858,9.557433193098499,-0.010424436832087254,-0.0041701604339116636,-0.004790079883484272,7.94
0.03646938258140026,0.051158300997107525,9.865267833947703,-0.007183851876869508,0.01703047951971683,-0.002990651851650756,7.95
-0.1230972206797486,-0.189588654214073,9.863195958444093,-0.014351904562067603,-0.00702269383183539,0.0010194313129142708,7.96
-0.0076583734863692,-0.18139663747909926,9.832500881559822,0.003434529732827818,0.004227133852105065,-0.0012598276462688766,7.97
0.1596813314003387,-0.021372646968273665,9.721157731911735,-0.0015700114556279324,0.015521061099384734,0.003683279846556796,7.98
0.14149063338825765,-0.05626047606630307,9.799068606860361,-0.0070933250853200125,0.018347198546190262,-0.00946727822942401,7.99
0.0789415243697597,0.03554940229630725,9.90901561304125,0.005400292759311277,-0.0009118071701522087,0.004535017876555979,8.0
-0.1064530438479628,0.08641956596977778,9.811350965692,-0.003627977009025095,-0.012555256333391756,-0.005729702410816567,8.01
-0.010358125233488863,-0.10697997307831475,9.84794536636349,0.002957475863626286,0.012069125245425,-0.006663700052872679,8.02
-0.13121968561701874,-0.011604238663810065,9.988040326797988,0.011533667059816318,0.004563149668492775,0.0008810960515856517,8.03
-0.08724508888003163,0.11448700592551203,9.827070932088532,0.009409388162014781,-0.008926667576558097,0.008389671560374738,8.040000000000001
0.015153937299310846,0.12060426532931189,9.77590657777064,-0.01025666954614434,0.007181879038299944,0.001703402829554046,8.05
-0.023316788247916984,-0.06342663686039703,9.949705291141418,0.009936413298653862,-0.01127796477743012,0.01096752877501711,8.06
-0.013672768518385989,-0.04564320373722214,9.933317754549273,-0.001887128382851533,0.0012506896753109121,0.0016044786048606413,8.07
0.18342950672371858,-0.026883622738435475,9.80215674821543,-0.00040209980697329326,-0.002582347326411435,0.008085630432316023,8.08
-0.018334876464900292,0.06838128443439935,9.673295984041335,-0.013552403062325542,0.005076034260416621,0.0024395845507582774,8.09
0.046042410786153315,0.06835006675856192,9.842675571190048,-0.0012974753294318414,-0.00795821484329286,-0.0007140522383335088,8.1
-0.07323581407426515,-0.01897346425566036,9.715298852168889,-0.023901400600773347,0.0062266582771804925,-0.0052414554154285396,8.11
-0.08228489927947112,-0.07401983200958932,9.891757162864009,-0.0005090570040398528,0.0029580952397077064,0.004407129951677864,8.120000000000001
-0.10228340125670417,0.0740128480265909,9.648784875443962,-0.0010267832301367823,0.00862601255258764,-0.013412485704037668,8.13
-0.02275679491601778,0.13153072378576622,9.826640741662422,0.002330835816238708,-0.004292963947958357,-0.0004815151460122252,8.14
0.15965042050505848,0.07288215439807437,9.918889036423002,-0.011050747098579323,-0.0008673847861852954,-0.004372227363144183,8.15
0.23801371471180893,0.01183012927625517,9.85708919988257,0.0006968868314538817,-0.006973959363962804,-0.015511335073017836,8.16
-0.15924445926257835,0.03279423158420568,9.960803991050907,0.00013570757846476098,0.007333296115721761,-0.0026541207286211034,8.17
-0.02653970758126091,-0.04265318811343483,9.883313069694292,0.009385468130425668,0.0038077046573077402,-0.0036213205431054212,8.18
0.03211877554494831,-0.11080465604832113,9.795490567396122,0.009440242312810335,-0.007174009579105547,-0.0172333318751865,8.19
-0.18931689410722674,0.1619955122434374,9.797933598612243,0.0016707182639851728,-0.011267991084525196,0.002957665170029471,8.2
-0.07862283009697997,0.047385173788185464,9.86433741090042,-0.013564669937815715,0.019069001227273407,0.005538277644755225,8.21
-0.07585640714478184,0.027415712880001705,9.88640221553317,-0.002828263418478328,0.012671790945989522,0.009096914857107615,8.22
0.03274690789905274,0.15089950162797328,9.947330288601306,0.012176507022554682,0.0038158260279554297,-0.005211463957716583,8.23
-0.13149531668901124,-0.04958933857238709,9.80650883672499,-0.015103032425529288,-0.014723571930480081,0.0028007849248682217,8.24
-0.030078412163806842,0.03082572040139885,9.670633626422061,0.005261499267608889,0.002121197390481269,-0.005791752504758099,8.25
0.003484857650337966,-0.04747658159649053,9.752058590017278,-3.185337061038723e-05,-0.006323585248827523,0.004067112460118628,8.26
0.03365140980504308,0.04159246543032394,9.61564363665904,-0.004635243801224819,-0.01898028971970356,-0.0038680965691536883,8.27
-0.10814373360212448,-0.1172293809551026,9.813407905075122,-0.010145758352048657,0.010524319274489706,-0.001993172474035127,8.28
0.1030397245571533,0.09945868235811049,9.912855949797882,0.002568282263891293,-0.0017059567542202139,-0.016359989240964087,8.290000000000001
0.0522170855710779,-0.09862186620959368,9.916810801575545,-0.0004594612063566905,0.015815818088412734,0.013348095291339552,8.3
0.34435508325672437,-0.09036090730382229,9.836985006621108,-0.0030496811590424535,-0.022619415390181436,-0.003377907270505538,8.31
0.1498558125574756,0.022800084739980214,9.720462567290667,0.0061870812625380855,0.005176112227732355,0.01717088098376846,8.32
-0.07302963499932742,0.016294835216727283,9.865349208802378,0.012138693953256521,0.0007480670628401322,0.005099700074196601,8.33
0.016050475762530898,0.0793773967405937,9.78186363311704,-0.0021929367128595014,-0.01304273074620375,-0.0030536603942397005,8.34
0.04299713089167311,-0.11323285285622241,9.714036152861274,-0.01706236807454788,-0.020119163623754457,0.004272745959371595,8.35
0.1101693410629288,-0.1496482451645385,9.820335687435854,-0.0007462929699182086,0.0010204587200291627,-0.0028564851573893812,8.36
-0.029785322776592706,0.10517816557314974,9.8387939837028,0.009490881551469273,-0.009818071592191061,0.008794581334601443,8.370000000000001
0.1133227072969326,0.040418625465057124,9.596099134964847,-0.016385694440066254,-0.0026852781352564577,0.006125872887834498,8.38
-0.026889528820485488,-0.05850397823378725,9.704422137924825,0.0007865049362734846,0.01193553010818508,-0.019494449793456603,8.39
-0.06690014808966298,0.13316077090875553,9.844231352496603,-0.008693449615525482,0.0059510710249651416,-0.004999590368508753,8.4
-0.021094546864878234,-0.02376354170864535,9.847162582685298,-0.010869259502350804,-0.011753616324105067,0.007389442848008556,8.41
-0.05648252686757417,-0.055311828147510206,9.800631786070994,-0.0028079358546890766,-0.0005998980334285442,0.0023697215512427554,8.42
-0.025548846399185973,-0.05629074592790506,10.010051289832326,-0.006461752685749278,0.012093101348863176,-0.018616714618216106,8.43
-0.15133667095815462,0.217750038085223,10.03026321016584,-0.011887764806274693,-0.007489501106848519,-0.010223193351562162,8.44
-0.14959262556195738,-0.0958694759999753,9.965269274145694,0.03199949251722104,-0.00022403771465798693,0.014531740091132481,8.45
0.0016295362351919274,0.2655365395761109,9.780027142564608,-0.005425971021027617,0.012147535154460256,-0.006560072757706559,8.46
0.03159201010815369,0.0023531974226067833,9.748412352535276,-0.00355375289642718,0.0027551722413614514,0.005008299479361111,8.47
-0.2116922557088523,0.029892578749898754,9.919925776264654,0.004273529072358638,-0.008337572923087708,-0.004449280288047079,8.48
0.023793966744297776,-0.19399680728929808,9.729315991211017,-0.004203552372626124,0.009232292742631626,-0.00987374775715754,8.49
0.0037711343126184634,-0.16944584522748773,9.711003390748802,0.002848601769967869,0.010430516712225791,-0.016047606737770656,8.5
0.1073119053854424,-0.10260553674541317,9.815083087312981,0.0002746144347833465,-0.004834505471077342,0.002473272857631307,8.51
-0.13071398154303202,0.0894746354259257,9.830952427788885,-0.014434874752289294,-0.012712056443475384,0.0009448076748263599,8.52
0.12448769738708586,0.07261768104262128,9.85141848868033,-0.011734368370986464,-0.023506702436824425,0.0013789153221874042,8.53
-0.08394706777209009,0.02890673542566451,9.72846601232319,0.005424933116891541,0.006085825241400589,0.004689362428203746,8.540000000000001
0.14459489048200327,-0.1260246742217254,9.924626015380303,-0.008264848171759437,0.0015120612879108994,0.0198253562507333,8.55
0.061963551177189984,0.019231868121912063,9.954114832217973,0.009042515455457352,-0.00932678097313045,-0.0030440203100133944,8.56
0.011859044582394453,-0.038499110894011764,9.90855297223275,-0.011423885457333105,0.01300074686692549,0.020505625684025572,8.57
-0.14210270811768363,0.1123702238852225,9.739947700379814,0.0048988485009618735,-0.009487139201642453,0.021202250039186136,8.58
0.08696563403883682,-0.009915695909496376,10.029899247166448,-0.02068810655851763,-0.012951102849156805,-0.0006636957365563484,8.59
-0.03140977164147408,-0.005769073176383606,9.80849044371916,0.011681630403867667,-0.007045425712167106,-0.006821020191976925,8.6
0.23896421971705228,-0.01641467439887349,9.78574690870585,-0.01035776772888208,0.007532772499037665,0.0058385739813900245,8.61
-0.014572581213507414,-0.299253208279192,9.892779765190044,0.012861758441395744,0.005369712484988205,-0.007928491900697313,8.620000000000001
-0.17402246867424365,-0.0794915616974822,9.69096675860754,0.010966767387065274,0.001168021824219723,0.012410609396430254,8.63
-0.058517343434745864,0.12734243361504474,9.84234376625416,-0.010575855027171567,0.012318370058670503,0.018616511495385412,8.64
0.04526695139212882,0.04601944038794596,9.823311784758163,-0.0003543149304638572,0.008762946056971775,0.0003133207093535309,8.65
-0.0737140459090964,-0.08715819762470352,9.905920958634399,0.0037378631009269566,-0.00015608277257532719,0.0014152302536137725,8.66
-0.049204990734767695,-0.07841737762218769,10.013972124788447,0.007953560042117636,0.002062648733763871,0.01654522331030269,8.67
-0.08109854350378452,0.23105913295919156,9.882730920484482,0.0029090124010146858,-0.013083859179320959,-0.012317744234605204,8.68
-0.052674588368663004,-0.015727089992302,9.956619536087539,0.013286541815965162,0.0052504616478052215,-0.010051216147887508,8.69
0.017181590066689848,-0.04426919728410677,9.834783992812834,0.005604475539283123,-0.0013430786124775833,-0.009438440397899612,8.700000000000001
0.08894203930402922,0.03076514957578369,9.747350503125523,-0.008526830354103199,-0.010309179322439174,-0.00896300859436703,8.71
-0.1325202681714745,-0.05778040971462887,9.886519585874655,-0.01652936552333327,0.012620125821544446,0.023132659335965502,8.72
0.05020186310021199,-0.16552066783899633,9.610088148566026,-0.002414608354570825,0.009383726573841367,0.003785932733464463,8.73
0.02026976097307079,-0.14611198324746474,9.794533995203906,-0.006823736471264701,0.02085002455475961,-0.00416368108426097,8.74
-0.01726843627258314,0.14570435436498366,9.92784341485123,-0.004953154345525812,0.0022659031227868468,0.001050149753959129,8.75
0.01115007139506003,-0.029700651373766186,9.673205927653312,0.0013898248217510427,0.0005412357684783735,-0.010524908029075596,8.76
0.060436380761112254,0.04081067680875911,9.800095967457741,-0.010869839148578291,0.00320395858719001,-0.0032803528042927143,8.77
-0.1416649778102578,0.00508950075220162,9.712663036719498,0.004332796534261044,0.004624169544992044,-0.0013640647790379116,8.78
-0.051197866087500245,-0.16276429952934235,9.69496044951749,0.0036702437762500145,-0.002087540086867583,-0.0004980399343667262,8.790000000000001
-0.1404972589520122,0.04261938711426125,9.725747992623692,0.002258024741386582,-0.0001499191567609011,5.240466090676979e-05,8.8
-0.10137960697564569,0.059850887999272344,9.826727328186816,-0.010762802422363747,-0.027074423740611576,0.009716761294138782,8.81
-0.011983893902824528,0.06332935544465959,9.662240867749915,-0.016075160092166,0.013624590465331907,-0.007021267976742172,8.82
0.023023837474518548,-0.2531120101917645,9.814717552740314,-0.014140044210691066,0.004985697025137722,0.00925486884058397,8.83
-0.07389920206605899,-0.004288037373990395,9.92586656647861,0.017843690211799466,0.004871568368329558,-0.019120626146204276,8.84
-0.09633386037141545,0.0233578311136907,9.844163254569894,-0.0004724408655469684,0.006314567665632176,0.004543111594865682,8.85
-0.12250116285769608,-0.10402535655038701,9.747919817966148,0.0008736608408123975,-0.013549606756749624,-0.004811063351203394,8.86
0.09522541889080521,-0.12660318286450142,9.857831005084407,-0.010563341925639999,-0.010382301032768828,-0.007524450076043781,8.870000000000001
0.10943123243496203,0.21162531658199965,9.701747264781899,-0.02089204364999872,-0.013564266858526805,-0.009937947014919474,8.88
0.02433028533050663,-0.011969092459541156,9.670998374686842,-0.001852265194897778,0.0031500671829671335,-0.0003867708095131902,8.89
0.03115323656642487,-0.1436884619283648,9.810887608531301,0.007579266872194936,0.0075067132139942415,-0.01235169511928061,8.9
0.15240754842906395,-0.12803558621626818,9.866614111073185,0.019003586193589245,-0.01028200721438778,-0.003935765229497032,8.91
0.029634775651824426,0.05898457046568818,9.862356211598478,0.01710392612791767,-0.007014017639025857,-0.005771374574078882,8.92
-0.024770023624805754,-0.010374428061248532,9.743990151759647,-0.00793486886032984,0.0061137630123533895,-0.008398471442176654,8.93
0.042351856551019564,-0.05247713648419107,9.675312033494409,-0.0027912911055826845,0.001843460231057013,0.01132943978084845,8.94
-0.15434048422229374,0.131124337638056,9.9174083494029,-0.0017179737926263795,-0.008251427840525509,0.008138767484733469,8.950000000000001
0.05351340203294122,-0.002960498812082704,9.952375451965874,-0.0034808037997818065,-0.01317051211222053,-0.00418032104366046,8.96
-0.02203288128204139,0.035235703903389065,9.669738062803239,-0.00791725408653939,-0.017412951810922485,-0.0051845348926032545,8.97
0.041629091262190304,-0.01825254528934035,9.745423392180811,-0.011836469621552888,-0.008255252712469493,-0.01355920581493397,8.98
-0.08312599937360532,0.2143669542071363,9.946108970271908,-0.009956621665912217,-0.0025588502728095446,0.0014209132543472809,8.99
0.03356502313457723,0.010351087494342798,9.899584609960108,0.03026997484778707,0.0011992223308195408,-0.021201705957929296,9.0
-0.08477271334684139,-0.04250479426373488,9.750786758301015,0.002364794393351938,-0.01511441465152158,-0.01287128862450343,9.01
0.1256851943893891,-0.019312579478569552,9.753243449415523,0.0038963687469068965,0.012507860852259417,-0.007143313807305077,9.02
-0.14986459979460146,0.12767677232833038,9.843503888108291,0.005375391688659639,-0.009197202521161846,-0.0037208955491204346,9.03
-0.14730300272289445,0.06600068223482793,9.759658844854005,0.0025153448628615657,-0.010878897994157645,0.008746358633530668,9.040000000000001
0.021511218461166492,-0.026042068541613658,9.724188045740627,0.014217790626411321,0.010481522846249133,-0.02225491476884264,9.05
-0.1707817283946429,0.015798069116085934,9.75086036891481,0.0028712756964978897,-0.006723409040407166,0.009131241854080725,9.06
-0.05978729510091525,-0.14141147165691914,9.836956839879312,0.012644192875115274,-0.009427591039149778,-0.005142653697665121,9.07
-0.019099325037103487,0.14336267690351678,9.635748848868227,0.01534999017903444,-0.004436283576904096,0.009194647357699653,9.08
-0.12014010273861493,0.10941927531461951,9.921499964689865,-0.0042939675078169995,-0.005815362689337486,0.0018829715620903853,9.09
-0.02046208473623619,0.005377813604576023,9.662330788013534,0.010225257620804049,0.005493263557300947,0.010380252972956187,9.1
0.03786962807037511,0.08784317392203972,9.853602062681984,0.013836399081915392,-0.0225536515858644,0.0012563123233303242,9.11
-0.1839297325123351,0.036610162975296005,9.82991173653468,0.0059605966136710336,0.0024094137438972337,0.0023656542450853934,9.120000000000001
-0.18392465232427876,0.012364748949135872,9.800529706389334,0.004796298529410717,-0.00575815457424982,0.003323163486280007,9.13
-0.03545583702655832,0.04839785074189204,9.908402189765246,-0.012520211197387051,0.006301967192070996,0.002203738953791266,9.14
-0.024363429583087546,-0.07958285647813246,9.700918672989713,-0.01060649168187985,-0.006766480645594396,0.0029967985937619525,9.15
-0.010811581670721403,-0.0680211274118567,9.7926267426861,0.0028495446710515566,-0.022056424595184716,-0.0029530807918587442,9.16
