ax,ay,az,gx,gy,gz,timestamp
0.060184912063302745,0.04982799679982594,10.001429700506828,0.005446016139856086,-0.013493128250080073,0.0037782791142127077,0.0
-0.12774812800100296,-0.10628706727395093,9.885920879197624,-0.012477031636760345,-0.011892803075703548,-0.009606327136953483,0.01
0.015082971701762874,0.16988616730470507,9.686952995857926,-0.008178111221165008,-0.0010164131028084424,0.008413314848567078,0.02
-0.19726165883772384,0.00019319791988792802,9.709781289532929,0.02093322391385624,-0.0023161691337290707,0.017640479804910462,0.03
0.15891064350900547,-0.10708827016817045,9.750218389903617,0.004521638236362355,0.0027728465854106317,-0.007072578665505943,0.04
-0.0981000109742427,-0.03518028388822174,9.7301283109566,0.017175198259608514,0.004717334152045256,-0.006852760569693342,0.05
-0.12216070966319617,0.07750376543346438,9.918911342418372,0.001653390826048619,-0.0112452739605339,0.0033512953065434055,0.06
-0.19732955516773387,-0.16843120505460468,9.73226561062121,-0.006809597849327731,0.00447160638294719,0.013431688850353393,0.07
-0.029956577308792354,0.10471371899748061,9.908527463048884,-0.0024502935207305144,-0.020715683244790815,-0.003928740637556877,0.08
-0.11636329681958386,-0.029339508829813944,9.505916045004977,-0.011328922221869831,0.0050641810940031,-0.00032990511372249054,0.09
-0.07164606006550343,-0.10206133348432074,9.925431589178146,-0.005606605199480795,0.004239594358799848,-0.024108867922158196,0.1
0.04389597412254645,-0.12423918024872277,9.940661824065833,-0.008300854770753529,-0.01379028497483757,-0.008985601534421217,0.11
-0.026711646188872274,-0.08413671906944609,9.910991640208408,-0.005885273917299456,0.0013347026636969118,0.008778711448280052,0.12
0.09928245227063807,0.07819418831857676,9.757159566449863,-0.006682736498197359,1.5450575684895306e-05,0.004078889378089817,0.13
0.0050984376173454525,0.04053838179466682,9.982511828350505,-0.0062910045708034325,0.009277260125969095,0.003964105664545945,0.14
-0.03025244528074917,0.2245905705453228,9.902505033257397,0.0011120010074871355,0.013212388903296166,-0.01199270336876501,0.15
-0.03697777949329026,0.2235170791158949,9.72971017056946,-0.0038501863903597972,0.0032874997285844195,-0.017410149897838435,0.16
-0.11592519095477001,0.12390003397288024,9.804455144251175,0.011112336869520215,0.0042654105527981006,0.008558321067078193,0.17
0.02920171202111918,0.30607691986990965,9.730446063786486,0.001265783727142439,0.010672791879247022,-0.008392837258739847,0.18
0.08756944548819412,-0.1205250691754739,9.99960795881585,-0.014273994433908574,-0.018488051503969056,-0.015072913290167052,0.19
-0.04463942553215733,0.0018468900239975786,9.798357726874645,-0.019309460702302973,-0.004789040728000573,-0.011711082435910375,0.2
-0.09356689355178671,-0.13085485051635815,9.792269375055255,0.0008989403241463465,-0.0006592329678191637,-0.0019773422717740863,0.21
-0.06572171515573828,0.03028260240921034,9.859496459173817,0.005393835597720007,0.0019975694971002293,0.006947459070449134,0.22
0.14445230064795392,-0.02936621601963482,9.826957742206455,0.014712356998710199,-0.0036092301332485326,0.01767726801621093,0.23
-0.0819219126721508,0.04726902837335332,9.802204802116155,0.005687183420739702,-0.00961198307358415,-0.0031525769385940474,0.24
0.09404412857242114,0.005621356373908195,9.821677085674756,-0.0072937581358251125,-0.019521341012631543,-0.003724626313925193,0.25
0.0520098077795017,-0.11487289447103584,9.72744008802705,0.025468354062669177,-0.010388119985202646,0.011070469538594337,0.26
-0.005954617842094669,-0.10793892647326297,9.701438413511571,-0.001110543265381959,0.004990446399170163,0.010717091883370295,0.27
0.02919971347418464,-0.009019436609436625,9.928225355708166,-0.01979310915198294,-0.0037248950434656124,0.0042280119947572655,0.28
0.043461855923651135,-0.0071327128052464375,9.634001215758266,-0.025715242986650656,-0.002674476954256807,-0.0008883086297905835,0.29
-0.0298491826346111,0.044357280326198,9.862196068637369,-0.0040844279008786415,0.0057217266059951255,0.007362798103110262,0.3
0.020494264105307088,-0.0813923343870809,9.949923345208113,0.010761662006249664,0.005248482582266153,-0.01971644664058708,0.31
0.10122213066950098,0.05100573068651835,9.90257695623767,0.01549178996731758,-0.017869392827243907,0.021845599867360677,0.32
-0.10270420085248091,-0.14714323283116995,9.840718073668636,-0.021448984541902836,-0.003795501203287589,8.836978973505226e-05,0.33
-0.21700848386110183,-0.03012484712697029,9.861059598495123,-0.0028370825209668967,-0.005422861979013644,0.003526308155671949,0.34
-0.05361078262059894,0.0009465772291812127,9.684967256376204,0.007036157563844566,-0.012472138512544058,-0.009772670969461734,0.35000000000000003
-0.027847651664462306,-0.03458325910337708,9.872751610725063,-0.012722354293044283,0.008974391775046471,-0.0016563125647326702,0.36
-0.02846614255732007,0.22225952564494694,9.761671409414365,-0.006646970366893251,-0.00330730343244533,0.0022383877621367917,0.37
0.04661355925118632,0.04210038575127452,9.765744197581114,-0.013635436188514777,0.012873801456033626,-0.006307361164689574,0.38
0.021020840630164822,-0.10329785705892132,9.919099104560685,-0.028518985072939672,-0.01537034254292881,-0.009590904129914575,0.39
0.054331984628443276,-0.0754957741877916,9.578513020723511,0.0037753207378306746,-0.0008247905790097949,0.005947336982243896,0.4
0.033143647673919675,0.03341156628137694,9.657889977728304,0.002554926390713906,8.967550369725811e-05,-0.003946921643418182,0.41000000000000003
0.11860711049765492,-0.14184955652874418,9.656956663080804,-0.02241888320118654,0.0034192901374528197,0.004354588081790306,0.42
0.02994668917858513,-0.11970151640434111,9.74908412694521,-0.008985019351530645,0.0063184658305185685,-0.002144956562508619,0.43
-0.1839373355320259,0.02536947821649338,9.919631653168747,0.0018571201362876694,0.015049429416936471,-0.004907439763764842,0.44
-0.09193845936654711,0.04186928456595081,9.890698137273157,0.005189280703266809,-0.010549820140744678,-0.00628817473965921,0.45
0.07515719309754658,0.08742802251046283,9.766048287461183,0.007985656766792434,0.0015161367090804846,0.009242628922295685,0.46
0.08270363816856113,0.11853471488541639,9.79410691675465,0.009062228286538418,-0.003096638799274849,-0.0038759640426816156,0.47000000000000003
-0.12297191764516875,0.0434684085393045,9.740644254073096,0.011724851330457088,-0.00023528803639801337,-0.006965234875095083,0.48
0.08991962104691004,0.016026782065495165,9.776735375518117,0.00501640132010505,-0.007927418274287015,-0.0018545781328801643,0.49
0.11089938329141985,0.09987780440171166,9.932673592987115,0.00023799142803830592,0.002745013510610683,0.007101210305392544,0.5
0.10888801092648306,-0.01636498880015526,9.809431598706158,0.008462208749236859,0.002360430251653129,-0.00431383241529851,0.51
-0.09527554882338508,0.018763015916353085,9.998005529680077,-0.00015757057574285823,-0.015257222473671388,0.0071102130755070735,0.52
0.09474501674068224,0.198124748269363,9.76215147904037,0.007817716595646484,-0.011693923888866845,-0.001525608546424244,0.53
-0.1005804522059201,0.03556251764459197,9.867133390961733,0.005023191584622336,0.000979444680632251,-0.0027752120532178273,0.54
-0.17154798082525244,-0.08017321393157471,9.888302455363442,0.017977661580970878,8.42400595564768e-06,0.003009431463417076,0.55
0.07251639471317421,0.16221669328550403,9.772751823569259,0.006014232895318084,-0.002596181540830018,0.012013837930287232,0.56
0.09648038293276007,0.032657236448024075,9.937148619346248,-0.006318154656305329,0.0031134058196563,0.0038302859537528546,0.5700000000000001
-0.10966509945507193,0.03266781337481632,9.861013968606361,0.006782372739578681,0.0037217326037598014,0.00932425609733923,0.58
-0.08036654359444936,-0.09392839491224927,9.793630820469776,0.013968603792109178,-0.0064311927984828645,-0.0030906929766694926,0.59
0.009355393717995727,0.14945805659255526,9.806246042798106,-0.00905071476857481,-0.028357108616182947,0.008903595016309242,0.6
-0.13896509193688905,0.07458454952034745,9.690952618617715,0.00197226683859691,0.011105035729248898,-0.005175506891478083,0.61
0.055935669563200646,0.02063607395514841,9.88679962395655,0.014845292688148798,0.011507187879854847,0.0082156408315941,0.62
-0.01142770286474143,-0.04999236708856497,9.550382705591458,0.006830953994272129,-0.008231937382319502,-0.0017269331333676975,0.63
-0.09508434479061605,0.09640922274973851,9.813782612102317,-0.016750657298671146,-0.004999501116675276,0.011164271032911824,0.64
0.03576896503632262,0.06659368252698096,9.84756062694307,0.005045088043598695,0.011065549221067584,-0.0025099432163963246,0.65
0.06761049267171619,-0.05954254024997462,9.779936393605887,-0.000544790020676887,0.007079387966183067,-0.012623616818163716,0.66
-0.006372606570443153,0.13649609063184753,9.732425815561031,0.0071048526082400825,-0.008162172723082116,-0.0039058125991380524,0.67
-0.03005519854336207,-0.20606926113002133,9.81413641522272,0.0006117530938770263,0.0014775486885624841,0.009623992614225283,0.68
-0.021675683681655913,-0.057388215488229366,9.906020644584567,-0.011124829077409049,0.007398692248205809,-0.016448141881061803,0.6900000000000001
-0.011993662709238817,0.1967354820275,9.77359149391464,0.00898078822350986,-7.151062676110596e-05,0.009933635463401537,0.7000000000000001
-0.05116857680237274,-0.05358546096547151,9.755437317393948,0.005523266952566147,-0.0159788848742317,0.014359290272810726,0.71
-0.016336901726274434,0.058614552975762985,9.927690719031881,0.015099415561491808,-0.003808444462816557,-0.0038157842404793517,0.72
-0.09614694499722855,-0.08572814700058129,9.866775554272802,0.0015793041874269912,0.014964527692504082,-0.0007760463303149233,0.73
-0.21260825326174718,0.16344725835624677,9.734944875434934,0.004847127455685849,-0.00203712000798465,0.00045413739672044417,0.74
0.03309531847069149,0.017187285067652217,9.638662511781034,-0.008470108796786011,0.014509873953768009,-0.0048714469791927405,0.75
-0.05146555163354723,-0.11159668558949597,9.82798021955517,0.006498906268492125,-0.004480018103286599,0.005428463367315429,0.76
-0.1296178783400201,-0.04418543863069294,9.686553613262866,-0.023779401893369113,0.012571130836386262,-0.0020801614543256575,0.77
-0.10886289444555677,-0.07770940147497504,9.79326748132896,-0.015543787714169609,0.0026661227826475105,0.0067722113783753235,0.78
-0.025280589600513645,-0.06443231100779509,9.57851555507317,0.015438030752945564,-0.013969224850990726,-0.002966586164680534,0.79
0.21853298769230786,0.060542090911353846,9.797638679184558,0.011110861026615626,0.004270244890993303,-9.031112933699674e-05,0.8
-0.07648053447586839,-0.057820662983425065,9.99063785156574,0.007894974508169457,0.007930752911680146,-0.007036392899918076,0.81
-0.0697792538738434,-0.06190483657555901,9.86852170253525,-0.0009427753763282516,0.010965866293295727,-0.005249243217884446,0.8200000000000001
0.004029740221900532,0.08621135234296536,9.695084146212595,0.00431633307113195,0.005919206215699484,-0.018758167290255815,0.8300000000000001
0.11544408045085804,0.05685606160045741,9.7475593728773,-0.003568414592698394,-0.0070805774708313065,0.022145540908140703,0.84
-0.11832315992117781,0.0008563604728884999,9.800347599548466,0.006799679333799522,0.0034045487924729886,0.005570965663207567,0.85
-0.07110025583554762,0.03282109155508233,9.531649917851675,0.008100807422703714,-0.00077829652789196,-0.030982594263596314,0.86
0.05247606817269303,0.1427686428246092,9.789301204416166,0.0069633310311957965,0.004224832068688202,0.015217258850705637,0.87
-0.05619041459571224,-0.1860609477149765,9.740849507894927,0.01141620390450047,-0.004471989963550152,-0.0025471595671349716,0.88
-0.11305353644737869,-0.03708435097673118,9.77514909281147,0.0033741919012591722,0.0069364493175469505,0.013788495992200913,0.89
-0.027945407408328238,-0.09622805963472765,9.994523346655747,-0.014530883710303111,-0.003680900454151822,0.023418995836515803,0.9
-0.0026146498064227855,-0.14572107963988312,9.750082173490556,0.014581942733480607,0.013418448010221804,-6.207698272470625e-06,0.91
-0.1340389213124351,-0.0432048624950924,9.932930192536258,-0.016805248314380017,-0.008204151758011194,-0.00454708754001306,0.92
0.06784213383986441,0.12586912872480158,9.7769453038919,-0.012654293742033671,0.007783023922323908,0.0030459333550252265,0.93
0.06314344213871673,-0.08936613016520674,9.698195051803122,-0.01743519270924935,0.01223996698510903,0.011465785091894394,0.9400000000000001
0.0872906824065025,-0.17209955207619435,9.787206128104804,-0.023096842383259288,0.001656044150960904,8.954962329700859e-05,0.9500000000000001
0.10927065603151748,0.08862532564369291,9.728492766713824,0.00881224106741991,0.003360782888404123,-0.00048395743381230143,0.96
0.17275557818483012,0.05183946430814759,9.865265882937194,0.008410686453494881,-0.0074412345375115445,0.014761703231126789,0.97
-0.07020076567972512,0.10314519606031743,9.85143314589151,0.004006410892317046,0.006656450410024931,5.8231119244760935e-05,0.98
0.020359404936128686,-0.046303761154833305,9.809575374258516,-0.007938731173642374,-0.008174661242299505,0.0014016968298202997,0.99
-0.12159903639248149,-0.099985363215848,9.645816023611278,0.01893800905727012,-0.017476163018893195,-0.021576701830754136,1.0
-0.0638317005784397,0.023002964255541353,9.696497758350642,-0.0075281636647894406,0.00029486490782871253,-0.0021517044084367804,1.01
0.0061598280257792615,-0.05029062148001831,9.858838678658477,-0.010134552564591682,-0.004556861149180585,-0.0008919877783533156,1.02
-0.012251021412403995,-0.01148950284300368,9.776868611430592,0.003952103723438854,0.017579001722509868,-0.001262410213775702,1.03
0.10168544236623228,0.00800282865038071,9.819823920667105,0.017040811178604162,0.007233356195904464,-0.0077292551043188435,1.04
0.09934298787414811,0.0897597518843534,9.944497814252845,-0.005914275030456734,0.0013062061627435427,0.004670646330262422,1.05
0.10449562624612632,-0.1568579876193509,9.88004834997157,-0.007825291498413834,0.023066970979092064,-0.010735926297549657,1.06
-0.15077259932698117,-0.10280181522587302,9.648859843531215,-0.005852393073879727,0.008992237670888456,-0.003390839981678882,1.07
-0.06971549391658008,-0.09139925210755438,9.862307834876443,0.0013361832682207073,0.010345896897010234,0.02027702758769281,1.08
0.030945040189830665,-0.1398189602540574,9.7608573938929,-0.0034751105205970373,-0.00782876003880693,0.00995497372632098,1.09
0.09611026088021477,-0.06215822895535163,9.790868696921288,-0.003820593415944792,-0.00812727181249903,-0.005605779071087966,1.1
0.169767035383562,0.007390154871061589,9.570464981476254,0.01006024336247703,-0.009128378596285788,-0.008204242561883441,1.11
-0.16978829235183854,-0.062011836302972516,9.8067959071982,0.0006124921837304023,-0.005101573648952875,0.0012550977851015273,1.12
-0.08299907029500204,-0.10912149360507267,9.785764631516617,0.013250609068495236,-0.0053600895901943614,-0.006148515940591954,1.1300000000000001
0.06614573265933148,0.09504484637677088,9.775727298907585,-7.960124193652662e-05,0.009514895084659216,0.0017488846170632098,1.1400000000000001
-0.14338871665295227,0.08582305639420287,9.788479508216811,-0.004608278526154262,0.016487269596072142,-0.0009673751458231996,1.1500000000000001
0.210637835758117,-0.005262465765714776,9.868623438611602,0.0008415123056851725,-0.003969958634107017,0.008229393072654379,1.16
0.03624450975242913,-0.034402796188284034,9.918641324572864,-0.0023717297685968385,-0.009404301114081014,-0.008697873449182835,1.17
0.044133457093386855,-0.12581098561022824,9.775508167842661,0.0040809825321783625,-0.01643442057836207,-0.010803155822987947,1.18
0.13193197684075583,-0.10125230598265511,9.718668010406347,-0.003109605942064222,-0.00861162454409711,0.028814461599312925,1.19
0.04699865641223448,-0.004196797574720488,9.76651076741337,-0.0007739279941721975,-0.012271520771384199,-0.0012727290665854702,1.2
-0.1430818950125945,-0.048634709648202795,9.889441739000395,-0.00373714178447351,-0.0027524797452941575,0.014075861074647,1.21
-0.018870290742549412,0.031284538576545395,9.844488313613972,0.016892109431350517,0.002307062995826007,-0.0027199925327040107,1.22
0.0732974892992324,-0.240801926087995,9.607947719851033,0.005812930840950823,0.0038944869151209217,0.0005170603502765837,1.23
0.11510564854209578,0.04042494819291459,9.788418854369196,-0.0035116506805289442,-0.01947188006168563,0.0010164818642669996,1.24
-0.06751279718292018,0.06213886227783227,9.690711141038584,0.009789340368743623,-0.001371401592659171,-0.01964293216879758,1.25
-0.0398046242441008,0.0858827082833295,9.812491467929995,0.005461819283463588,-0.002563512536980614,0.0036005885863242223,1.26
0.014189059064157232,0.08968664603513996,9.753685518840618,-0.014583039937322358,0.014398163183360672,0.002204025161788184,1.27
0.03255747650453935,0.05301577913498495,9.949785057981689,-0.0008286901159888202,-0.005411480746591704,0.013916245880732961,1.28
-0.03456765693437206,0.013015507275825039,9.944681850226905,0.010664170649442592,0.00938895469131537,0.0124634877742051,1.29
0.20863689884689574,0.04039552256079709,9.803114427716503,-0.0003017898097702607,-0.006250121149738005,0.0015682075527399528,1.3
0.04930513545131804,0.028255301631576843,9.883810215177558,0.00758031559894646,-0.007135672374271183,-0.005342855222655591,1.31
0.02385223363601846,0.04513510692192051,9.754300977854228,0.005211295509149945,-0.005651878391254893,0.020157607616370293,1.32
0.06712176541955368,0.09351073326125824,9.923851574840397,-0.008639601685474648,0.0036002227772023603,-0.0015670819800456546,1.33
-0.016632339272058292,-0.12728415089353423,9.747999709542167,0.0014745352366996192,-0.01377086196486047,-0.008622440597795367,1.34
0.09663788309689851,0.025489398756189715,9.920729759325456,0.010750954044455056,-0.0101484426000634,-0.00633873063572095,1.35
0.060139030553012535,-0.026340782838021826,9.916042602731943,-0.0064925266917455265,-0.003059558351112544,-0.015041133401614937,1.36
0.000706958928794869,0.04101866853616811,9.80798664841523,0.017580621287945707,0.0058999418443585515,-0.011054401485734082,1.37
0.011759121820102207,-0.1176382640499857,9.649246566841828,-0.01115069115300161,-0.014342907464517267,-0.0015248072499848987,1.3800000000000001
-0.0656738606898905,-0.05686977303208778,9.908473188378256,-0.003393265597978403,-0.01280914368073178,-0.0024844150820625384,1.3900000000000001
-0.012149809884106466,-0.05733907283960615,9.9462469096534,-0.006319855421952916,0.004674533847913436,0.011365158456772568,1.4000000000000001
-0.17794767610631174,-0.0547066039865407,9.804802831357721,-0.013054163626298495,0.010767504714002639,0.002350442504659161,1.41
0.13182389742122866,0.07959519277879479,10.018117314411038,0.00967168123788448,-0.006921334847442984,0.0013094317912953422,1.42
0.027863566730606856,-0.0874244617106082,9.680886292440507,-0.01841056097053991,5.6858714938294476e-05,-0.020171423648990657,1.43
0.09254289573924523,0.21659897428820904,9.72513463660778,0.01393024147750463,0.008542611390530593,0.00446263322332047,1.44
0.01359346739311023,0.11967965190649743,9.876390272516288,-0.01167400765145414,0.0019757050606477155,0.0021492481239195173,1.45
-0.1396944619766767,-0.047541424184681436,9.874077973575307,0.004552948883707026,0.0020356186077032865,0.00841629112924795,1.46
-0.05424907948372535,-0.0482253952404169,9.942473176053976,-0.0007073341715598926,-0.004283237527390859,0.0048523049918357194,1.47
-0.12652753313734894,-0.23117237902058566,9.956905100778991,-0.01951814256379753,0.009891562167580505,0.0037627247001662508,1.48
-0.0030147652960613286,0.040773540128494545,9.887975546506325,4.9292257135655035e-05,0.006962992445556608,-0.008448355805870044,1.49
-0.10133427503470414,0.08413114699050181,9.646849308481684,0.0011030890444288274,-0.010736737274440675,0.0023951597622517214,1.5
0.12127525876628505,-0.14512366250634115,10.077419512721388,0.011008024021251464,0.0037187050604838836,0.01668388456419236,1.51
0.00422297649121317,-0.059811277843298497,9.984423939117013,-0.005107931264552128,-0.007739519728822911,0.007215163129664291,1.52
-0.05894612281982652,-0.024848307941453755,10.004015475283394,-0.013762190455760166,-0.019307035938015433,0.010315833116495062,1.53
0.05011888585058755,-0.001683852276318246,9.781229556783677,0.0018924353091907512,0.0013235550974850239,0.009874027631609338,1.54
-0.0009793728687547312,-0.029221676019371392,9.870506610398422,0.0002835831932607289,-0.008089291345794128,0.002613358492944243,1.55
-0.10114850946300463,0.057306843341262764,9.8799869612836,-0.01100595707735396,-0.015359918784349358,-0.004568448773817457,1.56
-0.13509996163521093,0.10853354274680234,9.764820509798387,-0.006213957353343704,0.008025244000451084,-0.008656098189033165,1.57
0.2645073075155953,0.12729471054462577,9.783405144854429,0.006426835228963699,-0.005070233785826931,-0.0139711925155119,1.58
-0.011469268817735044,-0.1327870532365688,9.771601191690749,0.003286591501208465,0.0009503538726707732,-0.009321759841290318,1.59
-0.11248942029579741,-0.11362749621739106,9.776440735999559,-0.008200585818677698,-0.002388255246077023,0.0004220443040192286,1.6
-0.14542913472156754,0.0798370530567929,9.93939284923954,-0.010825800675861239,-0.011986092747660992,0.007818539019128748,1.61
0.06103866070884554,-0.011447345377052496,9.630939072490696,0.013578221989794408,0.0005896467357568208,-0.011538202321145268,1.62
0.10836698962784946,-0.08236275083960184,9.689560110274451,-0.009622810868411298,0.009006990674824758,0.034695433938719177,1.6300000000000001
-0.04306092306209215,-0.1934404693753471,9.85485595638903,-0.002226864710567645,0.00796957030098562,0.004517772172436907,1.6400000000000001
-0.046220929866933186,-0.08327775889172916,9.718883560435351,0.0009613225948206962,0.0007192111847570575,-0.016660112616445528,1.6500000000000001
-0.13809557192580227,-0.008339122955579354,9.74957039564844,0.0012762058602605896,0.0035485675829253567,-0.018850468055599107,1.6600000000000001
0.083683272799853,-0.25421591204908595,9.834296549468805,0.005623897387023147,-0.005959212560169004,-0.004508854875719507,1.67
0.03579828547429443,-0.01775572315292709,9.692072134965162,-0.01996176946364493,-0.035993042995934116,-0.007357992054162905,1.68
-0.08234142014207681,-0.036670587973382573,9.853664547517276,-0.013402143299315349,0.0029252102451873155,-0.010256983219318625,1.69
0.0031870784338227046,0.07856385240558163,9.830852855173237,-0.0037589249020501055,0.015813265847939816,0.005349987095333314,1.7
-0.1392406155072731,-0.08506175128056698,9.683359590882059,0.0027939612397870324,0.004635818634881828,0.0027779394975905266,1.71
-0.044626141498275554,0.07787895518474815,9.919506294287562,-0.0058088113149668144,-0.00040780004637675014,0.01091137940626535,1.72
0.16836651389819962,-0.09862351573601827,9.792829390950288,-0.004706155231038434,0.0021554190724542796,0.008263161751537178,1.73
-0.012319941931383395,-0.03053921900236712,9.833125828757293,-0.022024190774065394,-0.004729233661318261,-0.009386392011546913,1.74
-0.03732432993585111,0.15755520306240378,9.740348422670785,-0.009278981093788581,-0.023894790191196016,0.006464024692641427,1.75
-0.016434547409614798,-0.007586821084259634,9.98125428320644,0.014914617487604524,0.010980964575936567,-0.007894692026575304,1.76
-0.05141568315804493,-0.0318921453689076,9.73822729638745,0.007574421116321643,0.002745196824783163,-0.007654939648752059,1.77
0.21808599630667436,0.057787370794403596,9.841752524491815,0.01149424263353461,0.01463835319912061,-0.017476664012058215,1.78
0.03949698570473609,0.047415900304878716,9.968337700258378,-0.010178461994108082,0.008207143436549203,-0.015305318420940626,1.79
0.04098366327679667,-0.0841359748437136,9.644727484452211,-0.017241623231166785,-0.0015725797658010794,0.0037684543081281515,1.8
-0.0017981003879859827,0.08143400857785599,9.73487070993891,-0.0069878176690696524,-0.010136261642925524,0.007195568286595822,1.81
-0.014439472327248818,0.07853478492214427,9.875741173586045,-0.004995791108992885,0.004725018879346907,0.005839515539225031,1.82
-0.060931059943531124,-0.10805665490725853,9.996294844278104,-0.006499367459414963,0.007169511327516831,0.006525605864512613,1.83
0.18051164423084426,-0.003788880081137565,9.696105368616832,0.021956815668670086,-0.003265143054529556,0.0034776863096491095,1.84
0.055572291845796186,-0.003587946731657188,9.64418384566017,-0.007467881938080131,0.001687835927625125,-0.012815916761658058,1.85
0.1437157784399773,0.06349745883661974,9.783162839886774,0.0016942767525271619,0.005698380839258971,-0.010687434886211624,1.86
0.03494578838371881,-0.218911225582512,9.638447311928033,0.0012045381635002424,0.004213668169804566,0.0054767547925013305,1.87
-0.11034487847812224,0.02013254634663281,9.760126116496327,0.009411725347764183,-0.021984054181021787,-0.001577656964791543,1.8800000000000001
0.06564058048974143,0.23080590576315246,9.848784711055695,-0.005254479392861861,-0.01714905254136722,0.02501979855266109,1.8900000000000001
-0.01759162397530433,-0.0849639890770062,9.915420699073751,0.005053357584930561,-0.010964210310570944,-0.0013901658936428562,1.9000000000000001
0.04471251410738733,-0.0982912474239423,9.896274270397267,-0.001093362423005213,-0.013277883198191842,0.008629824296709904,1.9100000000000001
0.034376637678833734,-0.03197948517964377,9.875968972640448,0.005741638821088161,0.009082406858810333,0.013613225701677617,1.92
0.039731680955165355,0.026544010098590004,9.827121875536859,0.003184925781343083,-0.0013095702972811582,0.007143918783797011,1.93
0.1886333456907715,-0.08678873396937503,9.92231537789545,0.008672573210942548,0.007723938065138833,-0.011731575451711097,1.94
0.05557743469563188,-0.284960096165543,9.920131001539747,-0.008133935231146798,0.0008474241079338753,0.00019446239656550345,1.95
0.063252993282835,-0.21824812780141212,9.807682400665243,-0.007549331833513608,-0.009664771074651848,-0.019504098221856916,1.96
0.17375186217802052,0.11447746669277875,9.717122980029954,-0.012544579987219204,-0.007676219085461055,-0.008245697208254967,1.97
0.023283080594747332,0.004291236519866202,9.994746063129746,0.012169727251104732,-0.007735707649299779,-0.0013308126467949544,1.98
-0.11677311951861453,-0.13318383054383728,9.710844363413884,0.002625317069033788,0.005962974528364794,0.016491134857021496,1.99
-0.06640955689112818,-0.054153828358318626,9.644967883116502,0.020045977010559796,0.004525963162617101,0.005461908988538219,2.0
-0.10153917312113286,0.057540005327194846,10.020385603699081,0.008690668051970631,0.005152830923349069,0.004324035432389415,2.0100000000000002
0.04046590874157699,-0.005776293437593026,9.76736793694168,0.00768540953590585,-0.010013616721249499,-0.006252441848918925,2.02
0.20772335086239196,0.018647100860551435,9.77044001971364,-0.010762732760639966,-0.014918163192629504,-0.006848661243853375,2.0300000000000002
-0.0019682322598844203,-0.06404457760415887,9.581079170490057,0.012679412839315885,0.014543963682671975,0.018228784846638188,2.04
-0.009322029600863263,0.021973845072273318,9.906645562320962,-0.012363781562646644,-0.007960671131842921,0.007897426247130232,2.05
0.012555331370341939,-0.055099543209548296,9.684797165729606,-0.0026375800649216193,-0.009453800748352333,0.007098203820551823,2.06
0.1884705227250869,0.05962045125801663,9.908703035641773,-0.02096008481354712,0.005410472207597612,-0.017724446942500385,2.07
-0.107621260829019,0.03386116579986353,9.921827517189488,0.0025299143342394992,-0.003808538567506584,0.00019636469368862982,2.08
0.058554744929409,0.10650804975085354,9.827018011668208,-0.0032356376619914725,-0.01421332009650174,-0.009095833808195147,2.09
-0.23876360238299635,-0.05995860621034578,9.693528559281555,0.00428639026035993,-0.015018158239664724,-0.0013044593580684855,2.1
0.037613766534726076,0.13608273481065825,9.938102046247938,0.006666450693192486,-0.0055787254420262035,-0.0032128148055013423,2.11
0.024617872590846093,-0.09325323205153871,9.853104395499816,0.00045755927633153194,0.011047409165761446,0.0006696998494538797,2.12
0.015288900633313372,-0.1258915715084364,9.824987111130861,0.010107173050120377,-0.0011655218705318802,-0.004510836699735093,2.13
-0.02149349273868319,0.06812716090642032,9.852171550946911,0.008328630264236529,0.002388358375992529,0.017156822107059683,2.14
-0.06945176878013741,0.11684411363875187,9.910700106715414,0.014401137096313535,0.0166110814034864,0.022303789664243717,2.15
-0.29589006868817275,-0.15742047553077895,9.5792677513301,-0.009504709522850735,0.008336925985515806,0.005907539065383708,2.16
-0.2405438907295348,0.18604865654234676,9.640915735403764,-0.0047455803998396225,0.011111930526195152,-0.0007934655055738845,2.17
0.0009845458189524973,0.024100477329577027,9.83833123214267,-0.021408359884608513,0.00021943400380737104,0.013240122107170429,2.18
-0.08041527412666266,0.02261627025655384,9.780595649054431,0.0031193030472286337,0.005399655833391264,0.0041566466242756415,2.19
-0.1096254702573229,-0.07610535083142968,9.94899452834684,-0.002504184498352388,0.00033355592432855063,-0.008195103992168353,2.2
-0.034578927079822734,-0.1047341871443319,9.839937221549516,-0.00930401136431171,-0.0004890291434359403,0.013616264149914473,2.21
0.21420308872932226,0.03965583463503147,9.94141555976455,0.012809862171070685,0.00013639170471356203,0.007894420823889591,2.22
0.14523825964854534,0.02200971809773028,9.894266677380452,-0.003872301886817974,-0.010755362191888402,-0.007225119788464935,2.23
0.004937026421661151,0.1505214076870628,9.791070646033207,-0.014169450472927059,0.013675041259278835,0.003630520437193773,2.24
-0.136133756601056,0.11606300398171177,9.70101651960169,0.000864990333926136,0.013049155940272797,-0.01914415232936269,2.25
0.22763285842257314,0.016707059793358014,9.827387900379653,0.0011127681034576054,-0.013050577852035054,-0.004494405517710648,2.2600000000000002
0.18959974387736678,0.08761787500469581,9.612991226803896,-0.021636528991071647,0.012382815451226437,-0.017338172106305838,2.27
0.054924577771003985,-0.015142764876378684,9.827393770365662,-0.004162831743876088,-0.0021112634451462466,0.00262521817259578,2.2800000000000002
-0.15046736397414426,0.229643383157431,10.033420220734273,-0.00840774728306396,-0.007739651306134194,-0.006547148680620533,2.29
-0.003173935416716458,0.07696198576399382,9.806885618418056,0.00459683665095696,0.010042412389820229,-0.007420548502714389,2.3000000000000003
-0.10237295714686623,-0.2831083003393415,9.699682293692735,0.0021827319681320184,0.013483553834778436,-0.014590170739623683,2.31
0.1130719089795478,0.2028581731471297,9.765015256225832,-0.005574622431880786,-0.02667125120492742,0.00326146667619507,2.32
-0.029765764865488972,0.06637373112487364,9.812118109030383,-0.011373964019450997,-0.003955936780740053,-0.0077969887947505504,2.33
0.025949853221505278,-0.07084336327767642,9.859573876991444,0.004717030302150881,0.008444367632704414,-0.007899647904978224,2.34
-0.04324014922486268,0.07681665350540842,9.721058535080607,-0.00327558296167764,0.005887171308840985,0.006559771259918744,2.35
0.08262766887458549,-0.25867203015933776,9.723345722412086,-0.015129079878929997,-0.015373207332299488,0.002371467112326644,2.36
0.01910929966199648,0.0015737668892881525,9.847396813863858,0.010409214889681311,-0.006520259012216526,-7.447520356401044e-05,2.37
0.03851878586685341,0.07807984560545576,9.859931410077456,0.001034221879371657,-0.00404489195274231,0.00545870532453005,2.38
-0.01811842560929313,-0.09514676755115586,9.759176997526069,-0.012088083816391383,0.0028269964435810833,-0.0016992920662623895,2.39
-0.05337767180478297,-0.009542117511453618,9.886063107611083,-0.0004252056963542059,-0.00806880601821367,-0.0026286522640683522,2.4
-0.07565679220890253,0.01905600822952448,9.738923981591263,0.0033580125456049935,-0.004916374765913585,-0.001898203860265723,2.41
-0.13218659676068858,0.054579537874042565,9.84401165757063,-0.004737344531243619,0.02833466487853028,-0.0038048280222613183,2.42
-0.00911539533727431,-0.043815828140689836,9.80638588883358,0.0041891398461352675,0.0035775348048529727,0.02037761257648887,2.43
-0.036120922802909405,0.09153835104576777,9.7397381096019,0.0024951323766904407,0.006606197266999677,-0.011370409504135327,2.44
0.12913374718475923,-0.048231896714020076,9.787272720216967,-0.005854375891331341,0.0038587566673853432,-0.027558315043517814,2.45
0.012993865128184094,0.04460749018179001,9.754068931325033,-0.004979378573367813,-0.01447589316900358,0.010833494224328397,2.46
-0.03719543874186317,0.031081500088608494,9.821654657549974,0.0009521674905250995,-0.013961981464616498,0.01569121077829308,2.47
-0.02790290083319994,-0.04005084545688283,9.69843364998646,0.01034112907692624,7.769857053845279e-05,-0.011184194722003157,2.48
0.2452720926690812,0.00608438620736058,9.744690189403304,-0.01794484829153332,-0.0009083346647354712,0.01910146858708016,2.49
0.13375776316768637,0.013994493029634784,9.723719838765719,-0.011770150017606854,0.002342885184661625,-0.014137652743379268,2.5
0.020001602546657907,0.0004068048188306357,9.859067050442556,-0.002629860583069435,0.01741685059468042,0.00555709058262038,2.5100000000000002
0.024393079137376678,-0.011017634781571868,9.847453876097859,0.005596777552742005,-0.0021022357100722055,0.005611898427459501,2.52
0.07909284391502451,-0.1621508244369655,9.916673822967539,0.0012495138760490001,0.006074472357337799,0.009177539067936828,2.5300000000000002
-0.04831758130540435,0.046831396751594125,9.613812228945923,0.013372409852874325,0.006755656444101392,0.0012460727560290184,2.54
-0.058954543744091106,0.0010626376463510245,9.985583879424569,-0.009050492826276872,0.000959205619140666,-0.005280267328906557,2.5500000000000003
-0.006947752462189778,0.08553351923664043,9.891534480471805,-0.00856776896605704,-0.003341872312314906,0.022292147409507114,2.56
-0.08564893520855404,0.11038474110007662,9.784020328416924,0.002408857073430737,0.0023571813074351185,-0.0023972430744265893,2.57
0.01675759479926342,-0.027481092963000192,9.708959169678073,-0.01819504204579448,-0.004306219652515839,0.0011095301095597188,2.58
-0.17050944873627139,0.10072114077141757,9.853593519200087,0.011213601280556153,-0.015134987455181454,0.0019292959390510408,2.59
0.25508410003958354,-0.1446497483017227,9.784232571283598,-0.011783563557988168,0.01146430727608858,0.004798361777593584,2.6
-0.07855044247393107,-0.1105740792010813,9.758913208839022,-0.007903610577365324,-0.018637022146417034,0.020668641558448792,2.61
0.08041557672003688,-0.07344240654047254,9.910452863319286,0.002408422740406518,0.012259058636245887,-0.006683360532439019,2.62
-0.07494451725787926,0.015537084642151292,9.681541838433935,-0.0034233510231699406,0.00949048366752015,-0.003965022313032091,2.63
-0.12744938932663052,0.033647599989321694,9.964495255565252,0.008938970495364858,-0.027277905640043256,0.006197665891052936,2.64
0.022248171949524914,0.03263163610429291,9.725869870093579,0.008021607959718749,0.01072175944277924,-0.0036468786563617086,2.65
-0.027603651637260963,0.08423565339464587,9.798978764941259,-0.0013112597533339269,-0.0003624220956173809,-0.02197857337181895,2.66
0.03594140652115039,-0.08548574286304711,9.784923601650972,0.005555822638340741,-0.0002994523751592261,-0.0020794286533332177,2.67
-0.146783439569344,0.0027934659838257333,9.854019478086828,0.003033994386214648,0.006165356650685501,-0.0015560486762386191,2.68
0.22141060342254062,0.09395470265425684,9.81308939576899,-0.01027531976314139,0.005430509598597097,-0.012332758225994531,2.69
0.06679420771588679,0.01482131496195211,9.671384616691947,0.0039542111294867165,-0.006840818557058258,0.008235375641495435,2.7
-0.010678822107547656,-0.09473259277671203,9.727082652541688,0.006237939627375134,-0.0031367240088354593,0.011271540745648234,2.71
0.11355315090080143,-0.11689866492159369,9.951206681139144,0.011290933445623586,0.0005642073342758619,-0.004628346083904606,2.72
0.024247908199833357,0.11286083222014509,9.790974939600735,-0.008532466349874179,0.025041741199627043,-0.003897181764385309,2.73
0.024822260646916238,-0.052806976410569285,9.987581125086615,0.010758932900807884,-0.0026824174208365265,-0.023228353326333186,2.74
-0.030527031155383872,0.027515676603013225,9.871935613426514,-0.0026808661634569308,0.008053542331947865,-0.013532369531938364,2.75
0.09659243760834076,-0.02897803824713103,9.720334840691285,-0.01583665108422819,-0.003927500807452264,-0.013585851410105454,2.7600000000000002
0.07535772484680775,-0.0185966574621514,9.919852943304578,0.009916563303799647,0.0017720288781270252,0.009258818800804446,2.77
0.06214844139530576,-0.07695564745238485,9.7818136894283,-0.0005624756429663137,-0.006434834941060966,0.008553595036576482,2.7800000000000002
-0.01027432326284146,0.061597091968280095,9.743596752964796,-0.006989437600295212,-0.0023814142810127635,-0.002099260804408787,2.79
0.17577420002943864,0.04621949446990435,9.868673652498229,0.014513474530596784,0.0007657819599974495,0.00788841029989967,2.8000000000000003
0.043325213369217484,-0.06293211666664732,9.654682577005246,0.010484651524271957,0.008404665483743575,0.0018723043582972452,2.81
0.16057992796609735,0.05645797869961625,9.789325268281383,0.0066328106701271814,0.0007924412196881371,-0.005628064221756559,2.82
0.016106725287521766,-0.1099097615557503,9.831035799735371,-0.005688554064958849,0.0017651224893224587,-0.007601306355186176,2.83
-0.05683125771444125,0.24870131838399448,9.897424954752811,-0.028578168982991432,0.0036503616710164763,-0.007332341123286862,2.84
0.06389694779437181,0.1301501979734052,9.772407704165762,0.009518217835620978,-0.004354859017156376,-0.007587214605155616,2.85
0.042539634480788215,-0.13240637770589928,9.858590696154948,0.016005612312857857,-0.0017420114439313508,-0.004742466521036109,2.86
0.04163534113740527,-0.07318105705892362,9.938601853201527,-0.003783056026116968,-0.01412423435235702,0.009647321718579677,2.87
-0.025824353594870043,0.16564509998595733,9.689891977499826,0.0018650362940854082,-0.0003824037890075586,0.008482927797242468,2.88
0.01054507144983897,-0.005661128859502705,9.777098404670422,0.0007761472033550463,7.097895571653377e-05,-0.005455260142642864,2.89
0.018060167845348234,-0.018322092741711347,9.813593841342565,0.0039019812127187897,0.0002035646696452772,-0.024740655313173956,2.9
0.03743138854849825,-0.017332156206878717,9.800009165922345,0.004630718650483577,0.005214251091545442,0.014000615653761149,2.91
0.030716991197112322,-0.033462532622667636,9.818931301870629,0.0015544268281349513,0.005819790711752615,-0.0003539435609590531,2.92
0.013854419671699564,0.04942576675102455,9.70738834993225,-0.000794693579667972,0.005594876210328978,0.013706597391308369,2.93
-0.123639852453194,-0.08462839506249346,9.700822702007768,-0.001958193863447406,0.00529352913069915,-0.0013105124842838105,2.94
-0.06221172467939068,0.0020449670314969435,9.904666009382797,-0.006972504468172561,0.014101474407605886,-0.0001342298960766627,2.95
-0.01042645384670227,0.1556411514002929,9.91292106930718,0.015385716637867647,0.0006642885779147808,0.005689882012186311,2.96
-0.0051301143020398374,-0.24660712334026946,9.80565196725287,0.010067030001631212,0.0011525164013241693,-0.005759032211742008,2.97
-0.04026420266279944,0.003050069880987331,9.747941445518492,0.0060888259167059715,-0.002685829224935517,-0.004152085314710648,2.98
-0.09678806919978655,0.1096800070646839,9.616590848175976,-0.0051435147570653384,0.0007767886171995768,0.00678390619302101,2.99
-0.04418086994472032,0.22787524455545252,10.045441545359836,0.021074144980321684,0.013090248204710222,-0.008681982347067676,3.0
0.026626679933532845,-0.1513857503539107,9.742235051106997,0.007106865772882615,-0.0016204705327450286,-0.0006641339778092534,3.0100000000000002
-0.12109783893008225,-0.09257773537333353,9.752444345431275,-0.0025973646837811775,-0.005082188101467509,0.0003631573831444289,3.02
-0.06657813472391858,-0.03482222336866833,9.902084173799516,-0.025962672732743858,0.009032924336562421,-0.01090502182914078,3.0300000000000002
0.029664322750202407,-0.274992194549177,9.874721037546111,-0.003909578755247219,0.012864171040385066,0.008470197478377895,3.04
0.06258866197793352,0.005942848969109094,9.96566458361643,0.005833662438119558,-0.00577250400203412,0.02058560582169723,3.0500000000000003
-0.23429827538483422,0.029026008284696914,9.802540920912566,0.00913563858047603,0.006353888222040406,-0.0009365087824270746,3.06
-0.11105429861286907,0.23438487252788587,9.750952768372079,0.005422039375852623,0.008147547230993714,-0.0023405913281730364,3.0700000000000003
-0.04712764828832372,0.20148363127355548,9.89161482461111,-0.006576100254873167,0.003772682028463352,0.02768988492520036,3.08
0.0052236685943128644,-0.10612291771064891,9.662282999909232,-0.011272685534235898,-0.0324051571363628,-0.01092438453869389,3.09
0.3143286972881055,0.10974891664411371,9.973160954773526,-0.019844336606759196,0.0032920645823938215,-0.0024790041065881267,3.1
0.09023205404722318,0.16726601612242298,9.919382369842793,0.007113026795650694,0.003302377965482881,0.004962999924889596,3.11
0.1614454830164418,0.144083052910164,9.828787759868096,-0.009615861033367753,0.01281689844015851,0.010324283387584612,3.12
-0.04368467229165153,0.08651179866776526,9.794636100285182,0.015834157999167656,0.007531921160278068,0.021341462359121564,3.13
-0.028012473613044014,-0.021262461126250517,9.699336924110844,0.011597047350017603,-0.013879847522743956,0.01807713054731987,3.14
0.0925393788783288,0.026952669174578822,9.844453411447738,-0.003288773593907144,0.007718149224933964,-0.01359337471808777,3.15
0.026212521537469557,-0.108295335369407,9.659730501357092,-0.0008981642587625134,-0.00978765985854126,0.019142901930112765,3.16
0.13074014672760004,-0.00395817033287989,9.82443122329943,0.003985261649552272,-0.012514546380396337,-0.02996991055201379,3.17
-0.007474569156892633,-0.0832348685642934,9.913165272803475,0.010581426085138497,0.013247058843318591,0.005322816920474959,3.18
0.10807152760937329,-0.09418554063901413,9.924659572837331,0.0030031665022817668,-0.0011552761645096212,-0.017649009637749177,3.19
-0.07982388122667089,0.14643825561695598,9.761992245835609,0.0020450283225848776,-0.003275664858521189,0.0019307004301724533,3.2
-0.031284873750407706,-0.187984403593113,9.857218987515768,0.0057139789994848375,0.010781724402694067,-0.003484715603422211,3.21
-0.10227458948852247,0.0926958828910682,9.927544510810973,-0.019024290739934772,0.005664551704564879,0.006358839978848434,3.22
-0.07575694316513257,0.08200351783139158,9.737182515736539,0.009469055538587005,0.003806652593017722,-0.004851391409871692,3.23
0.016048132011783452,0.09308683531421191,9.895332829991343,0.0014823596242694514,-0.010335548334829123,0.0042170169649980846,3.24
0.01697364043616514,0.0396054679633,9.947718388987562,-0.008685916162848377,-0.0044681936224916135,-0.01035490939480276,3.25
0.12753244755932844,-0.1592985129836809,9.917524316983078,-0.01619234494475548,-0.0009050402673702744,-0.0036543493335773752,3.2600000000000002
-0.13605484740913548,0.07989420616122267,9.934533795397579,-0.008330838634654234,0.002714984071823685,-0.004517016926655983,3.27
-0.046451819336937775,0.15135232851636396,9.98048109119516,-0.002176600912637003,0.01918696959709735,-0.002080849999716727,3.2800000000000002
0.016798716678020603,0.05589193519901697,9.84665877760604,0.00015750295734550445,-0.01013480071054175,0.006561477872778434,3.29
0.005640768944386693,0.03681433129539989,9.70409256155481,0.010143702078207237,0.00022143698651466476,-0.004333098475524927,3.3000000000000003
-0.009234745571553588,0.015073671151857398,9.703140619827888,-0.0012649105199531972,0.013471501382110654,0.002029062148290724,3.31
0.06433847307055962,-0.187111240318397,9.766069715907738,-0.008819597945957233,-0.004939993678924926,-0.012722443245120793,3.3200000000000003
-0.027408179542500095,0.2591703560577029,9.714918551377645,0.014350076149790277,0.00639899484595195,-0.008483761781901343,3.33
-0.08767231008914299,-0.03127776241624137,9.87044662509111,-0.0007919574643791787,-0.00023120406169519492,0.012693030045235944,3.34
0.0798433984560058,0.0986137589574577,9.792683679323785,0.003196763584972881,-0.001199385043597859,-0.015261187151250848,3.35
-0.16155449733514,0.1356982954938128,9.684934122213178,-0.007547569182691465,-0.0063010316474041966,0.016272212131227884,3.36
-0.14708118270502502,-0.012883553081048422,9.726699792805078,0.008066532848155023,0.0013750663359730479,0.0064516339262009415,3.37
-0.03707125207713057,0.01367702319949791,9.867667815071878,-0.0073497349985905585,0.026437382639149645,0.007871765954525687,3.38
-0.03156236626163407,0.05887841108167329,9.836429793472574,-0.0031071760825565633,0.017060879412081755,-0.012886909056936274,3.39
0.003108064275900178,0.01009791741252529,9.837398235272822,-0.002718950053334515,0.004719926983073546,-0.005793902728016076,3.4
-0.0695303773719016,-0.12773489429872228,9.800910584459194,-0.01405056307875697,-0.009979518411715488,0.0020653252133838646,3.41
0.06989186220621828,-0.011886153357784486,9.814704851464185,0.002567730770534128,-0.0007545053179518799,0.02582619590770001,3.42
-0.18726043643189105,0.026793498524985578,9.891143829715018,0.0035827391074338983,-0.005136737010405096,0.005987615600711915,3.43
0.036368787475746865,0.0027201369829164927,9.669232465849108,-0.007007585442210583,-0.020338999707486864,0.0019725678358595254,3.44
0.09216852873407835,-0.07329015153871085,9.97551729384246,0.008522818091163193,0.002721195013019563,-0.01760926336684253,3.45
0.00048701260075473084,0.15506979488194883,9.670995381039859,-0.0030027606662586803,-0.004537200631503189,0.013467021044209227,3.46
0.10009444955681751,-0.13838522632383285,9.73574464492949,-0.0009188668090289301,-0.025778538494530538,-0.0004638494906761842,3.47
0.16377233259382398,-0.13293535553997676,9.688545663194454,-0.0062598556035063984,0.02126069209402,-0.0093561717711654,3.48
0.10863924003677856,0.1494413316049709,9.983200581564391,-0.003208856610188614,-0.00766787030396775,-0.009455501946303502,3.49
-0.0815130566663096,0.07198509442956341,9.848030432438746,0.009386385160586678,-0.004619057796798893,-0.006538665494167685,3.5
-0.09070256772994806,0.09105882153658991,9.735367669547912,-0.01045647861994627,0.014334135343796673,0.016893520463657094,3.5100000000000002
-0.06358820505473485,0.07989669346178012,9.823630991073419,-0.0001798853273636931,-0.0047702904873019696,-0.009340384866998539,3.52
-0.12535532864729848,-0.010282506201839207,9.731564676746542,-0.010871645018122728,0.0009182173991541759,0.00849511051569486,3.5300000000000002
0.258171033976994,0.02638285875843914,9.70385694513367,0.0033038518158100185,0.0057898315950969574,0.00012685420809569375,3.54
0.07013592486323263,0.008122264106788254,9.837947649411936,-0.009778600460464608,0.002831416124004972,-0.00479486720996128,3.5500000000000003
-0.024026449407887035,-0.02089493461684014,9.786824308828153,0.005523376723249242,0.0070332106274129105,0.00280172112394085,3.56
0.07524384067217042,0.12343336424864482,9.683343449913023,-0.0030225859799948617,0.002306191009941087,0.01611800558318057,3.5700000000000003
-0.0012716627878148225,-0.06794966576621418,9.802168268370705,0.00620199397924237,0.0017527129652914674,0.008833132036373634,3.58
-0.07488746416443436,-0.029589314724212182,9.75071304361551,0.0028534694489960066,-0.015191724874292137,0.0004535326283886398,3.59
-0.13669647017380174,-0.055919613282047004,9.882234681159206,0.02078271078729947,0.004351001308592098,0.0013305290317119872,3.6
0.09869199468059411,0.10946429066430603,9.791645378617742,-0.009737271425284801,0.017155020586920144,0.011587423017468639,3.61
-0.15569601890389595,-0.010240425705975421,9.773346863309506,-0.0028628313219582003,0.0020543429881170476,-0.00295837637041932,3.62
-0.10526011438007583,-0.06421331798385185,9.673203769406099,-2.1637668839162433e-05,-0.014532464569291992,0.0099434944810972,3.63
-0.1921079854853059,-0.10993490788147947,9.72800978134106,0.014450329108652824,-0.008910550292563803,-0.013289857086980068,3.64
0.17242631799099103,-0.09647607084641897,9.7335163428558,-0.01088910960412849,0.005185118251655219,0.006787915230679499,3.65
-0.07191083830404325,0.04059827599766464,9.918632455565103,0.010007816614855945,-0.007378879374503254,-0.00507679662752101,3.66
-0.06222183639289789,-0.12828056867672483,9.930362405637622,0.00558131337988222,0.0019731922535573252,0.01062696675451023,3.67
-0.0346502116681614,-0.016759209736256147,9.813904355351486,-0.0008173344805424128,0.010495128726080728,-0.0069488974579622895,3.68
0.08201224701709739,0.00013211178557516655,9.627395259443805,-0.003991631597989429,0.0002173218202178652,-0.02325860796657557,3.69
-0.09043371687206454,-0.06330267582416972,9.69144525326415,-0.0013871338184642357,-0.007393535508234179,0.013687283106232016,3.7
-0.021835794860632998,-0.02151398001773422,9.967467353795097,-0.0020702314606642824,-0.0015351627732882326,-0.009182398337418407,3.71
0.008962283881043523,-0.08426497091696389,9.86431880137943,-0.0008416797590187447,0.012911269904603336,-0.0003672561562694699,3.72
0.14334806349737042,0.03682875197090524,9.946894334111144,0.012483209177820528,-0.0156154241480866,0.007958225444868948,3.73
-0.12570995716966085,-0.08315034169896268,9.80780652973256,0.004042408502335656,-0.0031354184872103602,0.00542272393329055,3.74
-0.10095495881615402,0.09373029131684804,9.63857674360361,0.009675803201829727,0.02094157211200001,0.017477729814541067,3.75
0.041828538866111126,0.08391320695220822,9.863356173735013,-0.0016149282776194678,-0.013207535012502781,0.00243415418802719,3.7600000000000002
0.2135693208450411,-0.15533846866785203,10.047312345003455,0.021444756749693112,0.02298915288646767,0.022601471501672844,3.77
0.03736337937997777,-0.022497345862332783,9.730009174267092,-0.005861847477015259,-0.003149565461375518,-0.019901855446314107,3.7800000000000002
-0.10227289112500025,-0.03375358033026882,9.577125875736492,-0.009730616273282804,0.0018753678218826483,-0.018663066745122883,3.79
0.08672985927590016,0.09839011473314964,9.754118768604304,-0.014391371856956298,-0.011128736800375936,-0.02529010576496393,3.8000000000000003
0.026763934458848195,-0.17042106392151316,9.943517560479076,-0.025322689856656217,-0.006732013831102913,-0.010477613624752975,3.81
-0.00935020927132791,0.05007062607131423,9.956169290514687,0.005491313840284637,-0.007870920450928586,-0.008232342928474015,3.8200000000000003
-0.03772045906754861,0.005040185155198808,9.749218612069743,0.007237868689656783,-0.0037455891422902457,-0.00025084181229620753,3.83
0.28920973897724495,-0.2829765925120166,9.933049230681323,-0.00010165421013359127,-0.006577116377406551,0.007719109929610358,3.84
0.06644389625985568,-0.17131818654105394,9.787463494745014,0.006396690575643488,-0.004432294768877623,0.00219688668271807,3.85
0.052187210433985554,0.15543290044765318,9.824667575281712,-0.012169748431761976,0.006076190992652191,-0.007472495058206513,3.86
-0.03118136855381866,0.05375022224372758,9.599079565650085,0.005053088201885074,0.004155201345125351,-0.0007681536794278438,3.87
-0.17318849334656558,0.08558472511799475,9.745537970023333,-2.379267458377127e-05,0.00011044812864071345,-0.021243117603712378,3.88
-0.003736047476575209,-0.10657758651365155,9.943454598260844,0.004071854469503088,0.017024807560954393,-0.010435790259021496,3.89
-0.16231420526963602,0.11030935208066868,9.859645248705293,-0.004090056634673127,-0.015617733612997267,-0.013277917770116955,3.9
0.02710412714433257,-0.004719721791957931,9.880886682576932,0.004356793928752343,0.013311957649014662,0.011162109819669402,3.91
0.0923192263125957,-0.06307414949733801,9.734172754774892,-0.0077776200594939626,-0.010452032692969246,-0.00018449419162714354,3.92
-0.04882940369857594,0.06478596730743973,9.795436084199512,0.0009681579760444509,-0.007541372639753558,0.002965802690298984,3.93
-0.06729373695678713,-0.12164113127323808,9.85107755517502,0.010140554964574227,-0.0030352416372129627,0.014745999027319082,3.94
-0.10863248085630997,0.0002451620874548186,9.707550489301681,-0.008846891953263849,0.003055054420117439,0.0014033568530337987,3.95
0.015387521698433514,-0.05030332032710754,9.656631664904081,0.016928337572087736,-0.002347320634788085,0.0032847748465421327,3.96
0.07134875116649768,-0.22151045808110217,9.83466149662605,-0.007859306018449658,-0.01290165599015298,0.005092191013261699,3.97
0.0605363843996855,-0.09664843165328213,9.676431195917155,0.01259744012104117,-0.0033694812801833,0.005837593161884478,3.98
-0.21365252279520602,-0.05628395461659036,9.719268377288515,0.0012393159229534812,-0.013639371336336303,0.0180249948781561,3.99
0.0009011366139924899,0.1802287838662744,9.727037908467487,0.003924100266666951,0.01141009461061947,-0.0008790940210372066,4.0
0.0529691711062574,0.1334198038760586,9.88770824168433,0.015384570221565698,-0.004481640678233885,-0.003009164069208364,4.01
0.09123481978709733,0.026540574664608088,9.581315884261304,-9.546110343093229e-05,0.007675246114070429,-0.005368542991281716,4.0200000000000005
-0.02840391867401817,-0.024005668600363992,9.84903328361279,-0.014584416855985364,0.00974023195513318,0.01055780441057542,4.03
0.1073208992101542,-0.08584939430991446,9.818041944632558,0.011281847650628297,0.00018162075022499537,-0.0027256838998104198,4.04
0.1633791690179654,-0.14844493406072598,9.75071091768131,0.005018372356479175,0.008409085062809747,-0.0132538964652574,4.05
0.031379398475030205,-0.09926771863926608,9.894219611812476,-0.010235410322444778,-0.0014909728358820078,-0.005516468349113726,4.0600000000000005
-0.015863282521601112,-0.08121309931329082,9.652688912860603,-0.010025552742930688,0.009496937731679684,0.0076325203706711225,4.07
-0.0683041779643582,-0.16491357612663804,9.802883792394626,-0.014390367702958071,0.014320690922529352,0.012221537921498661,4.08
-0.12475391435297312,0.06543435336369693,9.796589383196325,0.006507052784055358,-0.00483159160498656,8.297974993805972e-05,4.09
-0.09914191255528405,0.046337208938123715,9.82599555760415,-0.0042813903806902314,-0.020228508953795445,-0.0008726314913191885,4.1
0.21013967799372552,-0.09756719550934863,9.834521653770375,-6.444003121771271e-05,-0.005669490253303354,-0.007203279546271272,4.11
-0.07916343092080333,0.08867655083223769,9.676308984000753,-0.002175777225062803,-0.017263925627602518,-0.012277601032756059,4.12
-0.21522210965571664,0.03405366108763259,9.812942727774214,-0.014042323345327947,0.00384085751486625,-0.007225249644687153,4.13
0.03984092718940478,-0.24505134324796432,9.70631175810664,0.0030193361019445336,0.003932576431849854,0.011157531909674468,4.14
-0.10067591411482253,-0.1855116086844316,9.80982472510979,0.004633025072328489,-0.0006748914852511463,0.001509794513633074,4.15
0.05661964298472604,-0.013855584301280874,9.772615342881116,0.007714246928010973,0.004435412219393938,0.013400464138194419,4.16
0.01849881500256632,-0.06052816315136897,9.754480696130813,0.001065045154673607,0.0006488859184422537,0.006717520397776739,4.17
-0.03424998568982629,-0.1596476450529816,9.894430714132238,-0.006049193412083986,-0.002720135027887611,0.01701863548975276,4.18
0.030285954009054594,0.00827640204566991,9.859580088969391,0.006974300694854047,0.006721317210626076,0.015812697244920012,4.19
0.05945926321786826,0.060644604063011975,9.590179913697568,-0.01772728703281552,0.010940932526585968,-0.011669566167506763,4.2
-0.12684357475048916,-0.06989424773983817,9.77671256412973,-0.007355763713485619,-0.012024777917842618,-0.0036569884646534536,4.21
-0.04169953841622394,-0.05928675017201011,9.86910326323681,-0.0018595214937362355,0.01291312734043252,0.00956206759070842,4.22
0.10950018159742912,-0.12040636013161338,9.777888363576896,0.012712752528305029,-0.006674265323044076,-0.01257526830936607,4.23
-0.21514362503031773,0.115189454670913,9.85983092013712,-0.0007143949367136999,-0.006238504416566989,-0.004826338536907488,4.24
-0.07052108096147619,-0.11891240699443911,9.819494226214788,-0.003266285318959203,-0.012840952186235662,-0.00775275444896347,4.25
0.19706971836686932,0.026951875612260107,9.593525365425263,-0.004173808260258154,0.013248249190627354,0.006318834876086182,4.26
0.025988886764316606,0.05309235524838483,9.749936254320758,0.0026010499368243167,0.006001275981076491,0.006051504752068493,4.2700000000000005
0.03574184799591244,-0.028675200761179583,9.81262906521609,-0.0015859603210473473,-0.016473579688599718,-0.004860355467952929,4.28
0.16974313625371107,-0.06075992639856451,9.762651597099739,0.00560007554324486,0.004924344855780226,-0.0015964078535617432,4.29
0.044402868695956166,0.04612297838907553,9.799779612657524,0.008883199556448085,0.001764901772276291,-0.0016345887805934698,4.3
-0.022544754653383688,0.053696261539342205,9.861915399804367,0.02002461535508101,0.0010979100235109774,-0.02169131497916665,4.3100000000000005
-0.026601876931651305,-0.023419016370269358,9.791834185404126,-0.00026709924872052613,-0.004122599880837397,-0.014246319888177691,4.32
-0.0584578446497509,0.07504255798752278,9.810857461521044,-0.0005009270320124495,0.006211214170072702,-0.004519053881063863,4.33
0.006770102421034763,-0.1959091194794571,9.746484429830018,0.003425585066709723,0.004387749905828528,-0.0005578787580640815,4.34
-0.0655864202148877,0.1637716416461439,9.764000260202305,-0.007724812331667235,0.005824859797647064,0.00473942394438822,4.3500000000000005
-0.058163117016823855,0.056887417068224366,9.902937262333651,0.009147901019828295,0.005092882995696982,9.408745803495595e-05,4.36
0.08651068729279697,-0.02505112699512263,9.693075887818257,-0.010522621112535536,-0.002168146109883542,-0.003261109172764782,4.37
-0.0514638413925131,0.047917275524773296,9.873155978145673,-0.005714468611350122,-0.0035203578211380183,-0.0014814561101239674,4.38
0.10092593544130993,0.010688230337355116,9.80982157969827,0.009265521773789332,-0.005308671117370263,0.012293024307746734,4.39
0.0705301773738782,0.11680839885283381,9.732857182567141,0.004718376583144762,-0.0021509523323168336,-0.011346030029185708,4.4
-0.055735099179573325,-0.03637996175872507,9.778500352728125,0.012522895667556364,0.004432939475169742,-0.008089105618995557,4.41
0.11082026954028545,-0.10130009325072989,9.683649124631271,0.003940978278613573,0.005372914732819877,0.012769155906669036,4.42
0.00816105208411723,-0.10189765939244062,9.820887761304304,-4.971949962016259e-07,-0.003750200378948482,0.004953022339100099,4.43
-0.11110754384249735,-0.12400092215639696,9.793051025081287,0.009072885607824802,0.002062039590322009,0.0011229867248887537,4.44
-0.1273533626749703,-0.08711461873990546,9.893452446537434,-0.01527305036008738,0.009053505137734471,0.0009382976641913488,4.45
-0.07600350416597378,0.06421497602783986,9.71176481512472,-0.008998337962050584,0.01720605084631026,-0.011036314076962973,4.46
0.008966273906329042,-0.19613216169436312,9.811249058398927,-0.010567454262874268,-0.00665291744745963,-0.0024921604938740517,4.47
0.02320874746289233,-0.0986837869130336,9.732532230986779,-0.002954892318927631,-0.006364963132768,-0.013434933192828026,4.48
0.03734042648844508,0.10248760900202199,9.645985728458024,-0.0067814553587612686,0.008329172515042204,-0.009680117152186139,4.49
-0.2383800423498169,-0.14503284826641769,9.898497182124354,-0.009464507662177634,0.000326630711075512,0.008559070086245908,4.5
-0.03649268928488799,-0.055341336507568006,9.873996413273774,-0.006409848965704409,0.009874278669199986,0.009343114709093934,4.51
0.14806096419623824,0.03276651285127651,9.815740337747528,0.002372692458498955,0.017289961074085234,0.016416498145184397,4.5200000000000005
0.04089318555534155,-0.02632081477633413,9.78439434570116,-0.004561993033946902,-0.0006204139649435369,-0.01917294641100773,4.53
0.06792909545717189,0.04681409541230428,9.80899302510887,0.012360821788936943,-0.0059321634261381515,0.0006028085799146648,4.54
-0.10824028179876864,-0.013416062186621334,9.70611340617311,-0.006955370756017835,0.010200561544477123,0.02065394144183173,4.55
0.07609962270655182,-0.25295727444353905,9.800666746221145,-0.016844799550161146,0.011915692415673196,0.0034303953380736057,4.5600000000000005
-0.015949835322997607,0.024234681990037005,9.790909973703313,-0.0003539894930831475,0.01329657212366498,0.002063282966772792,4.57
-0.08673523418358817,0.04109398494056522,9.77189600308491,0.004267123289552139,-0.017685141610849484,0.01318472554254343,4.58
-0.034806807046253246,-0.08763185602579202,9.964728354135923,-0.0019277863668130555,-0.015312228932960432,0.00030871811464794335,4.59
-0.018333081655099906,0.030457229691132032,9.716187815944929,0.011314279037886043,0.008444650699345255,0.013447925969034682,4.6000000000000005
0.16061130801891188,-0.09894334646601384,9.70054989957442,0.0028967975409939424,-0.007145553500551905,0.010018279797043584,4.61
0.03316589018080041,-0.04833125451791384,9.991492161179195,0.0015031944416869034,0.010275782096580326,-0.01854167241216414,4.62
-0.1536153240212829,-0.03758223487816525,9.938863011977677,0.008820519924840299,0.027727667597748064,-0.0029814466187898132,4.63
0.1709793787660551,0.07664469905588761,9.93425282611656,0.004673216768893253,0.008409399143190093,0.010216772636832546,4.64
-0.15757597744257126,-0.11723496412799826,9.68243926661528,0.0011365930057519768,0.0015840402862875064,0.0005468951278684136,4.65
0.1285481877087565,0.041257492174969844,9.838684116473104,0.012422131615261274,0.0023971563859740814,-0.0009230115798718354,4.66
-0.08074013447012605,-0.08228938729538672,9.714489529943457,-0.01013590698894115,0.006795901015629531,0.024901544079837988,4.67
0.04469676596189728,-0.03374215189934987,9.794211919513922,-0.008934592658291907,0.005966148801052749,-0.013091482765328207,4.68
0.011832737867613677,-0.018038731226348356,9.882802834176058,0.007664438376243905,0.005724290669068266,-0.002902948770010286,4.69
0.07721580758667819,-0.04891526094609025,9.789519497663287,0.004491604071008277,0.013528414296072065,-0.002884533503919988,4.7
0.0075263525130531755,-0.00977897846942088,9.812508015070206,0.008053328816835723,-0.005070141163595794,0.0027388657764205074,4.71
0.05562341477061843,0.02933494419671045,9.723580429713168,0.005045060423750462,-0.001163210755869191,-0.022192800989505185,4.72
0.01237097805344291,-0.14323330303667872,9.999487309827616,0.010340685666584193,-0.007062624566811793,-0.01198600698416046,4.73
-0.008330604387874306,0.04504214690686481,9.714504509943076,0.0042606189208573885,0.0016217096424809678,-0.006496210712115814,4.74
-0.11483103600999867,0.11220468022291614,9.894650357998703,-0.009897177820327398,-0.0010353343721200968,-0.005245341080942073,4.75
0.17049803674665692,0.10701411266312577,9.628502893509596,0.02950953113706933,0.0014791334794118727,0.013524690431831451,4.76
0.06854601646950834,0.028695222349030367,9.776989417729581,-0.006953177188917474,0.001070636783442749,-0.010462424953417806,4.7700000000000005
-0.03317063412111765,-0.13163258900364702,9.687972615680728,-0.01833754072520182,-0.01634295423321974,0.002707767683382737,4.78
-0.02017565279013004,-0.22265589206834033,9.80068619355404,0.008307364421663301,-0.013306764948575666,-0.0004904164742336192,4.79
-0.15835533680202651,0.07810488490756844,9.863920524591299,0.000775795501674472,0.007203526792971121,-0.004380877946109404,4.8
0.10793529466739492,0.0326846252895739,10.091968907754838,-0.011261672313003235,0.000562271956464636,-0.012725615466540892,4.8100000000000005
-0.042060839845879966,0.10553521113014497,9.807459278589157,0.004545566685872648,0.003550968150937766,-0.012087908301567946,4.82
-0.017029671948132815,-0.13810169165096445,10.027411385180194,-0.004066291684125143,-0.0029796670585238516,-0.011498640028804645,4.83
-0.24542001837897276,0.041937162328120337,9.842884111377938,0.012296601367708344,-0.0037862021604458964,-0.0012958308986950218,4.84
0.0840685555045293,0.09286988951209418,9.784313956144626,0.0015949698561807878,-0.0025493904130727296,0.004562157913987308,4.8500000000000005
-0.04914827008334999,0.004332326274110701,9.827644397698343,0.006146638697832989,-0.0052629185544264545,-0.01684176441386212,4.86
-0.26895670612487416,0.06890333558376709,9.84541306753574,-0.0005908545380271205,-0.015223859530259622,0.002329063082295613,4.87
0.022748273678841805,0.0882109005454072,9.793700830556682,0.010274263293614659,0.0036568040689518373,0.007862807014199948,4.88
-0.0975144406680857,0.06989679443596963,9.673612053452187,0.00124387864331318,-0.006112007013187659,0.014330161101191813,4.89
0.07975064276749644,0.03028601912171416,9.913281291387397,0.014576691745513239,-0.0053564002378478125,0.008443662493169884,4.9
0.06665617403044442,0.11796176057198915,9.837384789626702,0.019169697876208352,0.0028168016623144492,-0.006549226856033163,4.91
0.013452027707295361,-0.11546319378508044,9.721717635809311,-0.006239030475888036,0.02342181691755893,0.004915877030277225,4.92
0.012162146453845016,0.027037051952532032,9.870394667543303,-0.010878905685148916,-0.0017159666663788462,-0.007784260406895829,4.93
-0.17176485781305506,0.09015782465978528,9.689843453594452,0.011683733826751816,0.003598618955295717,0.0026328271119193626,4.94
0.02617581551948558,-0.008341456154230103,9.931453266969847,-0.009849080049640415,0.00468381814871674,-0.006170600927754299,4.95
0.09342103300544496,-0.16459191680231255,9.795764915746936,-0.001008162147095097,-0.00029631680577709866,0.0026897614267491206,4.96
0.03632219956583441,0.03321410209516234,9.841327516153417,0.007353142868461686,0.005078956970097846,0.003069653228661373,4.97
0.04423044030239884,-0.0006957283402935586,9.717067885804546,-0.001959490625891396,0.0049734683239368105,-0.014052429955234445,4.98
0.0079735664202713,0.08090929703696229,9.828498183545255,-0.0019898288155864386,-0.010563033608475348,-0.019881503951923358,4.99
0.10854608236986306,-0.1262355481333497,9.76826991381214,0.010404827263175383,0.004382064742442062,-0.011119076516257757,5.0
-0.05289923651077869,-0.03944047187244812,9.7782452177178,-0.008232974483284368,0.010933574963169553,0.009131083966244038,5.01
0.045547242037606815,-0.12610141830427465,10.015278626829897,0.008279694539437409,0.011901007222673897,0.026066663060598416,5.0200000000000005
-0.14714870530370508,0.11499532601442614,9.906508092745009,0.007855147376109418,0.006812831036420805,-0.014804693139011593,5.03
0.07531590530058145,-0.04347342365055411,9.83887053326676,0.009304103266762575,-0.0004005270282507469,-0.017400717821225233,5.04
0.07511949694586642,0.029679338367227966,9.931670300897762,0.0029573912881881927,-0.00848637324893148,0.004991685202644482,5.05
0.19386630465215882,-0.1816611545091717,9.632705376046205,-0.009051686984867822,-0.003914986917919298,0.004441086833219963,5.0600000000000005
0.10742139367965234,0.052719219252192986,9.663395662919486,0.0018640250716166632,-0.00092712090287799,-0.024742061865047946,5.07
0.06902242841250313,0.09246995937277226,9.859631459006259,0.007495447622675834,-0.012716966733906016,0.0048097496071377605,5.08
0.08854018659593205,-0.07644444289556848,9.687263876414221,0.0002559974959522141,0.009629716110682519,0.001976280474900373,5.09
-0.027924720793662816,0.207518990061552,9.836410905518818,-0.002515075312950057,0.0004868132725627908,0.011131393145887026,5.1000000000000005
0.0369193126187231,0.1672480238577962,9.746100203778447,-0.0013572391521238672,0.011583810203886167,-0.007470330029808319,5.11
0.09587087066907785,-0.06012927166978388,9.833583036785766,0.0017591032004339055,0.006850198504872438,-0.013765845828169572,5.12
0.13090469084920459,-0.04575434160834338,9.736020732471845,-0.0070302547236606805,-0.0021657711367382817,0.00029543815520066794,5.13
-0.1542782602082466,0.1405302859774938,9.7419209017647,0.013951947100541703,-0.004898646141152768,-0.011019489617752379,5.14
0.1683047620135413,0.06404256626838827,9.925905352492263,0.011413138345871135,-0.0032669353021837697,0.010842513188937681,5.15
0.10810256508448786,0.12391447533086973,9.732101815135719,-0.011686424736624812,0.00747794660010978,-0.009894002051796379,5.16
0.05097971096071992,-0.10243109647295814,9.758008053425952,0.00576048713058762,6.08057080197007e-05,-0.0005117025553382611,5.17
-0.009385854670474912,-0.037977100188235136,10.053958402849371,0.001989850534636274,0.014095973372707056,0.02278608627403313,5.18
0.09890536615898296,-0.017016823120621364,9.877032036185245,0.006900565781030607,0.0065993612478593205,0.0019925323407302066,5.19
-0.1959953755166437,-0.03944871822007078,9.772985237247003,-0.008998005942604996,-0.004051053081292768,-0.0024873257014876417,5.2
-0.01844090837753522,-0.03387133519107524,9.948587079536791,-0.01211697168932436,-0.002212447390436994,0.010495417443218634,5.21
0.04698658296623454,-0.05149415854868577,9.664793347587162,0.01075935206789866,-0.005007045567551923,-0.014058848347909334,5.22
0.03246080009928875,0.013718668249953403,9.844217231515545,0.0010497769505544575,0.0011145659522925231,0.006208271690416564,5.23
0.02770748658308732,0.047154773430947206,9.83638346788046,0.014637363784021265,0.009763542939249211,0.002530786580841574,5.24
0.28413222293117024,0.0940839521284198,9.718994449622866,0.004667251467243011,-0.0050385439178601285,-0.010542077387536078,5.25
-0.008815225443427738,-0.04816487881701542,9.618066382763079,-0.006567057154706566,-0.010959218931865944,-0.0015923351775649372,5.26
0.15407367107244974,-0.0003786854074391822,10.198773238591045,-0.01493023098429878,-0.0023379526069491996,-0.014606915565274303,5.2700000000000005
-0.01990340839491063,0.04080143604437555,9.725345606639985,0.0007294116085162472,0.0011243374507943547,0.01420495475158696,5.28
0.18994907025868957,0.09938110885814529,9.753749869903935,-0.018571611444387095,-0.016141231916078434,0.004283337679721995,5.29
0.05888353224104566,0.04643068144184448,9.847140653708811,-0.0007688480123565336,-0.0020862279925474604,-0.00038935797359479144,5.3
0.07888286829686764,0.2123653540191083,9.821144531606937,-0.01586978155117339,-0.011366268908573405,-0.011494258168443738,5.3100000000000005
0.15209631713885974,0.026512106070072372,10.01112409978091,0.0037587814525427633,-0.016328810736165055,0.014009086691711001,5.32
-0.06959828694538277,0.02678504837312535,9.681693416131658,-0.004297999018844749,0.004619189907712198,0.005118021841331469,5.33
0.012993249804891688,0.07121863721480155,9.50548957608962,0.01608488900723661,-0.01414561161707204,-0.00015504450427616755,5.34
0.10620392465331446,-0.0556636417861793,9.66809334160694,0.00710252843227451,-0.01791972999626717,-0.003724301223198175,5.3500000000000005
0.004494450634429096,-0.016694129502957476,9.795625974481998,-0.00635644980422738,0.009637965674949577,-0.005646557031869128,5.36
-0.06304130701447502,0.04356518423368777,9.82284776063704,-0.011871417467839554,0.012549341787291373,-0.013970110366420057,5.37
0.026228567281840937,0.0954728177847447,10.04840943211967,0.008183625968463984,0.010245829175346308,-0.010737650177357092,5.38
0.021446072460216344,-0.02034754422024122,9.83650288260623,0.0017265916570760448,-0.012749340876320443,0.00450954435507612,5.39
-0.046382961219801434,-0.009862001028843721,9.800690607575534,-0.01919777102321758,0.017181655035861488,0.003658315318495423,5.4
-0.079418493241225,-0.05239390116934711,9.864648353850635,0.006962944104517662,0.018380136128572182,0.0014842335687099036,5.41
-0.006639858253844596,-0.024773322544267604,9.723346359872442,0.014836855615117,0.005890544099053877,-0.0072649029383019415,5.42
0.2058954291703747,0.060364724276294114,9.939914400518198,-0.00874385473545664,-0.01249220294271328,0.012324062775175088,5.43
0.2064752503571676,-0.15480052182378756,9.931129875379453,0.0013529073349270514,-0.015692409006480567,0.0008279647235815392,5.44
0.043574174410030114,-0.035373858599632824,9.940536448872482,-0.001567656705685545,0.0008013494442058377,-0.01033373731251002,5.45
0.0010784032766439568,-0.11250287512300426,9.838323938263796,0.0022508649868814077,0.005358733541762064,0.024631226488742,5.46
-0.05386155181226279,0.02943797029218111,9.783052672812525,-0.00900963602744255,0.0008988088868203923,0.016388697999465292,5.47
-0.10549266026760669,0.012315460664449133,9.807254701547722,0.0038044114758674637,-0.005574357853786646,0.013423919297514344,5.48
0.0749681685167193,-0.17259765834488577,9.84847828712063,0.012151313670943365,-0.0005792052933718691,0.01072724225089893,5.49
-0.04974192852699888,-0.00783639108684967,9.781273590570212,0.0033313728721546393,-0.0032774517009424666,-0.001016316007543904,5.5
-0.026994861126419984,-0.09999353177128323,9.797021856190117,-0.0003769626453151897,0.014355025295947808,-0.009193322059722939,5.51
-0.03690480904376391,0.049444268947335446,9.988255182321982,-0.005977663076506421,-0.009723223245018436,-0.02287221168851318,5.5200000000000005
-0.19459061641200523,-0.002015464885256149,9.64226794344245,-0.008208675017421993,-0.015703543458149324,0.00765478185219036,5.53
0.19065390708733887,-0.011090496598069866,9.505405856352409,-0.004378574015793623,0.013538833523314163,0.01283216580796156,5.54
0.018118778424761603,0.06107114130142465,9.805982957882593,-0.01159997235315998,-0.010740423131622783,0.013457406627711072,5.55
-0.005643343833407246,0.07103200811236389,9.691126525951816,0.004068011798726678,0.00206203453441343,-0.012364712527704614,5.5600000000000005
-0.10317785207598747,-0.011870762111944138,9.742372533742877,-0.005396511511155605,-0.0006503170921708805,0.004895209754421536,5.57
-0.009288080550492862,0.11378276926312261,9.724588920563956,0.005672271758889815,-0.0016753975737054721,-0.006041346504398288,5.58
0.04493663590904302,-0.056645403774758685,9.915284870019324,0.01028919500679512,-0.004916589076951523,0.003248477083345481,5.59
0.057413023789448375,0.11698689620061253,9.81053212073973,0.012489632378847138,0.006677126474759715,-0.0028276640534559004,5.6000000000000005
0.003363238528926357,0.1868508252278448,9.764676330617885,-0.00738220008012545,-0.003720363963672856,-0.029243021122017265,5.61
0.14426920374574115,-0.07947360379545484,9.785693461234779,0.006825298559439457,0.01514405946470437,-0.00403032254534351,5.62
-0.08857041895373147,-0.14413314575742348,9.997263863740468,0.0007477387995636215,-0.007046239178958212,0.007170164399843965,5.63
0.01983893502289736,-0.08663357656779988,9.713426893988238,-0.00126916930355467,-0.011812850033835377,-0.011388862683093923,5.64
-0.012392683815263041,0.2405816275316941,9.62981137677859,-0.010988877935875526,-0.014867930958984485,-0.009771352001198256,5.65
-0.024585961864687658,-0.16039177760713502,9.769950685104964,0.0033997174489381133,-0.008706125298983784,0.00682375350427054,5.66
0.03388775003517163,-0.005184904776555869,9.762814675470528,-0.005714083438878869,-0.006912240002017534,0.017918933946470046,5.67
0.040983439538327775,0.032109095270228004,9.637498773958258,-0.010824904020182841,-0.011535418119684334,0.019468154709199218,5.68
0.006958273020232599,-0.1524288950940992,9.873093001750812,-0.0009020945989016453,-6.32333261184981e-05,0.005899434913276078,5.69
0.047096081220356856,0.21631593174267835,9.894325016754983,-0.0009439497250625083,-0.0036727151995817327,0.0073534757644270615,5.7
-0.07459205390129273,0.09459833985467515,9.668724645865293,-0.0029318723234718386,-0.01867883336062317,0.0014788695851071525,5.71
0.10052682183321607,-0.06272260163263882,9.760559888774209,0.00019795266912375016,-0.010879245191007485,-0.015228059852209342,5.72
-0.04936757493780056,0.0965142712792906,9.80913751911474,0.000977071925223834,-0.005824466748544951,0.010926599987834983,5.73
-0.08958091759470735,0.013015731273112067,9.865599874321065,-0.012508572288850333,0.00897901911477165,-0.001668242815904004,5.74
-0.11782419181282117,-0.04316410450053989,9.91322514826417,0.0071712191936613165,0.011137955302275453,0.014886706728302319,5.75
-0.020513276015076392,0.058959990578995904,9.803655147335814,0.0035722042511554097,0.00325572390377668,-0.0020572875558905017,5.76
-0.02697384945347228,0.08706612391568985,9.70491715033398,-0.0009409760295844534,-0.00118792257848894,-0.010081266239000915,5.7700000000000005
-0.11404010034580121,-0.1033745990160579,9.72319606775603,0.009657607282803455,0.0060839247011104285,-0.0036645584419087184,5.78
-0.03711884730065496,-0.04728260273068962,9.789261166602536,-0.00553495249729767,0.004133989204646919,0.0021563374648753677,5.79
0.17273999814009083,0.048484059861185924,9.852099367875413,-0.0210551747567186,0.007743142614546777,-0.0064353604597240386,5.8
-0.14850759530485555,-0.04097196217928903,9.914814470352395,0.007542468556292655,-0.004609432664661231,0.0006373181907411758,5.8100000000000005
0.12145893471365717,-0.03588843382840042,9.77469609878389,-0.017059331536159864,0.009904876542186296,0.019377164173757542,5.82
0.1446035633384219,-0.03910686259823295,9.74791371184889,-0.015059990104619937,0.0030890451836277566,0.00859191335173683,5.83
0.2558304134559251,0.13619373069436247,9.84731764022238,0.014461645721436696,0.005427990184192836,0.015548599207403152,5.84
0.022196146884753052,-0.1343950619383217,9.732425841220557,0.01787032977126815,-0.001972338332989554,-0.02098290198733135,5.8500000000000005
-0.09347282813555896,0.00663288428944375,9.86022238629473,-0.014769938703990158,-0.003115017755144648,-0.001256328817651772,5.86
-0.05239278408582603,0.03157620637713018,9.759189882889375,0.0032164787533888227,0.01174182094137833,-0.007127487164444161,5.87
-0.026423169626007034,0.1264883156069492,9.813856061649036,0.0019455000446311256,0.014127313398464538,0.002458072703789393,5.88
-0.007024718243445649,-0.15234003479925434,9.664565382680495,0.00627187104232799,-0.0008141813745791971,0.004262280259634643,5.89
0.11786937951740058,0.080029649966488,9.666983141820756,0.00563422793611641,-0.011849374725368119,-0.008126656202561198,5.9
0.04700092648366141,-0.1986253068938703,9.849588303645971,-0.00506950539291617,-0.0023634176418949634,-0.016576205407210078,5.91
0.06969859347960046,0.03281777518390812,9.886819199418383,0.008815476940176854,0.015637706829785353,0.0074543149664998065,5.92
-0.03013169542864111,-0.011402678873593036,9.743754722638267,-0.013196845980421583,-0.0015516727573035621,0.001456420283151367,5.93
0.056820704063855865,-0.12774607002092617,9.722595699721035,0.009310740827059863,0.006538568689718892,-0.0015332751370632036,5.94
-0.051940619988792805,-0.04763728415623035,9.744038541481657,-0.006044422298854051,-0.015446117330913172,-0.0005322839745749714,5.95
0.013921310013530242,-0.051958291242941906,9.822808744913837,0.010292567773588501,0.004232152158345589,-0.006056315152518547,5.96
-0.0433083085278667,0.07324628650489014,9.82844476646569,-0.001336827196386599,0.007973589093763996,-0.003904691657627301,5.97
-0.07977320870964887,0.023804913392678585,9.657831617606984,0.006640149225774533,0.004651764265446428,0.0022373388251656994,5.98
0.07111646295793617,-0.13479279639911854,9.637433679098747,-0.00879725860026082,-0.005839935031310839,0.007252351607362118,5.99
0.0050282490183248645,-0.05268708554574635,9.80359438856774,0.010904902062397004,0.015170570844587204,0.006484108057150089,6.0
-0.08676456771428927,-0.03989383776986205,9.9650904695273,0.005394275694874527,0.015078990630617184,0.002185290500901229,6.01
0.016941398542253544,0.061001573827743676,9.86101960793281,-0.008790671520099045,-0.0006741167044646383,-0.019813824610148637,6.0200000000000005
-0.10469533170649731,0.052251379718796134,9.808028202241609,0.0007732311208504619,0.013423301379229723,-0.007486256255549607,6.03
-0.0595185826996405,-0.050048454307713125,9.781841760931396,-0.001300787682368523,0.001987975044287705,0.020685968569400567,6.04
0.1000073891577126,-0.07053798476036884,9.850998947125182,-0.0010813713824182208,-0.018081644072193995,-0.011632162105832995,6.05
-0.02669385049747654,0.16141851608236504,9.840286217297688,0.006021962324195575,0.013714801053061864,-0.0047872255716963595,6.0600000000000005
-0.13335495941801975,0.13028519190347984,9.818681687625883,0.0056768763521313674,0.0015662140155965547,-0.0015940971896004747,6.07
0.016264005360505037,-0.1215166568235206,9.781093976462522,-0.0047000173639237695,0.004117434203171343,0.0027904129529811843,6.08
-0.1689736674974393,0.062376520131407334,9.760586194574653,0.003280364108502976,-0.016113972764654975,-0.015645587362825782,6.09
-0.10839618193484257,-0.0075762301747530295,9.789035782644609,0.0006435615357510679,-0.005257752560145219,-0.008812882908584814,6.1000000000000005
0.02047632076595813,-0.06922248585928248,9.976928699865475,0.005192898136637968,-0.012783780026891041,-0.0013286646547359202,6.11
-0.015361615605808352,-0.05189670259608262,9.794705176872506,0.0033986194951649523,0.012649708464938167,-0.014471008500839962,6.12
0.08760867085275843,-0.06513328371646274,9.730159178153857,0.006932877482450139,-0.02364510822169913,0.002430004124411534,6.13
0.042518096377313054,0.11766199111253228,9.683744905108917,-0.0004707263168479303,0.01636290468509575,0.007669585924097574,6.140000000000001
-0.062438181550166554,-0.19299979617830024,9.934436368323114,0.010490446685118652,0.0037249320244517508,0.014480652546200887,6.15
-0.07124713120869455,0.16573801267363542,9.784570633305975,0.002360146115606834,-0.007571533366718252,0.012781791189893062,6.16
0.15808382499461587,-0.13259700464007845,9.814809451438377,-0.00671661599985104,-0.003328263530525189,-0.00043657651634307695,6.17
0.006589515734901504,-0.09963696926721577,9.527271376547098,-0.0017794993089977843,0.0038525128109809298,-0.007468030433268198,6.18
0.16940866715278735,0.0020941965157541594,9.779122423279953,-0.00882653105583152,0.02356206078881769,-0.00714378514718601,6.19
0.16884532861590662,0.08852942163797484,9.82040270968394,7.743307111444893e-05,-0.008211948135507604,0.0033280382349630583,6.2
0.00392567259910571,-0.08834724127660765,9.894576385891382,0.0028721788679136407,0.0024901171702627696,-0.013426567860470837,6.21
-0.3545749661923856,-0.07657336162319163,9.833700885899486,-0.0039250743573320725,0.003632654635080739,0.005338681939287057,6.22
0.11455267880252325,-0.18897067767447717,9.863787974256567,-0.016974322830723414,0.005063058007495946,-0.0017020073372059437,6.23
0.1931631086955386,0.1953191390504711,9.792008957974787,-0.006103147492759539,-0.0004460462575131425,-0.00819545543964473,6.24
0.21922537873301315,-0.11945102929223395,9.617648961092424,-0.009287814216668645,0.008374324043807257,0.006419518467675378,6.25
-0.017229477119354002,0.019088792160594188,9.750722735033456,-0.0075414821379395,-0.008998302870921364,-0.014341708270533646,6.26
0.05561918768023614,-0.12090911363724587,9.731484226797704,-0.0011304579112750668,-0.008273407817772784,-0.006234981284970001,6.2700000000000005
-0.10537109910001563,0.08043294672474294,9.77134151472375,0.005162591740142021,0.01163050944600283,-0.0058974604979269455,6.28
-0.18710869799424468,-0.0096518704406381,9.847727696819762,-0.00714378261743271,0.009458115911727521,-0.01273734303248933,6.29
0.010960140619763624,0.023605071434741675,9.838689876330017,-0.0012159284444328846,0.02853069945419755,-0.002239796276764697,6.3
0.004961205115797457,0.013828451348111288,9.832197674123378,0.007779891681788771,0.018653287455638986,-0.009150757361217062,6.3100000000000005
0.15825705358590003,-0.1584074881548505,9.691789863393458,-0.017793980552717754,0.011865204460705929,0.00990853978245979,6.32
0.16839482406076056,-0.12614459994765634,9.849733895480192,-0.014133139367300629,-0.0028047293972003106,0.0014671305850364486,6.33
0.11552818473222087,0.1349496923694857,9.892472588418956,0.007126242619026017,0.01638868615393491,-0.004095221558317141,6.34
0.0522681108560901,0.003478854369117218,9.825491104928256,-0.0060224280448296285,0.014879481817112811,0.0033273499053615156,6.3500000000000005
0.08137407036883475,0.12128448457862545,9.942332141202943,-0.004729133666244591,0.010172608580802774,-0.010765474129533355,6.36
-0.1358424548816578,-0.0792385598481778,9.886710268534376,0.010703521442081624,-0.008426253106346785,-0.01714033474763985,6.37
-0.021806623487847423,0.018902425411642138,9.849036465524712,-0.007102711033134317,0.0023940688085062325,0.006296305053366225,6.38
0.03791207675556598,0.022272158511220025,9.944508803726935,-0.0025507315032622852,-0.023119131983167115,-0.008629878023668191,6.390000000000001
-0.0930945427511255,0.016537729263761895,9.79071895022162,-0.016802619279848743,0.012207661743390242,-0.0032429703869455116,6.4
0.038609626185865345,0.1513637582336676,9.858472621773029,-0.010339152467073334,-0.00090952127478599,0.026997644600554756,6.41
0.10391269505493567,-0.11076504060494859,9.667739284258493,-0.004069640603805557,-0.0019453935024028274,0.026387771492371054,6.42
-0.11227496287410157,0.010869566992307858,9.821347081846547,0.00799166365859155,0.013935329655885132,0.007615687992480267,6.43
0.05715450263378427,-0.11574917805052037,9.741109212525034,0.007546099237318974,-0.01286815406058349,-0.00411618407803521,6.44
-0.0010019897697330232,0.2059064220417855,9.960910684689763,-0.008129539239910298,-0.004659838663415348,-0.02039246458807461,6.45
-0.13685835006424993,0.03938383950908923,10.107534024810176,-0.022107353137265747,0.0028388991938894242,0.011828283620040079,6.46
-0.0322373576511668,0.13084895226550655,9.815734521333793,-0.008788610580191768,0.011241071817261429,0.003400866149427284,6.47
0.06265699108111239,-0.0549245983142628,9.863647362431738,0.019364365015352963,-0.014979851890165506,0.012175253815098562,6.48
0.030744228873375135,-0.02195431149952199,9.806681707604227,0.012445745551449758,-0.00835657261410827,0.014570963841494339,6.49
-0.0024482153820071482,-0.025646495764880026,9.789648808739853,0.006469639346182977,-0.01792387349229255,0.0035994381073157044,6.5
-0.03313212115798507,-0.06634098983995725,9.922684343791362,0.0018545691836153733,0.00019131325230793139,-1.092213041005225e-05,6.51
0.1689014425505804,0.11003855333474294,9.936283087400911,0.017091977341731256,0.0023656894000706583,-0.01786048567644021,6.5200000000000005
0.1928278504027624,-0.11525549820083879,9.71726306173522,-0.0097190815675174,-0.009372987888300268,0.01759906719121092,6.53
0.005290115449040378,-0.0615838691990677,9.700289220192928,-0.014326257547868062,0.014386907799564226,0.016448077662706118,6.54
0.2072808084411829,0.14730223793532668,10.066922917141854,0.0021264580238488104,0.0012521545205441801,-0.0032565432197446034,6.55
-0.002543016009024604,0.06533976405158747,9.823131620973507,-0.023716261310620105,0.00370974989826889,-0.010836753177692298,6.5600000000000005
0.061554128744782666,-0.13073470051059174,9.81890006213892,-0.0021788569906130194,-0.007691521438048726,-0.008698766181207957,6.57
-0.126291117625046,-0.06104706245144497,9.669032704423948,-0.0065043479587793135,0.00019104105288859894,0.007023635657474166,6.58
0.25724711074360695,0.0024323645568481724,9.780872887490538,0.0023276473593535534,-0.00742962027767842,-0.02388228183118928,6.59
-0.1492266397348973,0.07321213993362562,9.879472249754222,-0.009320497594837622,0.0025400902087224504,0.0016226465197432785,6.6000000000000005
0.04530148307012277,0.15571232844441216,9.904457183012504,-0.026103914294426902,0.011350019872937446,-0.0013066830112100978,6.61
-0.1283484660878523,-0.13662554702067006,9.778429991576418,-6.204836119279518e-07,-0.0019171807083722683,0.013729250715765197,6.62
6.722068869308423e-05,0.17043187303798354,9.604696861183541,-0.01797524306854582,0.0109808977882091,0.015948693112087547,6.63
-0.21779489093623705,-0.09723470355810762,9.847250467093758,-0.01021602738685107,0.01199971902952321,0.0038508988353144384,6.640000000000001
-0.13487374483474265,0.11842236717384609,9.907497779447922,-0.004498513617590162,0.002918496095779615,-0.002123384193685541,6.65
-0.0645662525586362,0.03329859378608704,9.621743976329443,-0.0015832434041674719,-0.007197667582702626,0.0023927083329193808,6.66
0.03396760033616335,0.05650200801330703,9.764809823423494,-0.0014081642229004543,0.01614948275374025,-0.007942869209087038,6.67
0.055513344814957545,-0.04598269828394853,9.76280879616865,0.012518806672086913,-0.002919041898533955,0.011570026660841731,6.68
0.030680001018719,0.04721854173283205,9.632705024230697,0.006578408839562282,-0.008846717443784737,0.008060574069510938,6.69
-0.10587412491554121,0.09313088331261346,9.739597058546284,0.008208389268170961,0.0022884190031437802,-0.008526125253131603,6.7
-0.13961302733226275,0.13989702564714987,9.679995458650128,-0.010711730251354691,0.0030593964365792604,0.019218919340063447,6.71
0.11865169636656009,0.059057742232141254,9.826058028615781,-0.002347376491188032,-0.01349713188312885,0.0007944516261050286,6.72
0.049531200000138664,0.009593496018979908,9.939511881945808,0.013362690549404962,0.014722503313573101,-0.009858801250511449,6.73
0.09410659447679422,-0.02653445099742941,9.96160955356413,0.0010797383485927087,-0.004959877060233666,-0.012678828438765118,6.74
-0.09910911361741105,0.0721600965134282,9.89629852035784,0.012930354021054696,-0.00658613898101246,0.007164109240912003,6.75
-0.14933353647628209,0.09803235145252936,9.796091416531514,0.008470153646675124,-0.005598158931752544,-0.006437050141096088,6.76
-0.046599559145160105,-0.07050060385385275,9.775230776620853,-0.003187680858521355,-0.02372277908117267,-0.005286073348313637,6.7700000000000005
0.01760040309902335,-0.17560373236028942,9.846152945890118,-0.012328891676622438,-0.0015036018017059874,-0.0029406207772980425,6.78
-0.1347268998285754,-0.04557925417795339,9.596697491826566,0.005921830541849359,-0.015213719767866903,0.01310603399049583,6.79
-0.028192274233529737,0.08734032401659571,9.715220737763406,0.010709249090379123,0.010722865487239977,-0.0073196663886198774,6.8
-0.13127452634976322,-0.030107636594197507,9.828327228448593,0.0022216745145295673,-6.221939152626855e-05,0.024598998263101253,6.8100000000000005
-0.10092736686400233,-0.04345537557930945,9.855946814436658,0.01726661797887775,-0.008222857422113716,0.014200625541068011,6.82
-0.005376213853114865,-0.038433783018244294,9.893913778407121,-0.01453297564702021,-0.00021342892483040677,0.005237891869941252,6.83
0.007151156473376011,0.09951545637112387,9.957512686654006,-0.004904076064200766,-4.5499241442405124e-05,-0.004946158485918213,6.84
-0.05846391348567595,-0.018676220157078937,9.815969867587643,0.0019230976033340367,-0.004563223491196199,0.012343555678782876,6.8500000000000005
-0.0003005811374241897,0.17668041198108703,9.738956017660362,5.339592578895514e-06,0.001256973550183319,0.010168138169954438,6.86
-0.07241371306675065,-0.019391058456826885,9.8964849748068,-0.006489334242386639,0.0038196733118542534,0.016864266515658578,6.87
0.07300126647029363,0.14242558026210414,9.62718398076768,-0.007522843843181641,-0.006224689862343972,0.0003851318744799575,6.88
-0.011694824169111592,0.07036077981360478,9.905629605177747,0.021903971797692,-0.01755224077567713,-0.015622251879357032,6.890000000000001
0.1368312490615954,0.175991538430496,9.80413972635826,0.0029389518172262042,-0.004393099275892797,0.00018005949205429726,6.9
0.012134983082167462,0.12473777597616427,9.686214415432032,0.014362942843869471,-0.009967118661989028,0.017210821421033275,6.91
-0.007089520487280603,0.060840094322111155,9.934978553650422,0.0012038320970021975,0.010901316114276827,7.436193472598267e-05,6.92
-0.15412977448709098,-0.13802390391608912,9.867142128113152,0.0029868724701531896,0.02186614495922524,0.0034121360260086224,6.93
-0.01737263891254711,-0.26435653516588914,9.857066518480195,0.004612040904954981,0.005602285488928858,0.0168956243618822,6.94
0.06338061311097154,-0.029482784930187373,9.83308169368505,-0.013233980985779655,-0.008907856021244453,0.007897753765233096,6.95
-0.06340096810705244,0.03233961882875189,9.948167536875381,0.00016612433761250284,-0.004626362347402254,-0.012660697171770976,6.96
0.017304320877356425,0.09750367411979133,9.78564263395264,0.004902923364832667,0.01030444151449185,0.0003258704020615274,6.97
-0.06718288520866636,0.011492192294737049,9.842651408921117,-0.0025569809604720647,0.002945585143273467,0.008889679881086058,6.98
-0.08587483926899303,-0.03566256268029475,9.702003230629387,-0.0017223207493296776,-0.003167586243356858,0.022675482586311416,6.99
-0.03896127335478532,-0.11109284955253958,9.667401589871446,-0.014976017626623777,-0.018131622793150507,0.000484271665775488,7.0
-0.1153731069202896,0.05940025750632092,9.721919419224726,0.017334282832428518,-0.0029020778525407683,-0.0030292236641838804,7.01
-0.06003063795231475,0.08828198732160977,9.933545835341599,-0.012673128321749258,0.0062354008621240496,-0.01708847374074286,7.0200000000000005
0.07565560993811543,-0.05557227255293728,9.888645959771548,-0.000923608320538347,-0.0020719909042002005,0.007542425710437131,7.03
0.1702323175719439,-0.05799733356191825,9.776904058504433,-0.014360402949870154,-0.0037720538059914095,-0.01637822972805578,7.04
-0.010222883082439994,-0.012105880821800051,9.827551202210858,-4.626541990843866e-05,0.0043497867933878,0.009452951225571545,7.05
0.06309542491598001,-0.07969557939983779,9.829065621636163,0.007580522951021034,-0.005773868258421517,0.01145212391825704,7.0600000000000005
-0.0034005154711759435,-0.17366752165062532,9.891421560902149,-0.005692334189855073,0.006555011059333217,0.025358009524225514,7.07
-0.11402487955620766,-0.07652396744231776,9.751015020012845,-0.008389384768959774,-0.00138212918142792,0.002067347478407546,7.08
0.2630024516822568,-0.01810413555268493,9.783986155807362,-0.022190543035630866,-0.0178573926286783,-0.012753995412310854,7.09
0.024134941954361708,0.023212656663729948,9.927286637047489,0.008612291914742639,0.0041913293911732385,-0.002257620534458543,7.1000000000000005
-0.06503651188396495,0.174026264846269,9.914901494268483,-0.0018869818183698626,0.005490190430315832,-0.008954178608284142,7.11
-0.254841205388651,0.0025965322666771356,9.738756060164064,-0.00791898357638626,0.026824031389794407,0.008179617139005769,7.12
0.013913623207175915,-0.03460533974732514,9.771996993930596,-0.0032763738447136267,-0.010390265448344135,0.0005111336509063592,7.13
0.08649764831097001,0.13145795331762616,10.001564777358356,0.014695399679790356,0.012272257442587139,-0.0184736014026434,7.140000000000001
0.10426326975137319,-0.05733414651929228,9.782849957164542,0.0096951801043554,0.0022230015999072047,-3.5627955974497286e-05,7.15
-0.07171681719660548,-0.030261546796399138,9.926144254222057,-0.0002686938963743832,-0.008859191611276228,-0.004309657857575068,7.16
0.08476256707903172,0.10511868120459832,9.663739551981047,-0.00596879377135486,0.004185702510932144,0.005451726938479177,7.17
0.05081961087218763,-0.23687894952392996,9.72852129114225,-0.018953993556637745,-0.013332499040534001,0.0129395546372423,7.18
0.11918310961217396,0.19921497651084133,9.910853003416971,-0.0097460973835947,0.005046241430812286,-0.011048732633608269,7.19
-0.08064230723194896,-0.1337826600722004,9.794527279463258,0.012032221616377254,-0.007695906858463667,0.004495393144619628,7.2
-0.005502503581616931,-0.11088920965945315,9.95778307192569,0.005699939618119757,-0.015920652775352248,-0.019041250586456556,7.21
0.12868635550559102,-0.23238636709140315,9.916499207449077,0.011346917581133294,0.00913440396070724,-0.0015752879354468375,7.22
-0.05777115147244049,-0.07748179620358871,9.886368323988052,-0.006624887550959872,0.011839633803055036,0.00794293064343761,7.23
0.1515936115453863,0.16234117447976532,9.956905216840262,0.001083313499988224,0.0007810501511495441,0.010994528121630105,7.24
0.09765447553909325,0.0018370394904225031,9.82212047036408,-0.0014090788949335828,-0.016363962566460687,-0.011494911820289578,7.25
0.04795655006207289,-0.01849452388484131,9.793716902320906,-0.01060580913668479,0.009073366459287654,-0.016610019073591237,7.26
-0.0279829075112435,-0.018915681019400665,9.928553418149685,0.0036392869240018076,-0.013523571599260471,0.008748776829306804,7.2700000000000005
-0.11276292997305559,0.22149469597071328,9.918011752693518,-0.012021924677557203,0.011228322000246871,-0.005819138122621035,7.28
-0.0675428222041418,-0.08266807541289058,9.930340963272647,0.015098888124728172,0.010485222417550377,0.006290701032129467,7.29
0.10642965516737289,-0.07870536861017095,9.964392921636918,0.005456942712121663,0.005751134714281467,-0.014212436390354204,7.3
-0.12949734964866721,2.6278176579609287e-05,9.813340057793665,0.01145181094979901,0.00932465729596789,0.007498224600584644,7.3100000000000005
0.06002108351407007,-0.20170000493071816,9.84182646698122,0.014773804170396093,0.005052142108318783,-0.0018379821276447283,7.32
-0.056949351343924204,0.1302194414705373,9.85791475782168,-0.02104568007037163,0.0071365681560800935,-0.01844241496790303,7.33
-0.01878140596340152,-0.026241134694060243,9.70980267040176,0.021135190670611478,0.012884598275499442,0.007600511964411241,7.34
0.06306063545914618,0.0575891780560309,9.87649506206353,-0.012520280091810991,-0.015141836433245504,0.0037507799137894643,7.3500000000000005
-0.03673299790320292,0.07272339327997514,9.665729722627932,-0.005020805529916239,0.01259991177328519,-0.005213543170682606,7.36
-0.12357445583340343,0.14540331644369855,9.896091847130915,0.01680927954718665,0.0193890847398307,0.003168771049485058,7.37
-0.04079971810114918,-0.03203168804386241,9.69364177063768,0.003940594317623171,0.009249536979391737,-0.002161110856843319,7.38
0.038452985311617435,0.029094797479613344,10.095653755173652,0.003677480584776412,-0.007398583162306067,-0.009864881457613,7.390000000000001
0.14240928110624537,0.04440077530438749,9.788785634008068,-0.014124496962202226,-0.010596326938884496,0.004296853006085536,7.4
0.15352651774897758,0.11617115837912834,9.78468403342138,0.010644178458153939,0.002904974871445591,-0.0010921567286564888,7.41
0.2380654611742662,-0.09920565780201777,9.784543395444217,0.0070240394541223805,0.007496268769387958,0.005666778507539378,7.42
0.009741652919238524,0.06583574939993896,9.725943111404476,-0.002078160675974228,0.01567252971004746,-0.0028915019821074655,7.43
0.044159967913093956,0.04778606768795386,9.731079389887233,-0.002639183204225336,0.009244502242349042,0.006322064871002775,7.44
0.01190868951731133,-0.029771438158922522,9.825166431508272,-0.0008470657021742136,-0.006162745188749387,0.0007371119176212606,7.45
-0.0513558974707371,-0.018183297607012268,9.826768896980887,0.00910935656608846,-0.00797515675919729,-0.006347084026302394,7.46
0.19534485461356427,-0.17244679742477875,9.878648400488848,0.010338068163658018,-0.00014418467220543135,0.009599450648658232,7.47
-0.06898316055459008,-0.013693449560074462,9.807787673249509,-0.005884852806763446,-0.009281732339100648,5.290253026219845e-05,7.48
-0.0013469158010477385,-0.038682572815120324,9.714148362112661,0.04429754498596055,-0.011840262515831795,0.006174250898409004,7.49
0.058954499599165266,0.0205122565225276,9.736232788371545,-0.0008841289916030351,-0.001865663486566439,0.0075379173768936585,7.5
-0.07136208508372803,0.004142466642750421,9.80832497796521,-0.0094016617791722,0.002167556920114041,-0.0013106643716921033,7.51
-0.16755238585180696,-0.033342070685226675,9.862295231907954,0.007021084438224712,-0.004468612824052032,0.007087391331913336,7.5200000000000005
-0.10292929733433792,0.13724196090312887,9.761627642876624,-0.003144759526863597,-0.020964227042314786,-0.015334159867171968,7.53
0.13071015602197836,0.03710728715493887,9.722311206581198,0.002079384358422885,0.00840059634632075,0.0048609366763757,7.54
0.05761549556372291,0.02950692064215455,9.994351973609557,-0.012545190925632551,-0.0011102298025520874,-0.011077254079990991,7.55
-0.0883361862659101,0.019336480347972612,9.742061608580991,-0.015514946848531613,-0.00989522609849503,-0.011384332084663447,7.5600000000000005
-0.08439043510441493,-0.12500723175059478,9.857510575932247,-0.005485544127282589,0.01014159128324432,-0.004675775836214026,7.57
0.10883389232561443,0.04557994492818679,9.82510729675391,0.002747725161993043,0.0022410561001710537,-0.014061339716697454,7.58
0.10893955186947718,0.12099622407078664,9.729569349167393,0.00047890723151517486,0.00045394408791239407,0.01824395462287198,7.59
-0.0027728645482452165,-0.06291709002552093,10.041994695232214,-0.007025353193357661,-0.0010913543334159063,-0.011304185253313781,7.6000000000000005
0.045950084944035345,0.0796443519468375,9.838887064403842,-0.0019854999801382643,0.007160112090532564,0.007301379761415971,7.61
-0.001555856609156778,-0.1668407995767437,9.612491195185196,0.013607077219070274,0.0009253459145174059,-0.0041855464338654185,7.62
-0.031429176772850106,-0.24279652625152282,9.864431946473259,0.0027229164667515056,0.00047612737668789335,0.009537737519382326,7.63
0.12661142993480887,-0.026539625930702894,9.847245228921013,-0.0016175856946220111,0.004422550061293435,0.011112995321383845,7.640000000000001
0.041390702619853836,0.16946048823849283,9.8449293507752,-0.016011249378646723,0.002406886863750872,0.00889707181173431,7.65
-0.018883025405739474,0.035931393744183394,9.839508826541845,0.008530237063920205,-1.5187567974272663e-05,0.004241258736581225,7.66
-0.07523933671428581,-0.05737007664685226,9.781288542316872,0.0029865027765669954,0.022269106093849904,0.00213216793893114,7.67
0.05555050207196715,-0.00010846758807350217,9.64600614904339,0.00957941475070823,0.005664789614200614,0.006064514363114336,7.68
-0.012732330671395268,-0.03481949806717425,9.874763614069632,0.005237399810046243,0.015813308314521407,0.0123079263667414,7.69
-0.016098596259022813,-0.18308530821739058,9.64002116564779,-0.01658610705460408,0.0043443372832634945,-0.012785097474687528,7.7
0.06807038010545811,0.12951930780752227,9.959936759300788,0.013583061477972856,-0.006633032323449251,-0.008320986657684014,7.71
-0.03991678892794073,-0.08084731044016272,9.808859084069972,0.016261764512262557,0.013327982826004035,0.0006264289306256749,7.72
0.12800038146492698,-0.11158120863263443,9.888324318100231,-0.00972825278557183,0.008125484172671348,0.013306074244889323,7.73
0.059660394306687826,-0.1043329617906979,9.763752650594316,-0.00030328423337901806,-0.0035194158171001377,0.0005415625383377162,7.74
0.13623405421381513,-0.01170049250679993,9.686214455035097,0.0034207183248936195,-0.006218880383226484,-0.0014324991924649227,7.75
0.07796670854152538,0.019705614597785807,9.645110726097649,-0.012474496780582467,-0.0023609630246418925,-0.008951750303335974,7.76
-0.13041021240408485,-0.016349807607110634,9.815358335900191,-0.005448872360345518,-0.012073277694817341,-0.006354139784178663,7.7700000000000005
-0.1548355158368782,0.03625522876692911,9.824423412029784,-0.00015332675760983092,-0.018679905246576443,0.008767106679834954,7.78
0.15203155486069284,0.029584832545893877,9.773523301200292,0.0016340381753204233,-0.001223082309152223,0.009166057473174472,7.79
-0.07971093263813617,-0.1528357598267304,9.835082223724164,0.012470572730491807,-0.006939776031921847,-0.014519138651569044,7.8
-0.020360303896433837,0.16623390595783027,9.899739111804823,0.013397595205279682,-0.008602420786674763,0.014010991454664827,7.8100000000000005
-0.11275935832164781,-0.09559309564476037,9.976016038599052,-0.003997355793210237,-0.008900490747870454,-0.008553000233222658,7.82
0.04812016167166837,0.017204801498536752,9.665206253119049,-0.0034406878521294187,-0.01447157132606107,-0.01083542424903625,7.83
0.13820784283644758,0.016474882068839847,9.717184973917483,0.001954732987281564,-0.0013768175379306696,0.014024693277842929,7.84
-0.0750753345062558,0.22631592757300287,9.975523713958326,-0.014622449969372767,0.01008202256779676,0.008872949571345665,7.8500000000000005
0.05066838127146352,-0.00809880394051587,9.967614684570304,-0.011996657666453706,-0.014127296344557054,0.008633929133063522,7.86
0.03897777302029739,-0.012333614613593898,9.882654502531866,0.013647427382766204,0.0004279470417231249,0.009554438772765095,7.87
-0.023834552212697764,0.12932119478351475,9.845086388404942,0.0026015362365421728,-0.007545938890531642,-0.011362358019167263,7.88
-0.04905989052820517,0.15741096835177756,9.819619152017513,-0.0023552442195404343,-0.01657078531921167,0.015632227299370364,7.890000000000001
0.04464402219429231,0.0066041917963906936,9.711509147672917,-0.0020991256573446755,-0.012209623789121691,-0.014143972446620101,7.9
-0.0320859841565013,-0.04008446674614384,9.702653124875452,-0.014057760021772961,-0.0013747259289878372,-0.01439289698456865,7.91
-0.05668299639312735,0.02155651292360164,9.755219251679588,-0.0075226895920381676,0.0028032621186724303,0.007033425810867467,7.92
0.08243562632936663,-0.07666797556212107,9.773368000363869,-0.007749715544801162,-0.017256285200109966,-0.0007627755707857141,7.930000000000001
-0.18066146450151696,0.16803591420254893,9.875890516236922,0.025446266671398345,-0.021253252950062904,0.007365658963178259,7.94
0.05097730213795935,-0.14099148811749893,9.847811625900507,0.011677211618361702,0.006474798321835649,-0.007731240402132772,7.95
-0.007154272974421738,0.07009251879223591,9.869672855007396,0.0027350487062555683,0.007587453376067083,0.0072934234766888414,7.96
-0.10470425019828439,0.003143989053645186,9.793058473428779,0.002865713919385111,-0.0018610393186363713,0.017002202368242923,7.97
0.14706838168904587,-0.0426003139624705,9.687855323086191,0.0017642481400702585,-0.0024384287873391646,-0.0007073115731539848,7.98
-0.13607118734947773,0.020586769179939055,9.73549171928533,0.0002290618455315462,-0.02327309612202323,0.0017824321490563203,7.99
-0.1936423024471019,0.01774402125357497,9.763661147146179,-0.010588406687926781,-0.009378333220934738,-0.005385984606369824,8.0
0.020134388065586265,0.0016835115310290022,9.945686071110048,-0.0014339673060857182,-0.0076915027030554075,0.019888584834594224,8.01
0.0543664610630906,0.039703082925889,9.744381859386312,0.008495310647360982,-0.009244229296921622,-0.0029330786149799315,8.02
0.13343791019035034,0.0779642788276613,9.996076304347403,0.00558734173433542,0.0031700887756976443,0.002687751848845853,8.03
0.055574062795730274,-0.011839299544109783,9.728492515537543,0.0069082478433790265,-0.009001531030158213,-0.0061842528083257044,8.040000000000001
0.12920937273861358,-0.08470356825124054,9.806957925292682,0.015371241636232682,0.0025180601476490283,-0.014909077458923167,8.05
0.17581820271677523,-0.04665036139401538,9.625551490855477,0.007050809869725227,0.024064291478086208,-0.0009799016583920273,8.06
-0.04966594807313174,0.021461632802597247,9.776736048107072,0.0019168459442378614,-0.011919479788455508,0.006576242178062654,8.07
0.05095618127471281,-0.15395814750927495,9.719146587882507,0.017084541717389535,0.011332530386927693,-0.008328030755353297,8.08
0.03885038361184398,-0.14619410570258004,9.694087194761261,-0.012093174248302828,0.0013043726262107625,0.0016093246002742792,8.09
0.09886746129729214,-0.08425315414556415,9.845619621353242,0.011964113357374998,-0.020914727640822903,0.004577028065234547,8.1
0.07156640152551443,-0.020564353118398045,9.92957023844482,0.0012983639978748412,-0.003460577575840451,0.024062411070568453,8.11
-0.02967790415577992,-0.07346886352691682,9.983354318015696,-0.0050662664316726835,0.0006376812504047153,-0.008644638192463236,8.120000000000001
0.06958144809709127,0.04907754975041245,9.896504101868848,0.004733309015742844,0.0059377407973644734,-0.0006648687171838406,8.13
-0.0695299926826342,0.1350277780159854,9.890361022093634,0.0027350552472267297,0.0012558023189989625,0.0005383652941670947,8.14
-0.10508616752300455,-0.060904303384851435,9.763477323635408,0.004249376048842356,-0.002645669262499471,-0.00158228759184828,8.15
-0.054007129499244994,0.11573622851901558,9.87587060030642,0.01963807319852573,0.0038076769833519705,-0.0024552246259741547,8.16
0.0272909414636616,-0.02064636034312555,9.837015425226438,-0.02046194260561478,0.008148048633889378,-0.004200901240002128,8.17
0.07225921395553041,-0.04666852917484654,9.754570860884465,0.01885611271010534,-0.009168575539494272,0.025484546958687862,8.18
-0.03262190018876878,-0.07058962372139549,9.815492450109017,0.013623405766027438,0.00921379101474168,0.0012932885071640957,8.19
-0.0019481729676111038,-0.016646361548669813,9.787713246308778,0.006167863078117032,0.004949913147532463,-0.005283874183462748,8.2
-0.10169631491858236,-0.11320516429172388,9.639883221497136,0.0074442882035394425,-0.006072889405934432,0.006206008654438659,8.21
0.04604908593156697,0.08529656040613064,9.83967398879643,0.00456991736390056,-0.0011431352949325038,0.007940158053846411,8.22
-0.017653742173335697,0.062298473176510306,9.897528333742034,-0.00955488630127875,0.0024898814088897265,0.0052983826551336564,8.23
-0.13147315997589623,-0.13177399275890692,9.87525601977102,-0.005022367098054266,0.00216476438795985,-0.024669071063710135,8.24
0.016901897531542965,0.007585744264428609,9.840180764703724,0.020932082825031614,0.0013110013281808083,-0.004774055509595848,8.25
-0.06820251482461868,0.01937828427255471,9.797353239071159,-0.012228503655778418,-0.009858299521442817,0.0020147853881231476,8.26
-0.05829225223641468,0.05251861961046781,9.75620143991564,-0.011048028219200128,0.004198744128506427,0.03013760887920872,8.27
0.1550319343818132,0.07042822540261001,9.80228927581876,-0.0020121708973885434,0.010208395111678252,0.0073293177723808825,8.28
0.19206590537521617,-0.08157787867103833,9.783688496200824,-0.017994362029902122,-0.005992664716719382,0.003114764929567223,8.290000000000001
0.0440747234297162,0.10058956143199163,9.794231967478643,-0.023887357189977622,-0.001334248028451104,0.01191932498905877,8.3
0.07857611603423731,0.0896928776720621,9.832192687299937,0.0007533671658311374,0.004292716935845242,-0.008726623783938393,8.31
0.05373899707321816,0.08727162704996227,9.752489504932305,-0.0012581286913640568,0.011557842143542005,0.0015936713968784878,8.32
0.210030999000332,-0.09932227468354365,9.734557454166886,0.0008201667775755061,0.006052394012400157,0.010938052322232602,8.33
0.0019592322773924575,0.03545802211100804,9.841940768125665,0.013343142053767123,-0.0015796373740778686,0.011506385171858154,8.34
0.33545338600286806,0.021222224282199668,9.859696755284741,0.008202656110686083,0.009026494128615389,0.008505533871447975,8.35
-0.16980080536070635,-0.09922438895905633,9.927115850380694,-0.0017077615488906746,-0.007033816608818438,0.0020376586340563655,8.36
0.02793937042467555,-0.021141735406169863,9.610922066861006,-0.008001553944046794,-0.007853734448470522,-0.015212710000182029,8.370000000000001
0.11992707847926798,0.026685480471788193,9.899572125229422,0.010317649484395645,-0.002074736852236066,0.0027450693963685146,8.38
-0.13581484482257242,-0.1691854743285877,9.828938128754386,-0.006022130484622839,-0.008652107868027125,-0.0033856746263601903,8.39
-0.15082203146484652,-0.07453226318665383,9.678162087567241,-0.007440181349009612,0.011230477291060158,-0.001773508105541986,8.4
0.19492018970724087,0.3420670498344588,9.678376489148226,-0.0004570745863792457,0.006165951434737082,-0.0002897636127986842,8.41
0.04236821369598001,-0.1138155610846608,9.719521693529925,0.02189321640378872,0.009848935592384696,0.012044432577123612,8.42
-0.09078745021551364,0.040029029584709525,9.822653596712886,-0.025546066033640968,0.009601709371538189,-0.008328684707348882,8.43
-0.06064260905848021,0.14989748712524928,9.818496605379636,-0.0043370987948088465,-0.01358094827122844,-0.01710062961535547,8.44
0.041720021890579495,-0.12207671810324167,9.684935247580654,0.007476219860628755,-0.002116657297238401,0.012766145324110856,8.45
-0.07169993150422319,-0.14258206402977647,9.660294975907185,-0.009529635046208657,-0.011236682791777268,-0.009571619188712752,8.46
-0.004196731212429744,0.18853684982478083,9.851600359827295,-0.008181738022960574,-0.017050359750205208,0.005810987519317512,8.47
-0.03856233842861302,0.08648413207491065,9.856550411529913,-0.0030740578661282727,0.015856807463731765,-0.002834873888669261,8.48
-0.014125192872292828,-0.1581567336304933,9.944574637345555,-0.0033801356408723953,-0.002957954108872486,0.01642423734743886,8.49
-0.15372957621583086,-0.02054358978792727,9.805394411674559,-0.0011612976848881574,0.004613984590105273,0.012275723909699051,8.5
0.10429273166914527,-0.14602135314098783,9.817420646692069,0.0015476861024061605,-0.014207042442447183,-0.003396882323933392,8.51
-0.11951693329204921,-0.04984948155152086,9.699594557392276,0.013900594036286852,0.006324904980889246,-0.01199121859429502,8.52
0.08680252448290925,0.062246239581822606,9.954878703358611,0.007935377924497394,0.00013081847557484263,-0.023760242177614143,8.53
0.06580093699657626,0.0480341804973908,9.855504549089726,-0.0003916849954940702,0.03113647920776324,-0.003643603002457565,8.540000000000001
0.08030292940456318,0.1308458829965305,9.828108265725799,-0.015539369157552985,-0.003135863827933593,-0.017739902315929548,8.55
-0.1354663964649671,-0.09090401957628036,9.739372283232534,0.003479115339614564,0.0172713546938684,0.006687668314026531,8.56
0.09777680520188352,-0.12958347558987546,9.793291420591094,-0.015198196055845005,0.016160834026408215,0.014562180476186857,8.57
-0.009880457899751994,0.02183955259121536,10.056151669700832,0.011242675605459445,0.0050583197172538895,0.006358329800726247,8.58
0.08040803876542968,-0.07497802992623309,9.812472667719394,0.006541178720714449,0.004593444721572836,0.0024635949525187405,8.59
0.07636989016891226,-0.030604891430131384,9.899277947317815,0.0010446979846757381,-0.01217712309223849,0.0033981037788630044,8.6
0.0010196896930871997,-0.0216133594914912,9.686848076913256,0.00013447031081168824,-0.0010055297455723593,0.009208549648595495,8.61
-0.028141034464217368,-0.046903355803454914,9.944186383194873,0.004872058168933035,0.014266143030949936,-0.009504602204244273,8.620000000000001
0.21263354827806935,-0.08373196499293639,9.829089977785967,-0.004057672156548745,0.001578492051303518,0.007940540299766442,8.63
-0.14475953151357598,-0.060887868385563884,9.775894714237188,0.00873007736079198,-0.011459138800155158,-0.019391329529600338,8.64
-0.04799025531504714,-0.10235908004469754,9.916762800801349,0.005410763940045284,0.015320641987263644,-0.0021607556014780157,8.65
-0.13277458028577677,0.018918296195546237,9.804116487095024,0.009971445296935045,-0.012096551389714058,-0.013630116200664238,8.66
0.14182968851738015,0.2150351556236587,9.866226793763316,0.001235116904732108,-0.011149607178296638,0.018490063054697643,8.67
-0.04500950156374196,0.1377380244400509,9.864401012577542,-0.01541385042634887,0.006454676958738706,-0.000562323209183334,8.68
-0.029936365915936916,0.227423860496225,9.91489178275895,-0.007600456617736085,-0.005237779403609389,0.010022532085680862,8.69
0.08814667648157049,0.03073058158386512,9.971974434653163,-0.006930489614628424,0.004802456269557537,0.017673572470128438,8.700000000000001
-0.004343732101830686,0.13451046271862702,9.658160134677724,0.0026935041860939486,-0.006647993034538243,-0.009651843400374322,8.71
-0.025022549833852843,-0.059396221786938166,9.940799001536243,-0.004806908450807625,0.015216661639077025,0.007588609681849569,8.72
0.05022301046893515,-0.028315730377516814,9.826232617957253,0.008142285420010182,-0.019264473543721745,-0.002989297241623166,8.73
-0.08114600050475275,0.08088291512118533,9.83828458686419,-0.0024197970068086136,-0.004464881184023016,0.00027659021701731466,8.74
0.05033201779846258,-0.07163543811884845,9.830392243499045,-0.0015963954259390492,0.0007603707609202305,0.024646419863956565,8.75
-0.013925437593598404,-0.03302829079730803,9.646720276156204,-0.0009040697245235317,0.00586483259860042,0.017348905537047817,8.76
0.21619219356429717,-0.02851036430100287,9.61133474251614,0.006481595945411152,-0.007694943294889248,-0.004009094432566257,8.77
0.0012275685983429206,0.10874388075289615,9.846336679011692,0.014904065602117232,-0.008574319181432035,0.009510536222075682,8.78
-0.08326304010350014,-0.10283172178386031,9.797577419405558,-0.01766651998788289,0.02677268779054875,-0.012056160306259714,8.790000000000001
-0.04129261129322529,-0.03903840731553107,9.790902881055331,-0.0066605625315663075,-0.006479324900391354,0.004090354093071337,8.8
-0.09720353949819936,0.03809937268925355,9.749946220394273,-0.005360964116045815,2.4973254797340337e-05,0.003757881357356455,8.81
-0.07317651721272928,0.018903148295305545,9.83220418313095,0.00637881972924185,0.0015631754487032796,0.004106207509724329,8.82
0.081058544802444,-0.04843427794608671,9.75028500404561,0.012984861087557132,0.002716101442436924,-0.010006958944638938,8.83
0.016773843433955493,-0.09241457385221132,9.812915381853536,0.001650729487805112,-0.0031106378387844393,0.005322846692190146,8.84
0.012200806930637416,0.027846378048858922,9.699995414969138,0.002277407344145186,-0.021203081322174206,0.00033645769618391197,8.85
-0.11430727477511758,-0.05145421952653916,9.944043442153664,0.004228894878366162,0.013500643709389233,0.004970296788719119,8.86
-0.032346636819058715,0.04556002417192521,9.81746507213484,0.0066598119406322724,-0.017736611056504356,-0.0014540433557751289,8.870000000000001
0.039240779483418725,-0.0235640304566137,9.81362743957494,0.013876138634736232,0.015672404859186587,-0.025328774553899383,8.88
-0.09988340975629018,0.011361294419291882,9.836793855798316,0.006124991828591748,0.012446659764280152,0.010520262227843573,8.89
0.08217243740521962,0.12016780532116118,9.740632994543704,-9.737151750948967e-05,0.0015799983238393056,0.010106758996575508,8.9
-0.0031874246136464252,0.12782816062697577,9.683435498774752,0.0024083138500276095,0.0007619220559609126,0.003980299011168119,8.91
0.0062686494112854626,0.0338711329711005,9.729421923937558,0.005085886620263146,-0.0008398539405130498,0.007035202072785282,8.92
0.14897438738260746,-0.012286816879849928,9.849220185450948,0.006244979482611356,-0.012082830326003869,0.0011369862916195473,8.93
-0.0709691151756346,-0.08177109529765186,9.785561167363833,0.005235661186743706,0.014762078283037858,-0.01734612492769865,8.94
-0.13371054952870448,0.11004525265281856,9.77617249984045,0.0006194147194330473,-0.00740574189770409,0.00927131782839609,8.950000000000001
0.10926469763659788,-0.2030013180198108,9.77353770410626,0.009539365444528368,-0.007290170918651571,-0.0037713817319927428,8.96
-0.036383833194019354,0.06142311283381823,9.849217863307157,-0.006449262008140559,-0.0007001265573176426,-0.0002784789970048125,8.97
-0.1509920671058928,-0.015249998305440288,9.79378750032001,0.00114411742155385,0.003435387477102557,0.010953482869487871,8.98
0.052002161481981724,-0.01553807149056222,9.721436136324284,0.0038854523247632044,0.0006015207704718657,-0.016928572443077865,8.99
-0.011647711393548678,-0.12148640780630396,9.759324723449227,0.011530918405396313,-0.019449048917959587,0.009439715228276272,9.0
0.00325711660463799,0.10211289785578657,9.85112346627846,0.011938570121676921,-0.0010512800620915044,0.010927699087436593,9.01
0.062021671606674794,0.12258203004312146,9.788874562635938,0.005516255737133078,0.016126804602701557,-0.015871012088771074,9.02
-0.09882697734879838,0.020239947279780762,9.75192336525828,0.021757616890530625,0.007406184702449679,-0.0010736476266958253,9.03
-0.016908810786133228,-0.124945768242847,9.70344575959731,0.008654023498522538,0.014324515717132863,-0.00420815567511108,9.040000000000001
0.03752096444302393,-0.006456495639083626,9.89119482839757,0.0021630175280035976,-0.005226744792624117,-0.011013123231244005,9.05
0.027149924672882464,0.0046282381797501096,9.787470860073423,0.013062444199253705,-0.015589207649142135,0.0023150972121619936,9.06
-0.05717286919555922,0.0046180335194598715,9.997696809188577,0.011033726364950517,-0.008481269701616145,0.012031348932903425,9.07
0.06073258520304689,0.005690595921719396,9.880015038440796,0.003716912658226743,0.005608729970801843,0.009741504676115195,9.08
-0.13667428742552376,0.10797853493129997,9.906480995112592,0.0023182587400144856,0.003946570264370184,0.01660376610413847,9.09
-0.0721398814702165,0.1307741054437239,9.892010467251835,-0.015728610638736932,-0.007982204078957472,0.0007023627278232149,9.1
-0.08854163760258468,0.155586995112145,9.792960253394732,0.014925281634762094,0.0014846536339711417,-0.007698777353758837,9.11
0.032254986607372846,-0.25963189646433216,9.788140161526279,0.012503350880845341,-0.014741719852727297,-0.006480855465339421,9.120000000000001
-0.04160236990396879,-0.03925966894236152,9.750359492862517,-0.008351596224260203,-0.012830115189090613,0.002872048206837426,9.13
0.07304041795743334,-0.09774321995724293,9.780381364251662,0.007175873021164799,0.005951526316106407,0.0020693247643466177,9.14
0.024554312491186964,-0.20113173661978717,9.832938129748383,-0.011127276364307244,-0.014960676834645487,-0.008307747804543644,9.15
0.014851619724403041,-0.09190569077737427,9.750532917084945,0.008394471745821367,-0.0067259327514828885,-0.0005291118415128684,9.16
0.1147792594259683,-0.022103142965675046,9.950253775131598,0.0050913760927700355,-0.010578802584912178,0.004492452501450249,9.17
