ax,ay,az,gx,gy,gz,timestamp
0.06275540804820286,-0.0322261627253273,9.87030524082428,0.01013233417245434,-0.03473705796347151,0.01461191717453826,0.0
-0.08834724744693481,0.0056916472413877225,10.046486012864191,-0.003702772961667844,-0.006471875802200404,-0.009964345874902244,0.01
0.06922252729078808,-0.23907494492762865,9.794843834597277,-0.023324024734936572,0.0020042412142668533,-0.01236888947820039,0.02
-0.04596369404531145,-0.0151732492459012,9.833004208179396,-0.012217996830343907,0.0020987277524182704,-0.013624377112473954,0.03
0.006233328715035402,0.05499515515748241,9.688320530371415,0.00903820315771311,-0.012464320883733303,-0.0074634736804991275,0.04
-0.0007163582962367498,-0.05192575642993247,9.738667619446224,0.012551787952277611,-0.012812774265446348,-0.0027330919220616167,0.05
0.010975728248672944,-0.050962592455818,9.705940964056069,-0.0035259775332857537,-7.853820908476111e-05,-0.014486334995304977,0.06
0.0015174072620404843,0.056275136761868405,9.840192057948059,-0.006698124887626888,-0.007089616986613136,-0.008968550863267892,0.07
-0.04372747741691668,0.26914248735104507,9.766862363674866,-0.006049018027223772,0.004928770406428958,0.01170254141691494,0.08
-0.04432122879356631,0.03301405127798912,9.699024527600773,-0.01666793986232855,0.004671521315650128,-0.015579439068970833,0.09
0.10401242110605152,0.013681395483858567,9.931447376883273,-0.008283160212442804,-0.005905427272590012,-0.009161710368176378,0.1
-0.0440146937788019,-0.09942400972231372,9.847584648425793,0.011650128200989415,0.02558553944303001,0.006485342491944593,0.11
-0.020241458983056446,0.023121477732885688,9.723319331795635,-0.00226377486956929,0.00468093912259391,-0.003416640843565452,0.12
-0.11992478886671981,-0.00958391007405152,9.940059234813365,0.008624660597785392,0.008174312152631485,0.006998590050173337,0.13
-0.016524651920528488,-0.029713504238955704,9.711669045312757,0.030368015421423877,0.005481986692540104,-0.015438074220316162,0.14
0.11154120760334114,-0.004024368494469138,9.802014608334972,-0.011890489840926333,-0.005449262019589468,-0.011102760361678033,0.15
-0.002324920921357119,0.09048234238510044,9.679232706798166,0.012997088159957546,0.00925630608443604,-0.0006877377059441986,0.16
-0.026479484518061914,0.05629489576252671,9.694567999221205,0.005778975521707667,0.008446203768548181,-0.005081207676786262,0.17
0.11114452181145656,-0.028825917328262535,9.81436182358797,-0.007622883194345651,-0.007071136277283947,0.005203070546646013,0.18
0.0584457429313252,0.050973959529931834,9.72503543589445,0.013983196823890232,0.0014221944928230906,-0.0042773885048617,0.19
-0.15972340345045274,-0.022354364454276732,9.937570070881236,-0.0010285748882025334,-0.0008392210035064595,0.010907563545275778,0.2
0.059904548081304645,-0.1212350986251767,9.83176453451521,0.010151013363306245,-0.006216852579248627,-0.026793156381342744,0.21
0.1150355842891741,-0.018838971631293763,9.838375949895854,0.004694541392946133,-0.014895251867528004,-0.007659664362890393,0.22
0.10565579381400668,0.049424794030865776,9.7111152173729,-0.016470470097010116,0.01141968347473084,0.00552004091566705,0.23
0.034893291713055406,-0.011124124201580638,9.906255256257106,0.01614181916470973,0.0012746556443548685,0.015000752022125335,0.24
-0.2473117391528702,0.021154060651230013,9.830421002969235,-0.002446868769188488,-0.0017442307753825425,-0.012141946646303543,0.25
0.016434942513402162,0.06313610833475701,10.007108557559178,0.009948297122970693,0.008115296451242975,-0.009658126689186345,0.26
-0.09950615297440236,0.026229459646803333,9.717422367953326,0.007698553446669992,-0.005221099224292968,-0.01048079894967907,0.27
-0.1403234197176859,-0.07767489550314367,9.687747532121627,-0.005464973010059687,-0.023747435527105693,-0.004997272835037069,0.28
-0.15018383788874415,-0.029313660474711956,9.95313547384874,-0.0012395760156433033,0.011803609715593336,-0.00046955888323601934,0.29
-0.1314545112693915,-0.011093368671636456,9.868524856196915,0.02005524946242525,-0.0058727972191425296,-0.007188511986400351,0.3
-0.015475548100198903,-0.0929896701759684,9.961803920547698,-0.01956764386218752,0.017222964295305395,0.004439860485685973,0.31
-0.02429149962071467,-0.01295811440449502,9.856117306974332,-0.018645317814299747,-0.0024736441036923864,0.0017756082664605124,0.32
-0.1611459250975864,0.05401468581007573,9.7921121659,0.0005551937115201721,0.004172710976736814,-0.004716351272725456,0.33
-0.006059444674049487,-0.08467411126091269,9.850937094269474,-0.007023045142753589,-0.011855301979059691,0.014235940991999915,0.34
0.020373375788631392,0.04083638380094219,9.935953969976167,-0.009033630615914355,-0.016043831110116546,-0.008303608839608045,0.35000000000000003
0.084027263049113,-0.10863554649574983,9.795573631359852,-0.002142560285878861,0.005420634443350168,-0.006786885879204314,0.36
0.15197367392983663,0.07561736416653914,9.999073298306303,-0.015208476025495897,0.004575823701506144,-0.012215095345508915,0.37
0.04400222128894227,-0.062324005061274106,9.735629482040697,0.005432426151538348,0.028694480798761763,-0.0073228635949695465,0.38
-0.07107535671938624,-0.018264176324855597,9.903033689118601,0.004735625116033428,0.0014773122535322253,0.004100427373588807,0.39
-0.21792361054469334,-0.05847647725791941,9.757120724775062,0.010567064156751689,-0.020275220318181682,0.0009459050271603813,0.4
0.038505483301811694,-0.07009275323412091,9.637885165552124,0.00850818751376763,-0.0056865697944518115,0.0051532166209907896,0.41000000000000003
-0.003094951559180214,0.06488271827269769,9.83429722691117,-0.0077863390849755385,0.011978073873833813,0.015818784797914712,0.42
-0.09544628716061482,-0.05045897277166386,9.820830234174757,0.0031648483071604816,0.007898528662091375,0.0011174996181977496,0.43
-0.019908150070272523,0.04019490462637429,9.693840241477547,0.006628054676283051,0.03002469179109082,-0.0041991891646770306,0.44
0.027491844546279426,0.3040209043187249,9.85951393662716,0.006349471222872266,-0.0016298725227529226,-0.014281275012608024,0.45
0.06442950047243744,-0.20569311770723023,9.766482518346598,0.012148083285361343,0.01697492701033589,-0.01909327120202833,0.46
-0.07837517488396277,0.09073035318261032,9.93814715069699,-0.009698847540231372,-0.0024132468784360014,0.020168742978847135,0.47000000000000003
0.12131617736415844,-0.1554495437209479,9.89098679432785,0.0023401645859766245,0.012248005941906394,0.0015567879612243705,0.48
0.0676231939578523,-0.020476901569797666,9.799295672619339,-0.017217923584408018,0.0036977181013580713,0.008570157548951405,0.49
-0.15232096452161062,0.022759822124885476,9.81127735433982,-0.010083737152072126,-0.009279595008558593,0.004800004124650807,0.5
-0.08563482232855717,-0.11081701149716039,9.848720066465482,0.013407025723960096,-0.016280792591762724,0.003409869084902936,0.51
0.014045275233069483,0.005583299760287853,9.726284565587438,-0.003755107692632825,-0.007625674900131923,-0.004107446906913865,0.52
-0.18804544443492568,-0.01251717652023758,9.60134878956192,-0.0033938478168034237,-0.00814545501689666,-0.0010297277269615058,0.53
-0.05135948013436106,0.08093939302320219,9.673881077530964,0.008416612774374835,-0.010238819825906477,0.005958094598296799,0.54
0.09420080411367214,0.038480406389669417,9.895004644385345,-0.004590881268123816,0.004512452003531138,0.024467860584087717,0.55
-0.01574978902164822,0.021155409986932328,9.779751488834618,-0.005185427470086861,-0.01208260693488587,0.004914289648078622,0.56
0.0033940445823719303,-0.12652883222411748,9.746155475835664,-0.017427998320439182,-0.008733298542513325,0.023982898826258453,0.5700000000000001
-0.08735123333192224,0.0807814759168682,9.718509188065484,-0.0005144163295708007,-0.008318961644453546,-0.01344355392904842,0.58
0.15336392284619924,-0.010943852610290362,9.840071663182437,-0.0084966287453002,0.021473866675078713,0.0027557628670792944,0.59
0.02290531152368373,-0.14088290097818046,9.697264464584308,-0.009549632770141338,-0.014188577441185554,-0.0009156550838544977,0.6
0.059364136399320026,0.06088594414023,9.884731379021584,-0.018144850771581362,0.0014416017657692345,0.00047313926970260435,0.61
0.07648584654351254,-0.06696459402167708,9.782505458053574,-0.007370712586918544,0.008202012921567152,0.0017166858895306788,0.62
0.10496125133968244,0.04059099769377125,9.87730204585347,0.008039360283143154,-0.015948238210159175,0.0004325919699525465,0.63
0.007919324220163818,-0.11214042850435563,9.843795670443832,-0.005489855929281568,-0.0018285665830933908,-0.005205040529780879,0.64
-0.16417264809363064,0.07690101540128724,9.817506549775208,-0.0011545998422453176,0.009909586645527773,0.010762849438842098,0.65
-0.12597601657665777,0.07327427940095028,9.901710305170127,-0.0038877090468975267,0.008444734716750555,-0.014180357939623524,0.66
0.14647135523744567,-0.04239487217323127,9.709934373945886,-0.009462192656646096,-0.00024375434101718324,0.011659516640047328,0.67
0.06938744562780066,0.0070523989602861645,9.881103597828934,0.007862096516636252,0.004612010402191526,0.02338852877533734,0.68
0.034894321336816685,0.08231177188883698,9.670483424629749,-0.027996112281575218,0.0017912010451565162,0.009037335369011823,0.6900000000000001
0.08270534617969164,-0.15186916398327766,10.122048457657096,0.009801273047269776,0.005576007786684755,-0.016367737481022555,0.7000000000000001
0.1592630376084807,0.01745078848898402,9.949814733895076,0.00164347414459854,0.002780791940233251,0.012198456767561507,0.71
0.10646175327432661,0.1129477466544862,9.843232718970611,0.00588786810836166,0.00022153557645560235,0.012385556781234444,0.72
0.07545792606972436,0.011428702776906243,9.914107025065153,-0.006256503019746863,0.013975342063916657,0.010845566667506636,0.73
-0.0629912926958611,-0.024209041379485048,9.835539488193263,0.0015763617656998521,-0.010532463958208163,0.016436743754617563,0.74
-0.016145265004542598,-0.08916838047725238,9.789025780361943,-0.019748427679995934,-0.006154155139528938,0.0014831698171344995,0.75
-0.03820995973958862,-0.06061994222878231,9.691753654650652,-0.016708643524792188,0.02842673222457103,0.0021413686875150282,0.76
-0.20913216882857277,0.140122332364702,9.785541582592748,-0.006366641272596534,-0.014947798058483903,-0.0003442386992854421,0.77
0.044684929127308856,0.04218281343076533,9.8594007566734,-0.002798717057615727,-0.0034965536774329443,0.008506220059278506,0.78
0.12447753197540506,-0.08838613737094834,9.920921252759912,0.005303166495584009,-0.016043857518839605,0.020718651095433777,0.79
0.08811307114897599,-0.08348458433524272,9.900424439808889,0.0201766082107953,0.0005688354079295727,-0.006990795417189556,0.8
-0.1531680400659965,-0.09939844931816302,9.877133060248623,-0.005124272169014453,-0.014293961932229036,0.017326684369675417,0.81
0.036200421394078794,0.17363083280213876,9.826608161285252,-0.01089942904296116,-0.01105773687530797,0.00863716807116496,0.8200000000000001
0.022975619363537293,0.18025040786741492,9.78335723883312,0.006505774435699123,0.0003020158407942485,0.008359362568071755,0.8300000000000001
-0.03965926161871338,-0.052470899370642046,9.621055605351863,-0.012114195010316842,5.3814677030948994e-05,0.003661996600715218,0.84
-0.017515740048792274,0.06208196441254791,9.830206136926035,-0.0018060247968100336,-0.001752852238679962,-0.01143632173191848,0.85
-0.04523721186804157,0.033568803207754,9.727525122831306,0.007251505651244259,0.0003071816221447063,0.001321376463206358,0.86
-0.0009474309930209018,0.05424654077994667,9.97829502359346,0.016141725301082016,0.009564057128331103,-0.0077576061529770314,0.87
-0.029615451726007908,0.10199976232203851,9.932905781048737,-0.019305046549887687,0.007437746664353726,-0.005176200666228437,0.88
0.11527682481653866,0.11822952458327662,9.732017566745277,0.01888892768207604,-0.01935920651218203,-0.0052898965612513,0.89
-0.1721045815817454,0.027653955726152108,9.761247961345092,-0.0014615378255240098,-0.003262716714213615,0.01904214797600177,0.9
-0.19759741107854717,-0.029756860149282683,9.759231910349907,-0.014326772931302745,0.0016195829202657818,0.005123710982442183,0.91
0.03341919221882427,0.2450658309819203,9.81926576413513,-0.007887086995750543,-0.011521276785164939,0.0034181522537445387,0.92
-0.039291292370531576,0.10936797478292436,9.66081391699728,0.011997898471272882,-0.018981980736204825,0.0118901217147178,0.93
0.0477437031078048,0.03869177169904354,9.779558645375927,0.0024622725411470574,0.006405707948206681,0.002753142084228529,0.9400000000000001
0.040093469211227,-0.1275872404110424,9.891854832750301,0.006046787837223158,-0.00037163293579207517,-0.011574055505263152,0.9500000000000001
-0.09011129605003967,-0.014253625837918178,9.845264833855557,0.010090317082016687,0.00892304940025327,-0.008215071688875938,0.96
-0.01193025572700197,-0.06527743411984996,9.83766991117684,-0.013831713406875213,0.006706852460849264,0.00906861233174836,0.97
0.1433154973671583,0.10115928922048355,9.969477192151938,0.0045764830381768455,0.005538680884351439,0.002344242522605257,0.98
-0.1732396284277582,0.017081669675643295,9.799024703197848,-0.0016607723579750203,-0.013000160096779033,0.015317320753048511,0.99
-0.05537991883692009,-0.032972850187402286,9.74414033781244,0.003513788579248488,0.006642365314850421,0.008391865175942294,1.0
-0.01773712044202807,0.21132236493421283,9.984253678648603,0.012156555717034539,-0.008850416104264009,-0.0014749826859303788,1.01
0.05570144672271648,-0.08147622314497213,9.90852089330991,0.014928197583177134,-0.006383879470463549,-0.006906805684190064,1.02
0.012386879619974596,0.04221545289071013,9.722627334450875,-0.007375040861565733,0.01070105511075625,-0.003794472211110681,1.03
-0.12212757134904034,-0.048348907106225206,9.990712799265472,-0.0023928868478430873,0.008448914937127475,-0.0036943711158437644,1.04
-0.08590558131235096,0.08981052247650848,9.724824058661342,0.010823614607529477,-0.01072399358150834,-0.019536601154900576,1.05
-0.03126589102620882,0.017140787792429554,9.807135457314324,0.02026612191419495,-0.0027436316372035376,-0.021076019795903154,1.06
-0.0932181791229819,0.12037481455388158,9.833641254888498,0.016929554249165972,-0.0004738133408805908,0.008034218702212458,1.07
-0.07474055665339294,0.045999914521900075,9.793472844483063,0.006828440622650179,-0.018420492253332407,-0.005472661690821847,1.08
-0.08079052469703132,0.13416292384781212,9.726757938235151,0.010775814477446986,0.0036113185270925763,-0.0016226529223043462,1.09
-0.066650429218066,0.12085879212074097,10.005482897700563,0.013216415705428143,-0.007529551416420091,-0.011726128408703428,1.1
0.001096597222945827,0.057234679878359354,9.588416212713414,-0.02434896721283399,-0.007019924619294813,-0.009381285895214754,1.11
0.12188319113835029,-0.20226904748736574,9.834094615181186,-0.0008101524683229883,-0.00016149078416374026,0.0026712616493363727,1.12
0.055833309190157804,0.09342755137594898,9.86980322475744,0.01768228623971859,0.005781832295295192,-0.003052575583710643,1.1300000000000001
-0.06250291085457134,-0.017393829298108017,9.724620229962552,-0.0031131071528066913,-0.017361148687821536,0.004115777009103888,1.1400000000000001
0.1736843435544049,0.06548618429690349,9.793144948271669,0.0068702783880596995,0.016668717430486285,-0.008057376127035516,1.1500000000000001
-0.10313303707951448,-0.2423175263818402,9.879857722689348,0.0029083800227872113,0.006167959451635821,-0.003075464685208713,1.16
0.05024233578658163,-0.07004217032263484,9.83990992147303,-0.004011043629070934,-0.0007740697444146563,0.0009745133245314105,1.17
0.05326578649704006,-0.18699836557851857,9.657512876292211,-0.005978596576267789,-0.007293390858364714,0.0152709496323105,1.18
-0.15890630731622252,-0.029693243351390165,9.65574401079267,0.005112185432717693,-0.0018264705840496387,-0.0027595824962714016,1.19
0.04728458267664669,0.13393292137846052,9.670340740937394,-0.014038889237943216,-0.0035390992055573736,0.006839093938372099,1.2
0.07343624716292502,-0.08959922363698002,9.827257571290929,0.002322726494028141,0.005135289735191832,0.001683699864652547,1.21
-0.02155579268715254,-0.017281462381132425,9.948879868324243,-0.00811018957705206,0.005205511167379743,-0.013371627204399866,1.22
-0.018779898467656653,-0.04052484392121073,9.933402213866081,0.009933574329393685,-0.009289157832883657,0.006433828787937733,1.23
-0.07734023570687966,-0.03362646445546819,9.807522813044207,0.007729744403834068,0.0008769710156957989,0.003336099212645517,1.24
-0.017367978758174103,0.07361241539744093,9.688276498021233,-0.007977790133838673,-0.006985259158245011,0.0024569909235268046,1.25
-0.16464332688060734,0.11820139288983528,9.79271438563309,-0.0022787647171839125,-0.02007499439636796,0.002991403767210221,1.26
-0.11782760669338371,-0.03250730721837055,9.774994411036895,-0.0014405190877793451,0.002936697217661932,-0.006125657366552429,1.27
0.11345678393236379,-0.08888594136101888,9.879502789345224,0.003272747125588225,-0.004315297971245645,-0.0018807209194871778,1.28
-0.07053940870099833,-0.05758970089025228,9.745918237341645,0.006233589643310809,-0.018131709499277275,-0.009523723632093046,1.29
0.03462089584355451,-0.04170540747321195,9.72702000239084,-0.00562629286190528,-0.0034670809157710215,0.005497085976273526,1.3
-0.056275190175242,0.027616629170998525,9.611958037176946,0.0006017489434394743,0.0062169595160360015,-0.00697879992213612,1.31
-0.04466404025878476,0.07328459521496254,10.002583874603678,0.009056301416984477,0.0038907903598998216,-0.00807866874151407,1.32
-0.04003625679986817,0.18624073956095505,9.785665102080085,0.018540468426121545,0.011186825282753395,-0.0005526739376869418,1.33
0.0911705821651395,0.027611012626650305,9.716185837968581,-0.004269000020941339,-0.00596431267133305,-0.00203103544160091,1.34
-0.03068436034336629,0.15002510038411992,9.853861552970203,-0.009630661681095352,0.007648916385829927,0.019489198475450595,1.35
0.12970446500607066,0.055700577047287196,9.907283872953837,0.004263836583424576,0.003245076201755859,0.010261797456069595,1.36
0.05520201708444905,0.19542989147669143,9.811183030364756,0.00806514968414245,0.0011421358549597823,-0.007054728903104121,1.37
0.0763937044830715,0.24048321482667895,9.660499796956847,0.017337276793142953,0.014054428843976612,-0.008094472119780935,1.3800000000000001
0.14038259728752958,0.14003226463886329,9.684372318619516,0.01470569905765815,-0.0072220373626532,0.0069089036303678535,1.3900000000000001
-0.08976459612185111,-0.0029734538174941484,9.70128761449525,-0.0067937077495378575,-0.004082993085636509,0.0024082047489379687,1.4000000000000001
-0.07627133087661153,0.08106301916279948,9.738234847212523,-0.02035530684371691,-0.009297534484913555,-0.008852173140115415,1.41
0.08425932231350637,0.14214445828098107,9.817520038778929,-0.002872583237865497,0.01831611189540232,-0.0013561765794901002,1.42
-0.10486844617465836,0.06560887430159235,9.631698633844447,0.011560215466716667,-0.01235473042413304,-0.0016492507877737064,1.43
0.24939806172034512,-0.008784107085858077,9.878039656850996,0.003360591661394502,0.008063918201993604,-0.0248503816812724,1.44
0.06682623402432306,0.16610211954805823,9.99679194638209,-0.001428497648919504,0.007972250984644462,0.021051076824151044,1.45
-0.03816533227259312,-0.03328945543242322,9.906335452510048,-0.005695875868853449,0.02621673157825383,0.006658302535430126,1.46
-0.005449214370208369,0.09101543681784052,9.65502706524048,0.004823563723245083,-0.009408616827718262,-0.012503162747693971,1.47
-0.04134281713072529,-0.049081987186797016,9.86508984461588,0.008298591256917252,0.0033480827281114666,-0.007263320911766711,1.48
0.040206509986523656,0.0023884864108181113,9.855723551710774,-0.01999251408075482,-0.009474734745025314,0.006558645650793277,1.49
-0.10887142232790566,0.03347817543399061,9.80385561965129,-0.0035913730589289877,-0.011783383034961615,-0.00022704568009518846,1.5
-0.0037157527568829917,-0.1807398183592796,9.820983357267341,-0.007741528056394413,0.012039011136495319,-0.00799252253585908,1.51
-0.017147782936512333,0.02149578267681925,9.787317957729263,0.02787619267598424,0.012911461314180585,-0.012481031440822169,1.52
-0.039058788189082344,-0.0005393867498929164,9.705873090206689,0.007919493991203161,0.01064411426756045,0.0020097186654416174,1.53
-0.017931257427553488,-0.07280827468476431,9.656975622731004,-0.011343542754522037,0.006920913581927023,-0.0031696553853875716,1.54
-0.023219631588307546,-0.1107736012422319,9.841685015956058,-0.013182582869869331,-0.0015190789263378763,0.005054762789510895,1.55
0.1690469537592953,0.030256081674701785,9.87745945841313,-0.02120490365127217,-0.00043227090785445557,0.004971187240651519,1.56
-0.24225033276000532,0.13706723642508384,9.822924266013953,0.005316430567158506,-0.006103404798787495,-0.007445799413370077,1.57
-0.041158015085173166,-0.024576786706800427,9.822759791066392,-0.004002863596027623,0.00029335540992948416,-0.006016507167928073,1.58
-0.14785254722422475,-0.2534994553464145,9.853894073820738,-0.007038906167696327,0.0013888332715361934,0.002077202735774436,1.59
0.0010448752613190695,-0.050588051374749046,9.839981243368342,0.006489450788611357,0.005220353949516543,0.0031103038572076963,1.6
0.0048698433512449,0.021967019723970124,9.868886849367334,0.01145561019462575,0.015550103396453368,0.01382435175336122,1.61
-0.07363480134783942,0.10914541515587489,9.746364423510895,-0.00894914131630537,0.013941840315021478,-0.01023413471763141,1.62
-0.13305996311296722,0.26392503175142945,9.89879247056508,-0.004352144136111428,-0.006621966204388658,-0.0008645179713052744,1.6300000000000001
-0.10425794927850705,-0.03423670086393959,9.863630630347128,0.00639729083342394,0.009775648041223984,0.005649233240264535,1.6400000000000001
0.05153239350193524,0.05415573548593433,9.942417357435213,-0.01624495167788209,-0.013685261700378213,-0.00044166643421317427,1.6500000000000001
0.16994421690525696,0.0743491250113163,9.80696942729087,-0.005712855734637683,-0.009426249268772757,-0.019109738799272708,1.6600000000000001
0.13954012510879923,0.05509989793610753,9.756219877251931,-0.01744521636470174,0.011780933510714154,0.01814568210524226,1.67
0.1471940965298065,0.00996894676551052,9.961466536526665,0.005536027817261416,-0.005567704521642981,-0.0036238862743420874,1.68
-0.04799512930818645,-0.14780599643402856,9.660149332607249,-0.0019588777779818794,-0.01452755805174275,-0.005103337407550403,1.69
-0.006455797661669857,0.07160937724025095,9.926382922673369,0.011203093962046143,0.0014281951055163684,-0.004406420514361146,1.7
0.06381019908079351,0.021847967063220602,9.696771480301702,-0.008069321432945,0.0018981914759794516,0.012527824042712245,1.71
0.04857188239644594,-0.18017692965117915,9.781710120577062,0.0006550162383553193,-0.017580208112489525,-0.0015712212660430938,1.72
-0.04188994344179261,-0.07336015125216609,9.879850377429488,0.002264935057007499,-0.0028395986015922045,0.0013990685188501643,1.73
-0.19276556192389596,0.08813365313259502,9.761820863073117,-0.006407568719222795,-0.007214955462293402,-0.01078193982560089,1.74
0.08516888688937428,0.07765704839267878,9.776467651117889,-0.005196376995618125,0.006918124962691833,0.011467782488906684,1.75
-0.12439423195993048,0.056696498461923185,9.74863051339122,-0.00942321105074759,-0.0001878115845132901,0.003735225501070156,1.76
-0.1798911037619888,-0.1434770446877508,9.91920853539204,-0.0023802112514794364,-0.0015966482603828069,0.007706145399103165,1.77
0.029278686665489752,0.0623716433467649,9.798261588347398,0.0028288152872527755,-0.00021324094387294962,-0.0047054771881449705,1.78
0.10071436258309069,0.029206955080595287,9.805758552490007,-0.004354108536517978,0.0043107032019494285,-0.0018494252050423887,1.79
-0.03337936443225962,-0.12640924804618578,9.786165523827073,-0.0064816401651054045,1.955827642936908e-05,-0.007121610878657446,1.8
-0.1151072513454088,0.013066374239737489,9.801816051699724,-0.0013944821027083124,0.008096623116817959,0.012289150631627728,1.81
-0.056060824593355645,0.07582432041655418,9.919808659668808,0.0006681556213791674,-0.011583653920392447,0.0011634197375745706,1.82
0.14083810538327704,-0.014067845145358785,9.765090304990936,-0.0031541398366337807,-0.0037743316418127138,0.005760745674016878,1.83
-0.16207013258124628,-0.11315527893437705,9.776352867633292,0.006416417382930521,0.00694746014507233,0.005619613669641817,1.84
0.09946710016249491,-0.15926751916421045,9.867022776273199,0.008582682251634905,0.006106982663932567,-0.011336767345167111,1.85
-0.09243804632396713,-0.014906220225450737,10.005802369249471,-0.011190796696106316,-0.01219089100931628,0.0028175186638125962,1.86
0.10451502137828515,-0.22491225958387542,9.919443575671307,0.006036118991382922,-0.0070298234917726,-8.947181169256708e-05,1.87
0.03653393465770954,0.007295125932985889,9.772335302017273,0.017608502117958693,0.01657974408011179,0.021573811708764507,1.8800000000000001
-0.09526755606425427,0.03302778181813405,9.848588078325028,-0.0066190538024536606,0.003501459035371014,-0.004998939070938769,1.8900000000000001
-0.08499522349530825,0.025558381096474847,9.688087031042185,0.0035607089643992047,0.017006020756845264,-0.00676183968617918,1.9000000000000001
-0.25050560957165263,-0.21076071967659937,9.692169589693094,0.006860938427213236,0.008691975937981183,-0.008256197752521352,1.9100000000000001
-0.18837791018248515,0.047910845596231294,9.795495870405464,0.007834335592934127,0.004741704621185018,-0.009540136616548883,1.92
0.1491687226322069,-0.0023488098659442238,9.78976575358464,0.00485064374997115,0.0020543087113271807,0.022327819823458973,1.93
-0.1745733213686137,0.23001516838154257,9.746015716424264,-0.0007556316868965938,1.6786013959122305e-05,0.003137013694632317,1.94
0.09944546295663308,0.1983118403694628,9.820222437670882,0.02177990548804769,0.007255739721432302,-0.01585516539644984,1.95
-0.036265063275627035,-0.047500635428613096,9.831140179928648,-0.011658289395775576,0.013089635329624054,0.009896372733919762,1.96
-0.14962427999038427,-0.03301810141655163,9.807368658585242,0.01624196600411898,-0.015984457693631115,-0.002390881827291864,1.97
-0.010586618862842321,0.052926241327485184,9.80380373430439,-0.0018729745168716205,0.012942821984672044,-0.012016825779023594,1.98
-0.1280840891023859,-0.06518666606099756,9.863436068228651,-0.0007446201053028442,0.0023637217140869984,0.009899684383342173,1.99
0.22583450160109414,0.0347192701874439,9.94476972879951,0.009400393235566665,0.011973902989960818,-0.005183360334015996,2.0
-0.16624836946949328,-0.05424116418304793,9.892311148209178,0.00869423490942276,0.015474904124665668,-0.003878209261743457,2.0100000000000002
0.17385241960501788,0.02079909089867827,9.851528752394964,0.013972943806075862,0.0018742725198392907,-0.0034682565406585555,2.02
0.06863516620605165,-0.16242314178244333,9.703154674627003,-0.009435397493585249,0.014949748681731947,-0.0038954832398395067,2.0300000000000002
0.1215765439482577,0.037514527163952816,9.828701901223193,-0.008248343782910221,0.025090717290352928,0.002997609747083711,2.04
-0.24830798200781762,0.05333091949579959,9.884116475480216,0.0025071980917372055,-0.001983555453915196,-0.01807009826849022,2.05
-0.022051510982711284,0.13837484375455353,9.644604985812844,-0.0067872053991448675,0.00047639098267849455,0.011171396055647882,2.06
0.030491462807931215,0.04298739171949696,9.795917035269817,-0.021622975742210136,0.007872755918825696,0.003456681179145072,2.07
-0.05114875656887168,0.05724937609675773,9.637228060680906,0.007934403542946594,-0.011836128082208882,-0.004890840967092098,2.08
0.011994096075658163,0.09700998765871655,9.79436810685295,-0.0027885412342801164,0.00491812624585877,0.0028079548892405767,2.09
0.02456402181971888,-0.055782871833548145,9.975058087378503,0.0031326987591128582,0.007523599499653433,-0.006906713042001486,2.1
-0.057526813895160546,0.15445629779551917,9.81950802612322,-0.0025633382064618494,-0.0014993706452889144,0.0031451436195706613,2.11
0.12153597850796348,0.13031224199772065,9.742005495744845,-0.015547625673051596,-0.008456272014841004,0.02069440702456501,2.12
-0.022238476765331857,0.05827674092118164,9.851966539672164,0.00947482681370418,-0.003787345980147911,-0.003184727809029586,2.13
-0.16215391243938962,-0.06252191001810817,9.741278167528037,-0.016416228904677532,0.010407628951775428,0.0016433804907851715,2.14
-0.0008969212142132098,0.15796622432849183,9.76011107866182,-0.011909604937795306,0.0002773970585906477,-0.001066718309284703,2.15
-0.1086092723798926,0.09923372077690795,9.71401097340511,0.013341787723911785,-0.014094943598438993,0.0008141919125119813,2.16
0.03377689576754996,-0.07713326732562266,9.844200245246475,-0.009152004692181246,0.020449821677105694,0.01138337808543715,2.17
-0.24099716282045708,0.017316521825977784,10.015218638273744,-0.0034197668110479236,-0.008885397751594516,0.0022362041522033184,2.18
0.1555893236948951,-0.0009799524619740938,9.586434303884621,0.0009255314464355745,-0.017322324025221915,0.008146058356954302,2.19
0.0676643868066377,-0.03162853774779182,9.833540276211357,-0.01167631749059821,0.00957751066276778,-0.007760934583974713,2.2
-0.17350049189644517,-0.2934474689325114,9.771171086781287,-0.01844683333381077,-0.007733825581121519,-0.009616696068275902,2.21
-0.06285946760712803,0.20305709635193991,9.814909392024221,0.0222519824725314,-0.0018903506308971267,-0.005145303248591498,2.22
-0.02651194641178278,0.12150067021280034,9.739297117260922,-0.010310397488452867,0.007859824593376008,-0.008176840036608448,2.23
-0.0966828279488802,0.0029581411567461574,9.71763968868836,-0.0016700016007371416,-0.027323792222695875,0.01466918184177637,2.24
0.041727547568788284,0.09860844620447651,9.888829656332035,-0.013218864113054393,-8.293367442710067e-05,0.004929674226851217,2.25
0.008054964774254174,0.15663686295553575,9.931267013388915,-0.00026347448029614485,-0.00801783688880689,-0.0009350327733613171,2.2600000000000002
0.015874572138700766,0.05976684873357294,9.807055333806264,0.004446567059240524,-0.003495772625839838,0.011258331265887852,2.27
-0.15226926678685362,0.0037509442624489363,9.869867645777342,-0.0212881029782799,0.0034403016070474156,0.0050954920949882595,2.2800000000000002
-0.07304726567205734,-0.06172963549207468,9.754736094719098,0.005679586924383941,-0.0076924713311325235,0.009875160788652233,2.29
0.12241922536781835,0.16167594988469566,9.76682250543902,0.004673389753541706,-0.005826079532507423,-0.011971482721154152,2.3000000000000003
0.1727524945905834,0.10708825616432474,9.83575606405532,0.0019932149425881773,-0.008033861224289033,-0.01053622914553445,2.31
-0.006278454903207165,0.014453430852784027,9.795392248131344,0.01064624663779647,-0.0069061902414750236,0.006295401926471704,2.32
-0.09964319598317053,-0.07770639592434557,9.757824686460951,-0.015980779806941833,0.0006481619586823293,0.002755771304290809,2.33
0.1032703681463473,-0.01724416323564863,9.934147381346477,-0.012025640697405636,0.019091243218000598,0.023591428862608267,2.34
-0.12316823700643625,0.004139210986169652,9.728736367597431,-0.01542292507204624,0.021226171977532547,-0.01306335998769619,2.35
-0.1199257545322478,-0.05948930991485943,9.797052562808455,-0.009494820299081653,0.015541606163110568,-0.006382404687339591,2.36
0.005638267852041604,0.13557477694149966,9.79760872326322,0.006290577121170857,0.006243932490063613,0.012368250325152744,2.37
-0.16853499995072987,0.08769888640611542,9.542852486303243,0.00419066300580352,-0.01930612217078416,0.012539477288140675,2.38
-0.08468572129245748,-0.11292046303720954,9.658665112660914,0.00606245067760562,-0.011621932637431925,-0.008056184958597168,2.39
-0.1026959631988748,-0.039546401237109584,9.778768146160962,0.01177278354101857,-0.003212402024360227,0.007391882083613469,2.4
0.014536363304009004,0.11794784318569787,9.980220614720473,-0.002130359992229753,0.004572775045969189,-0.010210452339113232,2.41
0.23213740311979475,0.0794029200960267,9.820015650215062,0.005326993527402184,-0.004752883676767591,0.009635544524200786,2.42
0.09481975338179464,0.08820909056008602,9.571893866299702,0.005557619973917556,-0.0035034120964287656,-0.004256559271820824,2.43
0.05481577583063079,-0.036919973893148585,9.83046032269551,0.007586256399836584,0.009059627282206549,0.011176658575924764,2.44
-0.1139830054645929,0.0294023269469411,9.746820190128776,-0.0048118270192218605,0.002169260049170778,0.004140728992259098,2.45
-0.049851713581441935,-0.021003682984512637,9.771900461285176,-0.0020159979104800306,-0.009268580541170591,-0.004604256880619742,2.46
0.15204241883164415,0.10715559270327504,9.664258852155562,0.00988428649364371,0.0035839982327786693,-0.012268490394382926,2.47
-0.04733160689464189,-0.005077994873284631,9.816876896787619,-0.01206175661363083,0.009897683841514807,-0.00915593051719619,2.48
-0.050025861569658284,0.1425963188063902,9.842108727136965,0.0029885181575141115,-0.004741144729164564,0.002123743946239551,2.49
0.012162958431409444,-0.011003024365259718,9.834316071042531,0.01143701088069205,-0.004227868163857084,-0.00821284181532466,2.5
-0.03649308265660866,-0.10426751156318732,9.781637697381411,0.003958078970646614,-0.019031339920337478,-0.011383544747747252,2.5100000000000002
0.16048776224910885,0.0520114906969637,9.707333046571707,-0.012119767324897121,-0.008055314498435266,-0.0082949508592494,2.52
0.07701647778275797,0.20349057081555588,9.790156109339643,0.01264201953214764,-0.013049665762027308,0.01976363233152428,2.5300000000000002
0.022806068570843455,-0.03040274879565959,9.690798299316615,0.004376805814204779,-0.005969767662867709,0.006447261883291212,2.54
-0.025197910198762746,0.034529089847759674,9.764826844053603,-0.014589935258256241,0.01020193497825034,-0.015755378426216833,2.5500000000000003
0.019062914523459044,0.0236146400994569,9.81746525682452,0.00032825010585294515,0.004510341901702603,-0.009547423793503455,2.56
-0.08492424753372564,0.0581137510791243,9.931421364539334,-0.011743601922370867,0.017304727736827334,0.00048082336369990755,2.57
0.023986061996179777,0.015733351570604893,9.87755029673864,-0.0003128640202643799,-0.010318854466390002,0.017627960192295063,2.58
-0.04250991686518149,-0.2274714923854517,9.746153079167238,-0.0020451085354007813,0.0017403768962118763,0.0025137797490160842,2.59
-0.0676852861951095,-0.01547189685758347,10.084431013765911,-0.00042442618548039666,0.003345553006414108,0.0012870823314666403,2.6
-0.18986861892342644,-0.12494393170500913,9.670684316791919,0.00796771366869273,0.019798678982083425,0.0020002800221743133,2.61
-0.014506732116834628,0.041030420694675995,9.78580069175604,-0.00833675349623625,-0.007157525774603703,0.0011958736724654296,2.62
-0.18344283648092918,0.1279211707487074,9.725583575813282,0.005969522140300236,-0.0029980002934934364,-0.008075403149485395,2.63
0.041895603224402306,0.04125644487673692,9.769193075495126,-0.013269683891956976,0.011908495421671253,0.004158219594305176,2.64
-0.09799177456222233,-0.0825608091669419,10.001951000632554,-0.007622621378685236,0.00882365806244682,0.0018750994732129526,2.65
0.18931023643369851,0.12932872646654714,9.791207866772394,-0.006180309746605693,-0.0025539090331024475,-0.0033108129258966456,2.66
-0.0967318734447842,0.04716420566895123,9.886458898116654,0.005900486710657463,-0.0042972774510427495,-0.0023887412138783714,2.67
-0.04136353837394342,0.015503078403798576,9.783261664812967,0.007986851615185912,-0.007630928910392454,-0.009575429911929764,2.68
-0.17281820293906436,0.14600419781821378,9.7957106404157,0.009609603848660638,0.016552289317766887,0.003443507304561152,2.69
-0.15972461237826382,-0.04749773542569299,9.82628086832508,-0.00402380537010602,0.00088174997013179,0.0215938616393099,2.7
-0.005470195825318671,-0.02224992987591639,9.74009083302217,0.005080508253203512,-0.005026911703874295,-0.00048787408815324735,2.71
0.040235064656121255,0.044429617081086295,9.716089758634192,0.009382975148714,-0.004449359186194133,0.016447608985998917,2.72
-0.12277063133984062,0.041725186046227526,9.81024329924177,0.010828059854027077,-0.0004844483377862661,-0.015540864418108945,2.73
0.06055692495924129,-0.056969186039939126,9.724075862420598,-0.010333305763159311,0.005653383560419969,-0.008271677890096479,2.74
0.20889955074019884,-0.06892623538520747,9.935993623209962,0.0045361910993854775,0.01793525423802979,-0.016877533287890652,2.75
0.10141490487893404,0.03223063834733973,9.921718094998932,0.005553870489717347,-0.012872258396099276,-0.016251079487940315,2.7600000000000002
-0.08402913819593694,0.18632931245604795,9.7751376012009,-0.005016339013323443,-0.00640036354465616,0.004535245943439629,2.77
0.056557080074484935,0.0032959962831512254,9.695312243568313,0.005892318844911088,0.0025924885372593702,0.004640749848050545,2.7800000000000002
0.06998643045056434,0.1789801693498716,9.809526407274289,-0.013766537235919779,0.007017133277774079,-0.014342350483676715,2.79
-0.07483296443465881,0.1184920843801643,9.702144281968247,-0.008217622402453297,-0.010137577492932938,-0.013551331644210813,2.8000000000000003
0.032552565297597334,0.013913489323188609,9.872395296142692,0.004814047565560078,0.010019406501369722,-0.0016811076461511944,2.81
-0.07235315060559865,-0.23108871568425773,9.75917394525596,0.00015004656308078293,0.005737343522837968,-0.0005680046844782584,2.82
-0.04002603430411752,-0.15159391838719305,9.797606618194596,-0.013342452831375806,0.006179060407177085,-0.0007475631873584982,2.83
0.027071392925512073,0.03464649496127222,9.719549518018626,0.0017859011869896142,0.006341125944037326,0.021407851988870935,2.84
-0.026422840799405448,-0.095961347286439,9.882404487449456,-0.0018242278478011443,-0.0015818657585242141,-0.0042620366250325755,2.85
-0.016029719153726234,0.0698937625565144,9.952729646402373,-0.012717544234635777,0.011934808073911072,-0.019682254775174764,2.86
-0.028516864194794708,-0.031309573531209285,9.893860085495197,-0.0036737133016792917,0.019560189469845418,-0.008806850119692856,2.87
0.11415719472204738,0.04112062375447197,9.626028197579547,0.0057871132910294045,0.007043195707135915,0.010013326341748974,2.88
0.13972672704081715,-0.06129856136241857,9.628891501701556,0.0020227745463332844,0.012999214618621097,0.0047731872212875585,2.89
0.06196424185894387,-0.15533977432716556,9.679334076490752,-0.0006086453580441364,-0.01677483096390085,0.009895281431413605,2.9
-0.11599600077313128,-0.036227003461115695,9.726879705662533,0.0083960092183652,-0.006190727043178176,0.011720922631942566,2.91
0.07915219847507228,-0.010741268485329919,9.822042868980223,0.011235246260604282,-0.010263576151336542,0.006255543449711646,2.92
-0.169696114107444,0.030096033155017455,9.958299633850533,-0.01717827108934258,-0.01582932030828336,0.0034042760514881717,2.93
0.08002637073603443,0.1506877992234637,9.547759946192608,-0.01830976162085982,-0.01045594581277222,0.019838669019787744,2.94
0.02867910280694489,-0.06051963861842611,9.830966495831431,-0.008481457708379905,-0.007471189715548498,-0.006275555597047902,2.95
-0.04583228507037393,-0.14568342158738132,9.703827062435005,-0.004233112612921603,0.004943207881679731,0.0020790403513988153,2.96
5.561739181880063e-05,0.10774412332264326,9.986444652228988,-0.013885105082797129,-0.0083995586811818,0.006837373176051729,2.97
0.07070553590514649,-0.020480985968592103,9.675912886029893,-0.0027168100598933894,-0.0043390132377098545,0.01225830710338236,2.98
0.03877138920421436,-0.1215550960679221,9.880457933750455,-0.008785135071211977,0.00971790332606488,-0.011235772139858735,2.99
-0.1703501149991321,0.030209879456123242,9.560596328225712,-0.0056688775217624745,-0.010307572187028631,-0.0034800348668623427,3.0
-0.12957218506221183,0.06641141886212176,9.715320213971074,-0.0007180230733422869,-0.00038377718607868753,0.010095694036009174,3.0100000000000002
-0.0025187168447323356,-0.09179841122213571,9.911047545957615,0.0031621441719791926,0.007583699551660301,-0.022054013407710488,3.02
-0.08222386905451202,0.01705558786494999,9.784882758365205,0.0023282566181701127,-0.017052597552694806,0.0027117597791414495,3.0300000000000002
0.07419279395208739,0.022943907787581114,9.93291568307502,0.002002146816499819,-0.010582026933462012,-0.015563449111323109,3.04
0.18765500721274445,-0.16535026268590633,9.813027768450437,0.00010681181629372641,0.005131869726092645,0.01202882059121638,3.0500000000000003
0.06317296358980307,-0.06131574546174198,9.99963317308367,-0.0035877958890163076,0.003706473006911572,-0.015111099439576288,3.06
0.04006700342517409,0.015525043270077924,9.780441994749406,-0.007061151178708619,-0.01766603527404001,0.005801869752782307,3.0700000000000003
-0.03727002251124787,0.1094821411439899,9.642818351366873,-0.004515961459916707,-0.0017775475469047934,0.0073360494062349796,3.08
-0.10894843281583177,-0.10104134467838724,9.669583395857863,-0.009599491914775361,-0.0035293722088168764,0.012575153622269424,3.09
0.030342672174053443,0.15700075797084556,9.83840432958759,0.0038808087197666507,0.01599503231493964,0.016473277165968487,3.1
0.04124518673887285,0.018928191121606968,9.903577465932488,0.0033217431150543075,-0.019105259382647465,0.009112967692601807,3.11
0.16147489224244715,-0.0236575668316915,9.970849316393446,0.003280065389135363,-0.01320282097900215,0.000952197393747067,3.12
0.1289548513687631,-0.025274807202902982,9.668504792562077,-0.0083362546662396,0.009271867840723081,-0.00279790988157306,3.13
0.07774344076307121,-0.09342064255455929,9.858896139926822,0.0004242036630168842,0.015969723958147723,-0.006237629992567796,3.14
0.1262136083471258,-0.018121408419038358,9.81662208731808,0.009877468689636832,-0.019556298955231338,-0.011543476444931202,3.15
-0.1406133459476715,0.11466277512480783,9.799173610558222,-0.006481577627867283,-0.010831328978798216,0.005028982795150032,3.16
0.04929399132080553,0.09356121007809831,9.934301520854818,-0.002335113271857921,0.0020731587203642343,-0.008077001144872847,3.17
0.017144815437634266,-0.10607625107381478,9.823762178471714,-0.017724140340825915,-0.005192516977247348,-0.001472100715272687,3.18
-0.11652482998454688,0.11219911255770593,9.748742479662042,-0.0021863241222602006,0.005027394991854207,0.003131997561260981,3.19
-0.14137137600748556,-0.10076907656300636,9.770193827775572,0.005738661573802548,-0.0028643000323376393,-0.01447879413100739,3.2
0.2463902725218776,-0.058708651300813354,9.746376059625405,0.01935015121857624,0.0007651955394859344,0.023135004319206738,3.21
0.023508724392697064,-0.10838664963283894,9.891621595022071,0.0026448677127754823,-0.004570299871976128,-0.007217803812331304,3.22
0.03575547486101624,0.09347576756169902,9.871808359587957,0.006875237546926343,0.006221231435666437,-0.00405722957294438,3.23
0.07747327910094845,-0.01950662530218008,9.920812446540648,0.011825720991405306,0.010949664281578708,0.027936724227679916,3.24
0.015272924233510383,0.03122360802109252,9.833488713559952,-0.009141687896791971,0.007273184114586217,0.007137136181539062,3.25
-0.06109637050779804,0.09407349825566402,10.136502130626386,0.002468867866652628,-0.006264266328862725,-0.0027366858393671257,3.2600000000000002
0.06627441543064695,-0.07374945952377003,9.734527774160531,0.011790112254469505,-0.009111300908675232,-0.01949358788823909,3.27
-0.13126005234642737,0.1617142162742174,9.878233257833935,0.005786204789571548,0.009563984449552821,0.006233548444156313,3.2800000000000002
-0.13398649662891146,0.017383713389442553,9.791808551625763,-0.0006733683573213506,-0.0059737113897660645,-0.011201459878596247,3.29
-0.11060125790832864,0.026816454042086737,9.925469433450512,-0.015128208651863102,0.00986007079234215,0.013990345275785845,3.3000000000000003
-0.08904205362026425,0.006998160194077247,9.830674816046978,-0.000658222520378081,-0.0013117463271731186,-0.005381008552044039,3.31
0.02023060977114788,-0.024990715275300415,9.801757122338017,-0.003882366384723563,0.0038549931395727207,-0.008735066344642375,3.3200000000000003
-0.0030519432472593325,0.1163048223672307,9.753658860832317,-0.006815186460066542,-0.010520624100954792,-0.0058740631043265,3.33
0.03800278714653735,-0.07941741419277537,9.898692358552825,-0.0032904003216400785,-0.010803354902119113,0.01505106168175095,3.34
-0.14595883994781916,0.04839941472564737,9.719981015905253,0.0006776070550118025,-0.01346190391128318,-0.011905076019918812,3.35
0.021418239217057596,0.025251106444533728,9.71377871248892,0.0010949069939744749,-0.0034533626166619496,0.0018835257860879558,3.36
0.11733156223885977,-0.0006665363908207864,9.807285161266277,-0.0030394114725859666,-0.00466955633687339,0.00021995322372626074,3.37
0.06157554673339697,-0.1945338806933351,9.88439037507199,-0.014190532465302287,-0.0009506970417472086,0.013816006380606762,3.38
0.09307406632772912,-0.15337325590830633,9.82594986674777,-0.0042481315037195405,-0.012346077347433383,-0.0035046089735430762,3.39
-0.03242493548904678,-0.09948193607091901,9.860079887158058,0.006636321089088957,-0.012175173239053967,-0.011570717483709456,3.4
0.00012472888721485348,0.11458723362906911,9.708208945809137,-0.017221592216805245,-0.004179490592715906,0.0015780399140508884,3.41
-0.13833472967679467,0.007081264978821522,9.717571180490257,-0.0022241173834018756,0.0016702231624517382,-0.0030356743380072376,3.42
0.11596564184141454,0.03451526212259399,9.808190108260733,-0.02396978367904066,0.0038953288783106434,-0.015202177070254187,3.43
-0.02587466116140304,-0.046636092139417544,9.844625232321922,0.008138347508892987,0.014550093564904712,-0.02362161750797162,3.44
0.19827707949173456,0.11796903571080325,9.760456134296074,-0.007092236499423274,0.0027088203749781486,-0.018006086607536477,3.45
-0.15083053754587006,0.1021458973614851,9.802142734257352,0.005444901472397143,-0.006183770530531173,-0.014894548420726947,3.46
-0.2058410748381935,0.07106244494092843,9.818557637699987,-0.004790515389618633,-0.0038324380043198293,0.013969372611310697,3.47
-0.28210324858671787,0.12636567192311912,9.768014503470487,-0.0018732483063519103,-0.005155767634837018,0.01914462861401946,3.48
0.027872997949637664,0.02557523355998169,9.955728896410548,-0.00330654026176985,0.0014206784702699403,0.007938165276999564,3.49
-0.030506647830228648,0.016334873197145782,9.812090392740272,0.0017485564032194165,-0.00774430422930315,-0.016891930361302824,3.5
-0.016555102468357185,-0.16069528620170384,9.644451787647464,-0.0022860803713190356,0.0018151327378470167,0.020520862003885993,3.5100000000000002
-0.03180900598867276,0.07669046326787471,9.59958660447874,-0.000275138930370097,0.01229711500840222,0.004252345575070863,3.52
0.05281571330285411,0.037788036688517324,9.908589793682712,0.010403277470867564,0.006486018560899232,-0.006626449258470001,3.5300000000000002
-0.0002070620623611355,0.07731378024415707,9.977819473502269,-0.009033108767346558,-0.0070801945120901365,-0.0005964897592122841,3.54
0.06803750279088014,-0.1217782233496717,9.708024226315592,0.0014476210711683994,0.0029594193031085183,-0.01485169957523051,3.5500000000000003
-0.06614083213351439,0.15484890100264792,9.768431291151131,0.0020206492724905807,0.006269930505723117,0.015522248127258822,3.56
0.12260657752206489,-0.0773155002583846,10.07697856879623,0.0012147377034883737,-0.0038224074433174256,-1.7681847400401144e-05,3.5700000000000003
-0.20940584854980454,0.054667007992272636,9.780867944042837,-0.0031504625762717687,0.00944233741242517,1.637317631448215e-05,3.58
0.06659719104066801,0.010363003703432714,9.602073363151383,-0.011476689252463082,-0.007770283433233171,-0.007641966197018674,3.59
-0.12818321875480881,0.145405770438442,9.787224703190395,0.009289220329236238,0.01216563529301706,-0.007482493840720595,3.6
0.14573403632351975,-0.14839299367148073,9.847507757134819,-0.022425639864773212,-0.011251774365851659,0.011834970037927285,3.61
-0.04078711039747739,0.13005140736005025,9.874114764502318,0.0063823018010281144,-0.0002811715668391438,0.00940488080822905,3.62
-0.050259079883213764,-0.15793829389925718,9.803540957651295,0.0006729508546087837,0.009655590130988169,0.008129977303900852,3.63
0.002672153816304301,0.12323029966260293,9.743789295646248,-0.0015336995304817064,-3.126230575905457e-05,0.002752851876018623,3.64
0.14395992241812638,0.018838658084492473,9.90916366598383,-0.006788174083324754,-0.010182037553628936,-0.019860333398043818,3.65
0.17403645109616162,0.2173186392464393,9.841100573761544,-0.0037760406338784237,-0.009823475783296393,0.0028016218271213894,3.66
-0.14427961096633793,0.05702029586997736,9.77838599798813,-0.003237167138463816,-0.0009394473408617638,-0.004669159944246163,3.67
0.058512336802388654,-0.0782162419181792,9.868419744576046,-0.0152780727671784,-0.004447697965711932,-0.0035732145300623533,3.68
-0.06889959780738734,-0.06603046959176705,9.972540044802422,0.016437024833169327,0.0010253122219048864,-0.002926109526595141,3.69
-0.038420860045425116,0.05011520743887074,9.75700638436356,0.01084817475667658,-0.009357254602549941,0.001183701425435182,3.7
0.04779945098961306,-0.06264655036311258,9.894953741743807,0.009546578415800911,0.0035215339800809824,0.0021271891383035746,3.71
-0.005302828147904706,0.0009851344284003895,9.773128752673275,0.0007653744318764653,0.0016483728230115258,-0.010476014981313895,3.72
-0.13910466014935,0.052994881178562325,9.93317224348898,0.016457294353954148,-0.004044117425957097,0.0100439749111955,3.73
0.03198280568772022,-0.20773021848031503,9.819860224636779,0.010068716668667302,-0.002513833404909175,-0.01585780330195418,3.74
-0.056680298056406765,0.01572429751277349,9.73606457471152,-0.0021499550857208296,0.005190276634235075,-0.009793319047496918,3.75
0.014821830896982467,-0.00899892623223787,9.822848753548362,0.010320736938115325,-0.008342954670749407,0.011011415075381571,3.7600000000000002
-0.05537468261705217,-0.059447513864383586,9.765401857927687,0.01299082695061105,-0.0072303507206411535,0.0035573276921687003,3.77
-0.10413436083165394,-0.052569797696586755,9.745395454742772,0.0019826918047002786,-0.0062756020697630425,-0.008941865148223534,3.7800000000000002
-0.04768637143334639,-0.11619351773264464,9.824700399926515,-0.01723669031971596,-0.012711733996622213,0.011449965841075684,3.79
-0.031766370350346906,-0.011913824844774214,9.925233835690886,-0.0008853747693430081,0.02491747054840053,-0.005914977198086667,3.8000000000000003
-0.07507098920313002,0.09444184643557918,9.610253840707456,-0.014842995621029849,-0.0005232372204010597,0.006960767690740329,3.81
-0.06542205227435229,-0.03192889734846441,9.72911806646683,-0.009387927087838551,-0.01640276638874948,-0.005627170367323007,3.8200000000000003
-0.0859714787346341,-0.03057385336747602,9.828188196049476,0.0022023196156049337,-0.0010732602884136458,0.012313958294931943,3.83
-0.04416828896724477,0.005057124013957505,9.926654138454532,-0.0009783804508138585,-0.0025018436124858803,-4.9851356603848075e-05,3.84
0.0508712290160345,-0.17151869451328464,9.662357656618854,0.006244581991887404,-0.007039271419541545,0.011951039890615267,3.85
-0.015202243224336283,-0.007130423552202935,9.887942503656488,0.00908120510269845,0.0013335838243619619,-0.004249013552486293,3.86
0.04430290385210734,0.20715163205259218,9.83705248204197,-0.005856404339438209,0.001468662285412799,0.005866704922533919,3.87
0.015220365658533033,0.0019246731988620432,9.777550283439425,-0.006297763371010377,-0.0015068356081063576,-0.012637596228733639,3.88
-0.05074497816452143,-0.06540229021264712,9.768529421479304,-0.004936848325400199,0.0022155730331166654,0.006682953553845418,3.89
-0.028973295596076983,-0.0011430220975875455,9.953848640398125,0.021172362300708705,-0.014436464890440249,-0.006409648533387824,3.9
-0.05540649332102607,-0.11259035853378906,9.856608325482798,-0.019882305271209252,0.0038871988620700665,-0.0018667686784815552,3.91
0.054043880779588244,0.022879119247577337,9.746369898170505,0.019855927917914,-0.0022659054470019016,0.0035422003684817504,3.92
0.008413253773988454,0.07371082640205784,9.876763453702583,-0.013033679617922338,0.011050794147097259,0.004987163800011024,3.93
0.18795143029469455,0.018009522108401406,9.795052166289413,-0.003565978958240422,0.010352785654875884,-0.01428996366038232,3.94
-0.013123470359400723,0.09833406401917286,9.656077789976553,0.008654757405893195,-0.010850389014007446,-0.008139689491415417,3.95
-0.047167286793012256,-0.21291611830558252,9.750365067159068,0.003702675845105938,-0.005799962825096019,0.0043006067648942835,3.96
0.021056867121812456,0.05516869846680292,10.00892488507298,-0.017287252274052586,-0.01926131361251252,-0.00076123626165435,3.97
-0.1943904222539747,-0.057503747220127646,9.764751891005917,0.0011924782283704801,0.007705427727420653,0.004179955740823561,3.98
0.021577871870641415,-0.04409518738322907,9.773584313194911,-0.012457251831164676,0.0017330902081147356,0.0013103655672673691,3.99
-0.01826492937483479,0.019371373043682846,9.956383418992008,0.005674589287145236,0.003196225747917382,0.0225243391211695,4.0
-0.05854000793479447,-0.027910788826308944,9.882398059337975,-0.004191437775072938,0.00915418715730908,0.0037810627553240012,4.01
0.1259963623889604,-0.03143709961473239,9.900082239729697,0.010366808206614325,-0.010322350022626993,0.0035100389942101825,4.0200000000000005
-0.10113562952367604,0.07250567681432635,9.911813875042085,0.00028884589238614515,-0.009922746401291344,0.005497765847853472,4.03
0.014378847043326513,0.057336904258770485,10.002293035002738,0.0017436066334332648,-0.00755796353653641,0.015840534768347722,4.04
0.1647182233771457,-0.006747744736195951,9.872449107188613,-0.006384623547521098,-0.004457697497152778,0.0032184778428769657,4.05
-0.01243507354864573,0.013401712211812206,9.695366834120735,-0.01567527093195189,0.006009908387906235,0.007344102056411866,4.0600000000000005
-0.10314376387613455,-0.05200950437584582,9.73043232146149,0.0001565694269194763,-0.010536612247336001,-0.0044819366822825835,4.07
0.015435961922072337,-0.05229493182574202,9.83473695285475,0.004597900873625996,-0.008044220901978238,-0.010675012540077619,4.08
0.1267565231600208,-0.06216662852449428,9.925138066395187,0.02054716227575315,-0.000760682969828469,0.011040950571761708,4.09
-0.05372969939125695,0.06537884002425481,9.788178916654088,0.0075161083229548,0.0015374823709111722,-0.005644375117314971,4.1
0.017631333005291416,-0.05944879542223861,9.729780609888191,0.0022056154582198472,0.003383792970094267,0.010944462672688247,4.11
0.1891746845749466,-0.051729425596000855,9.751556270421808,0.007071509873311659,-0.007889011362871953,-0.007237154812051042,4.12
0.027035314458748513,-0.17498388426090758,9.759489558061693,0.0071553048719788835,-0.007427453320853019,0.007382748302616867,4.13
-0.011116292559105472,-0.09687870099934082,9.60285588210124,-0.003115482053850333,0.01008039423667159,-0.002058761176304674,4.14
0.04826653079936972,0.10934242883473377,9.695876308523804,0.015181510209330435,-0.004507303666421466,0.010550710761934335,4.15
0.12435840556456167,-0.03312923025712834,9.791645032448235,0.001927384408453724,-0.019526192604154946,-0.02198222214382893,4.16
0.02316820474560584,0.10305755650890457,9.777100701266267,-0.00618523345648396,-0.010875137456505939,-0.01946317903838723,4.17
0.012279327822035455,0.04231760828456721,9.82751755807576,-0.0006469214768028234,-0.003166854187481208,-0.01420497379665169,4.18
-0.024263026483931513,-0.014128261061608539,9.77075487836723,0.02057828031727737,-0.0076401232083898795,-0.007549770639836187,4.19
-0.17576109024838216,-0.0330375299796843,9.73578884856319,0.0036552848870841028,0.016451184421296755,0.013803451450370341,4.2
-0.021613113688571065,0.22751125284822651,10.029630995495845,-0.0016306209622236004,0.006572294836219426,0.001217868631684311,4.21
-0.14052363210054905,-0.009097427621393319,9.749993050581475,-0.004096855859048108,-0.0038379758980654115,0.008435415083313942,4.22
-0.10119143591594311,-0.04220589366643686,9.670315619038893,0.0036983230177066156,-0.009393159862776009,0.010735654952104724,4.23
-0.0065793731572093075,0.07132455373019216,9.810676794973194,0.0031568843332552454,-0.0021390950308581786,-0.0019392070672668278,4.24
-0.05114222527700053,0.04167132509395474,9.838653153371906,-0.010033644372422048,0.0026102254241300634,-0.008681045535743935,4.25
0.1358535378334298,-0.0808959620657353,9.876171834944184,-0.0010720411101918632,0.010016853198633099,-0.0031683031560366206,4.26
-0.1040269200374764,0.1796965247190234,9.788708831180614,0.008092612396478785,-0.018718958432457068,-0.02156215384664169,4.2700000000000005
-0.021382961569619323,-0.0500974658415005,9.652302145181864,0.004246398388772235,0.012719497968463141,-0.0053266697964524466,4.28
0.16395218308756118,0.0024639985172230632,9.690233170860905,-0.0019335918911374272,-0.00949776249859688,-0.0018203385125932334,4.29
0.030324839851779452,0.04460649487037647,9.764513958542834,-0.012625299934751692,-0.004395548599273607,0.0058852429905084346,4.3
-0.16764663938377677,-0.13756152087042128,9.801453005202154,-0.007221211421269731,-0.002088159911543301,-0.00869042985886335,4.3100000000000005
0.16306622968240259,0.10851894581571896,9.945678165301432,-0.009318449668697161,0.01773744650457765,0.0003566360431491732,4.32
0.3233653134390645,-0.0761397702366054,9.959627463477286,0.006522362816325579,0.008519113761735695,-0.00021727711346638038,4.33
0.062377890432999454,0.013678056891632748,9.798807660188347,0.015944971390149873,0.014551954030637476,0.018582516388951514,4.34
-0.042832078910460473,0.2374948509931609,9.872700594660675,0.004891828272103154,0.005349550355264073,0.0014101073493401766,4.3500000000000005
-0.1576898842463646,0.002788402441835878,9.83134300350607,-0.0033590784642844526,-3.165545303715684e-05,0.003755232824752844,4.36
-0.014540043085108444,-0.060662668817242964,9.802749985670943,-0.007568087624670133,0.016643656402960307,-0.008965425370599366,4.37
0.07351991263105963,0.17923000988514526,9.767659197200127,-0.00040878043430890977,-0.011165110227074842,0.005778765200437526,4.38
0.0777769011817257,0.05691863698524091,9.963802803048358,0.0036483151286200743,-0.007339552023761079,0.015980167742636536,4.39
0.10085046136814808,-0.07855620000106504,9.73392821306799,-0.012096374776095301,-0.010906924134873859,0.00313691468803836,4.4
0.17905300288079312,0.05655836944887171,9.835389318605204,0.007672196062472434,0.0032836544895978445,0.0040782315051722876,4.41
0.003970536493494865,0.2055331718378741,9.903795333861956,-0.022720056649862163,6.236655958231594e-05,-0.0046601053698404026,4.42
0.12370545210279649,-0.03293193681182599,9.967963299004,-0.005016742596319655,0.021982372281395015,0.00425834203512853,4.43
-0.08529876676903866,0.061766591594186515,9.790875267483175,0.013707538678306427,-0.006362617913433285,-0.006924059409954386,4.44
0.04681650910524544,0.10394243877879866,9.672766086854768,0.009874859126068534,0.018045807705677364,-0.015706801457101977,4.45
0.02841472667600657,0.007956294656386255,9.80668276112494,-0.018535837469709757,0.01081242434660156,0.014800111759201469,4.46
-0.08675104676501422,0.021854446002676723,9.731013007523535,-0.008018086940203022,-0.002791534663752531,-0.014083352592594182,4.47
0.07326124256509838,-0.13637156181365506,9.74085903730777,0.00458990891879107,-0.014230147923089284,0.00451873189724334,4.48
-0.09731270975236,0.052424246107570786,9.837331641739686,-0.007547124374851936,0.004288573862722102,-0.011529177338714898,4.49
-0.2091673383651736,-0.006933669230446356,9.80114531571579,0.010449669974084839,0.0042609081865768545,0.006710361619447155,4.5
-0.027067443349652415,0.00892911418527521,9.715752652726335,-0.02301887238959766,-0.006981176724973836,0.0038728355599855773,4.51
0.10110771066426011,-0.056945832748813145,9.777282431968443,0.0007248399373480771,-0.002736598429512302,-0.0010688732095730932,4.5200000000000005
0.005463722985573282,0.12498683841177767,9.76732100047851,-0.005063754347294836,-0.010643448146177778,0.01937283146199175,4.53
-0.01893085612416276,-0.043184945579952325,9.650579275576623,0.011744933269181546,-0.004859680087636767,0.005647803724670837,4.54
0.08456852260521021,-0.062077702164399,9.765889991924684,0.017734102745564022,0.010102667647984625,0.005143881899353699,4.55
-0.10136155507232832,-0.20429930716251646,9.929740478338832,0.013741825001292781,0.015284589266476063,-0.005767864270097264,4.5600000000000005
0.02994157190240178,0.023059131478514776,9.764801385011861,0.006138535085283293,-0.015401003993872163,0.004076748050489123,4.57
0.21289631293604896,0.0920690284718071,9.811683449054975,0.015000494033813903,-0.008476406299026799,0.01396126880494941,4.58
-0.06840411489316893,-0.0927747101054154,9.862759697415276,0.008287972333905354,-0.0046920153927421165,-0.009078382518431984,4.59
0.04688433659830302,0.05091997941405662,9.711184452244767,0.004592768858483117,0.008220761808603767,-0.0006001631480535767,4.6000000000000005
0.0737489414526361,-0.22613930050474368,9.758674214794215,0.008183954244927058,-0.006588264541804542,-0.0020543897802011526,4.61
-0.04994783443144265,0.10357539316037517,9.77229994193288,-0.004398744951636856,-0.005630867325074025,0.0007474592931549044,4.62
0.08909059422793088,0.005718517118437687,9.837327679957971,-0.014910877061602946,-0.015834921327839663,0.005438061959923411,4.63
-0.20387556790486197,0.11933501799611382,9.835488595865796,0.004304708533313861,0.0039568835281636305,-0.017844086152810384,4.64
0.04870690635848043,-0.14024709732496607,9.77673353542672,-0.013991609431707349,-0.015993401033452332,-0.010971272833625834,4.65
-0.16195434664390168,0.15986866656452636,9.955680712129467,-0.014590818574709116,-0.0008684956274175941,-0.007787788739346883,4.66
0.08597310972151581,0.007599331731285299,9.650857004095093,0.0013208004695855601,5.143332390541583e-05,0.009094702384010065,4.67
-0.06766369805736938,0.26520522560138676,9.646905731070479,-0.00296451076240977,0.0053383737523212335,-0.014280398066085154,4.68
-0.04795357955104221,-0.010988006212149133,9.669853460409833,-0.012708325085837895,0.005330780335724924,-0.00875529614940685,4.69
-0.0008675075622145163,0.15201498661855053,9.685205215846484,-0.0005413981140289328,0.0019496243070549755,-0.0020319315250573343,4.7
-0.06697707459937806,-0.03278403681679409,9.821985206822825,-0.0036559517496652025,0.006723041639439941,-0.008421128934411118,4.71
-0.06507896982154458,0.001874840996161521,9.890795395343197,-0.004581012426819083,0.00912033703593644,-0.014201876255082815,4.72
0.1433235880498346,-0.07879306667620323,9.864831069910673,0.0066284741337962125,0.002815258442015954,-0.0131402198804019,4.73
-0.10393576818363903,-0.21169473800196825,9.857697574912242,-0.007667647165624001,0.016609411854523352,-0.005669914595142419,4.74
0.1983005034028554,0.10027749814083582,9.748884254373383,0.010327535352488367,-0.01045635015847662,0.006877859574877291,4.75
0.052066039718221026,-0.017182366445931085,9.846795398307352,-0.011913978506804559,-0.007552411728521849,0.00239106959647022,4.76
0.0045540708927416925,0.04861421034299791,9.873399242230061,0.00011018337989570032,0.0007792483438980978,0.008807008845454205,4.7700000000000005
-0.09572720568284708,0.001392809874067055,9.92141116069035,0.007585938713044553,0.01948750350015054,0.002961355357668653,4.78
0.06970598821276672,-0.09668247186681067,9.915301851949241,0.01097952900184333,0.010089340637413244,0.0035251616641928667,4.79
0.14012065758760725,0.11681374937771467,9.851901134780581,0.0032816335531176293,-0.010333403277691128,0.01482022672458397,4.8
0.12520460105492717,0.14754738920635932,9.847176524238488,-0.016557031866713385,-0.010197407682302474,-0.011038948168282308,4.8100000000000005
0.021595919493863497,0.05349808762888497,10.044824986999062,-0.013118444526922924,-0.011537036223547148,-0.005486397969318832,4.82
-0.0018839868588978262,-0.03094803905416868,9.903495834022745,-0.012694987039248077,-0.0013376084954261468,0.023519792287775544,4.83
-0.12320618895940956,-0.08842407747240978,10.001371675287242,-0.003810631354938564,-0.002626214934983509,0.017664237822362917,4.84
0.06492664536736029,0.10906707095241275,9.793601186373186,-0.01759162499647744,0.0041608891120497975,-0.0014474889385290496,4.8500000000000005
-0.06722457433025743,0.011177942756728676,9.864504260213682,0.002172820786250624,0.009132830848846316,-0.00025563818477083127,4.86
0.025313116071762887,0.08792008372607188,9.887245296772901,0.006740095414510388,0.028142219508970508,0.0020555552751226076,4.87
-0.13519336626224346,-0.07381749642686063,9.900302222690472,-0.004082661823490041,0.010162730497225018,-0.02300496215620803,4.88
0.025454634512693933,0.15897626593482986,9.74844206758163,0.008041954264382773,-0.01113103513624072,-0.01744813570980958,4.89
0.24856292110385036,-0.056677811014249006,9.71077572946335,0.012945860131828541,-0.005376578509493514,0.014572677967339085,4.9
-0.07790336948069936,0.2562090268488836,9.583233241013696,-0.005773028561039049,0.011680745190182164,0.004791761725771894,4.91
0.22735047161933988,0.08572727087492119,9.741676392682736,0.004027561599408965,0.002949357019997591,-0.0038446360991448904,4.92
-0.15667333030922967,-0.03325616984458023,9.873253911664746,0.0003914626947278998,0.016544438982918085,0.0020065529080839435,4.93
0.01818086929400835,-0.0984606366357851,9.769687384861447,-0.010419775040950112,-0.008259929387010107,0.001517148186058154,4.94
0.020397569847144175,-0.14711572412146207,9.779718311006247,-0.006492026118921088,-0.014022014137677298,0.015400160470241005,4.95
-0.11420257759018018,-0.0511491661214091,9.70312383725929,-0.0020519762957624714,-0.002527141233367415,0.00022467493504141464,4.96
-0.025967830599591415,0.04707179989063504,10.035459836317244,-0.008587453738419662,0.002886102000764077,-0.014604619022269776,4.97
0.01286018828035587,0.050602049737702964,9.813848149018774,-0.008184982535029308,-0.006271594457133839,-0.004755439356658093,4.98
0.0630476381812247,0.09438516190100915,9.677253644134014,-0.005476185668075812,0.009390035040883465,-0.01134567200359088,4.99
-0.04955217379458588,-0.11857181460875005,9.739355871628147,-0.0004282394469236693,-0.004570376802152451,-0.009239916419556864,5.0
-0.04666574915698393,-0.005001619907658124,9.877611588405658,0.006764391723969494,-0.008210850214564018,-0.006237685460576174,5.01
-0.013365743076632422,-0.04790005604202109,9.8608854003025,0.003215871501074026,-0.008492363498187414,-0.02333802622933629,5.0200000000000005
0.19712204110834927,0.016812024268623233,9.973278712635883,0.00428053722689646,-0.01392972490667322,0.015603625569310553,5.03
0.12265953347092601,0.12771321260583865,9.837513913311414,0.00858702268877386,-0.006607943418485558,-0.007397920175315852,5.04
-0.0007401736156387017,0.02417609433322555,9.847584755827224,-0.01392598792544908,0.0038008717016940028,0.011661064341351269,5.05
0.05947571102003795,0.11469368304229283,9.742116603561481,0.0007223112587772328,-0.006462923866643195,-0.00044377357944761804,5.0600000000000005
-0.15226410012393912,0.0013990181110690185,9.640906951271194,-0.006913630461136398,-0.006570943820746934,-0.002832300755965246,5.07
0.01874055515513423,0.05397257265552444,9.907110853103253,-0.002058854995487547,0.0157235121254376,0.007141414688519029,5.08
-0.06964167809702708,0.00889336782398843,9.830570653297316,0.003154571861770012,0.002915815390469643,0.006533209893768921,5.09
-0.04928602185246508,0.05784035674434475,9.781978906960711,0.003119733822691914,0.018032004362062634,0.00393221192523286,5.1000000000000005
-0.17697300922302484,-0.11804573493116584,9.687686416516405,-0.011154991058052646,-0.0169099969480911,0.0020717273198590618,5.11
0.09066639804750694,-0.12548235312384,9.900295149943567,-0.011965610489026501,0.0012961245025549279,0.0046320184968225535,5.12
0.12246713799985186,0.015085899150012422,9.907837477758983,0.000736691879541516,-0.002997300596057885,-0.00633163039807129,5.13
0.016708004619491776,-0.11593103012520814,9.826583050655511,0.002052670065853575,-0.0037760297766590034,-0.0025473165903826555,5.14
-0.0615990657868169,-0.12650980746138352,9.775004959275659,-0.011598759929205692,0.012591784527628195,0.024456766847782127,5.15
-0.16641093644717916,-0.03364108019747914,9.864969761130075,-0.02365780076247471,0.013429510446733597,0.0022132713241390647,5.16
0.06736501989427433,0.01915975443399405,9.703963856164249,-0.004670591178245538,-0.0011943379245791938,-0.00811484177879647,5.17
-0.16186224690179454,0.05736583465047393,9.75216273422864,0.003966952103436526,-0.015311245881999207,-0.002672803413380056,5.18
0.02903272653375735,-0.07175825105302223,9.731987641569328,0.006163996105336449,0.031263101039695054,0.004250836003173831,5.19
-0.06268525087024356,-0.06582864237994838,9.906923428520368,0.02112044912896513,-0.01453768638724531,0.0020582087983283823,5.2
0.016655419683896038,-0.21361764479365164,9.811395752689435,-0.016174290300744323,-0.008622542637073006,0.0073085138679788745,5.21
0.037489439326570825,0.028288328606650245,9.910653943529873,0.029357167386649247,0.009649027288160862,-0.007091173462864971,5.22
0.13986487338887096,0.07779793463978601,9.72330246435552,0.01022720067713414,0.005153833306312899,-0.007076241122428242,5.23
0.06910789455679613,-0.0642795617434657,9.711846700836414,-0.021795549425948253,-0.011662377029459407,-0.004707831966158944,5.24
0.0604461284564525,-0.09305574494953339,9.664742692706085,-0.013324784313253,0.008599593324063183,0.009655708674473535,5.25
0.07378763886266113,-0.23195113415209834,9.777974823732476,0.004525115885724642,0.011076992577291212,0.0035522578630879905,5.26
0.01697656769739032,-0.10641287908041082,9.867261657194874,0.008998192129960437,0.012247394314703355,-0.0038211549502881388,5.2700000000000005
-0.1778847030247111,-0.04456864366322841,9.868719367649623,-0.00026597604714622146,0.004038225360081801,-0.010912163188679767,5.28
-0.06067927238551777,0.11140849722163322,9.747486723144522,-0.00563708621245615,0.00820462964689998,-0.0024630759454758217,5.29
-0.09682189657577214,-0.017084892785993896,9.872189579898611,0.008158857683343153,0.0030251285080981957,-0.01854394358281432,5.3
-0.020614277259576607,-0.12794368277358326,9.68600522401957,0.0039414900802983285,-0.013715204685655855,0.001798840571204373,5.3100000000000005
0.021496704976098572,0.18620888776111585,9.588049979856018,0.013552630668111947,0.006702043287509765,0.0005525373819945038,5.32
0.15304443601685447,-0.13075875067884127,9.81783888082422,-0.005775359570946919,-0.0023179460814327113,0.020590749924381826,5.33
0.16793878106747454,0.04689039648382607,9.897183221270033,-0.009063032724964816,-0.036364382056390414,0.006331090846870841,5.34
-0.013178774592325507,0.14653087241264012,9.705982148054458,0.01128619488539518,-0.008243847185782792,0.008904304326583042,5.3500000000000005
0.003445359120386476,0.043135740903602116,9.786025774131717,-0.009165699273480443,0.0042022803888200205,-0.012657824619681462,5.36
-0.04649749359130615,0.12694473873018247,9.705513339271263,-0.004663512197430056,0.0031062324096360143,0.001977132940794788,5.37
-0.015132146725507388,-0.09394462453041726,9.847215620446713,0.010010735221294932,0.008614063233453637,0.008866761537038371,5.38
-0.03787658704955991,-0.015392525964762949,9.793622766172563,-0.0103705084725742,-0.009958152818124674,-0.003216417880697226,5.39
-0.0705998796692234,-0.00966352390870617,9.784220366489867,0.005777471232969978,-0.010708462752402018,-0.0016257364542227352,5.4
0.124803324692987,-0.06691439240409053,9.816947800485156,0.023167303878970747,-0.005552208852903774,0.002820844118090967,5.41
0.02816047173379156,0.07163251060338151,9.948534360039625,0.009280577753308287,0.023565063864502557,0.006311208693115376,5.42
0.08293071143646852,0.027291271433874498,10.036145411904108,-0.011275402359186377,-0.0017731183166505718,-0.015594033929317377,5.43
0.06784164083280637,0.05102699172934854,9.933871311889632,0.002802171830732548,0.0009368292750802041,0.016425583425200917,5.44
-0.003906122422966866,-0.011062287580881111,9.655848447930554,-0.010276885018380177,0.02058547274135004,-0.020182283057297596,5.45
-0.07213880632594967,-0.14357264232011782,9.873043392138685,0.004754736340892283,0.0032204620838359823,-0.012435365129545947,5.46
-0.08804837929212916,-0.0230855043273769,9.781533657859628,-0.0019309566138660675,-0.00817457468473978,0.0012531735486900092,5.47
-0.0745340295754011,-0.07948860404757963,9.737814093711078,0.002366875837404313,0.004812772498629155,0.007388779992502778,5.48
-0.09845724612685818,-0.037138266919821916,9.887067197693721,0.0016455724325216486,-0.0033746504575019594,0.006769639433613438,5.49
0.15510971376905597,-0.11669140817214058,9.897971476030746,0.0011430527278243482,0.00044653148936583736,0.01201582980220496,5.5
0.01823635459857072,-0.33524112466011285,10.0319837481765,0.006042307555179077,-0.007823882788525076,-0.0017980572877292053,5.51
0.0943610122443117,0.1154104375785957,9.932498440624443,-0.002678471627539019,0.0008949739816852206,0.019091085188816442,5.5200000000000005
0.018903427540713065,0.08311376181303448,9.906910041301897,0.005302196266385954,-0.009211363991063906,-0.007118812671467418,5.53
-0.016514881743575342,0.010496931056929951,9.843004542288107,-0.01802148752182655,0.010353782821735711,-0.005708764178473671,5.54
-0.04127808540897711,-0.003926366002847309,9.897885417544991,-0.0005873975510048901,-0.007471387629344858,0.012567960464371,5.55
-0.0861522537439973,-0.05973551741926275,9.71016540024882,-0.019717194987548245,0.004442664924284889,-0.001374411854357476,5.5600000000000005
-0.05461218031056458,0.006398264857527743,9.780782293897001,0.010864066259279008,0.010979806302039596,0.02007174553356995,5.57
-0.004940705130931099,-0.08731812278498997,9.580460678455031,-0.012509029688604437,-0.009958771765229838,0.004571724916905627,5.58
-0.07696858401786515,0.06730590062655512,9.968246399868075,0.0029964047998988293,0.0002928167385153953,-0.00775592208425177,5.59
0.007039979235500867,-0.06576541708700745,9.856590649493429,0.016638739695960268,-0.007230692417704456,0.0004923034487722236,5.6000000000000005
-0.07399921915667199,0.09804909906059885,9.818184157461422,0.005774868614412603,0.0006738419247509586,0.006886513637168336,5.61
-0.017934148356367672,-0.05309903306634084,9.950935455525576,0.004435333375995297,0.005449251290189413,0.009288767861454226,5.62
-0.17622630205702594,0.09323398334200916,9.725193538418917,-0.0015149314990878394,-0.008899618028593249,0.007641709566088244,5.63
-0.04603287450614478,0.023860205160237256,9.617220175554571,0.010787662939256776,0.006013762886575655,0.0112352053214495,5.64
-0.2567493783693589,-0.11768443026953149,9.738543738326364,0.00042186709600864735,-0.011097912929700488,-0.0029795157726685484,5.65
0.03594396941379516,0.05139356098591287,9.876685096377251,0.010214642340250948,0.012695831993817944,-0.007882109339240214,5.66
0.14025802267913812,-0.13624764306872986,9.87072320515928,-0.0074886090836389875,-0.018608200911627706,-0.010037766510759277,5.67
-0.05205910865191459,0.2139806988517711,9.881764374063925,6.349887170402657e-05,0.0016353234649281818,0.0062639269451965135,5.68
0.054529163968209365,-0.07647295829005103,9.835994482608097,-0.00452982148154443,0.005685899411769363,-0.002049506187380496,5.69
-0.05614725624402242,0.052834956180576126,9.749898278592473,0.006059278208177555,-0.00636565634705908,0.006746509455959825,5.7
-0.1397312383187373,-0.18352180274397903,9.754208519986431,-0.0144885405833206,0.0025965989717965017,-0.010466256854092438,5.71
-0.09569288992170599,-0.035455793311825023,9.654335344880309,-0.010890867474013076,0.009428139480427424,0.01956766711332146,5.72
-0.07685123225783777,-0.014461408854108324,10.032147337132704,-0.0034128726587221814,0.014966280425799896,0.0034757964044693987,5.73
-0.022540614450392415,-0.039390890091875866,9.82716913903279,0.0016980053824061112,-0.018987815173762402,0.0005243071373544591,5.74
-0.06589395030251882,0.16633525623927628,9.819245353880982,0.012477461244065971,-0.000991561174860586,0.003508523455391208,5.75
-0.03768332352018373,-0.10233963105239592,9.786489397385022,0.009100246052462393,0.006052755506584248,0.0057983027351229755,5.76
0.0007026865223344414,0.15423615823215536,9.786383641771886,0.010031710744803706,0.002803290127520395,0.02196226531368917,5.7700000000000005
-0.008744147765549291,0.07695849555603658,9.859096570210392,-0.013996609328401726,-0.0032516612364603854,-0.009159156118733986,5.78
-0.02379936181438322,0.011450253641392147,9.657955277328167,-0.029252311805780397,0.015856645969494012,-0.0064328661316870464,5.79
-0.16533519758250326,0.03530824275613264,9.916118020499244,0.0017483563468557604,0.005279913991194352,-0.0024812508787385927,5.8
-0.10058624843196427,0.07442016247749748,9.720277815546147,0.007475109444251687,0.007980252296224092,0.0036656597053514707,5.8100000000000005
0.050322004742628414,-0.15995455315415308,9.688257427492195,-0.0023347351260657677,0.004446730008774094,0.00589249880190645,5.82
-0.08718424223413299,-0.0739954690979146,9.960222983763174,-0.0016604900870631596,0.00018812183642351755,-0.013912403035188264,5.83
0.07568681470429778,0.03736003389113789,9.760852074941418,0.02398175181216658,-0.0004910204547948411,0.004833818853938187,5.84
0.08164644745830112,-0.06950105503254962,9.776225902365491,-0.003389372368930263,0.0033574320148549055,-0.029424159679973222,5.8500000000000005
-0.0077305195857254524,0.09917011132921381,9.965444719957047,-0.004196980205747712,0.0047924959723286056,0.01300694605801572,5.86
-0.005657864459907815,0.033503503039931215,9.871561937292123,0.014573780441870535,-0.006023736670661483,0.01504208169262704,5.87
0.04115197006062388,-0.021601684939187807,9.726587281200727,0.000529612352017996,0.009273510216767733,-0.0005546835902233915,5.88
0.02123975957094134,0.08459880356765159,9.783474574270047,-0.01232055225705851,-0.010953072234767451,-0.00028833272955842537,5.89
-0.11058803452673545,-0.03247374103201531,9.913316942603506,0.005346376467557315,0.0044277045160064565,-0.018822616251431442,5.9
-0.02535708014847292,0.003847685681373142,9.787885333161789,0.0018381820273870796,0.019886858400969498,-0.014605265328361086,5.91
-0.19311789009658148,-0.046432553784371826,9.901636017144272,-0.0027477180667141205,0.00303761898721143,-0.005105701827263622,5.92
0.056693379514770825,0.2715561494216678,9.853888910763901,-0.0007111853515849086,-0.0010000628805661377,-0.021342921485768013,5.93
-0.010000023329112822,0.09727509360332942,9.873932528109062,0.00654845808974415,0.002354107674647998,-0.007625464029560831,5.94
0.08352121317053643,0.023140497021989875,9.923825166684288,-0.001885721702818455,0.002676588417114631,-0.003958598388093801,5.95
-0.20634111368839056,-0.1448478555479392,9.715268985073585,-0.012912075953205879,-0.0024828050710849134,-0.0010439606366969003,5.96
0.15033980539446865,-0.1484963141205698,9.882974792569405,0.005425294669750124,-0.017621266867436796,0.005183194441416787,5.97
0.07971487062889494,0.06051729242389786,9.96519727255954,-0.0007087548902236254,-0.009789287302009442,0.010222832123644504,5.98
-0.03289197748162226,-0.0865112914727057,9.78937897554644,0.0076940673283271135,-0.012711064873693986,0.00974221247823732,5.99
0.0013554984457986425,-0.030635124890875134,9.792180468067654,0.009581323719865663,0.013996949359157693,-0.004193012839397637,6.0
0.07650066983397502,0.1047845872749958,9.824457482078834,0.012996911214836007,0.01296249807884636,0.010654287717556239,6.01
-0.05656805009440107,0.026775981568121405,9.727740614166864,0.008211860741452262,-0.00013274610952699383,-0.0009016226751042339,6.0200000000000005
-0.008451282479496959,0.08978665593413097,9.774537452357745,0.003233562662932797,-0.004217903226771459,0.008747275368721344,6.03
-0.004899983317823861,0.21984304854897038,9.742460741236293,0.020315943886956466,-0.001280641061207906,0.010969625083462907,6.04
0.08481879571150436,0.23673962164697926,9.730129802541988,0.019453884580282507,0.009735381854394572,0.00013169295749376847,6.05
0.15672499823055727,-0.008811261119306853,9.953365302247002,-0.0019451601511361444,0.01678006173744688,0.006285653347860119,6.0600000000000005
0.1775737738601143,0.007939674800207137,9.939560517197512,0.0011328848780603991,-0.004423670639802547,0.014893694331330672,6.07
0.09817024306601364,0.15008173499308436,9.686585706294627,0.021408681342276453,-0.0022950648406995116,0.008115997274206673,6.08
0.02557070846152264,0.012254827773633828,9.712734671205704,-0.011669308245126795,0.001281278448068397,0.015218939356533913,6.09
0.07174813017159529,-0.03224901675488486,9.860284539240979,-0.004132976187484349,-0.0009008370079980127,-0.01883113840579834,6.1000000000000005
0.0026757655021796066,0.09187338215480874,9.666327624463602,0.0035735704165768614,-0.004800566138448077,-0.012320981240879337,6.11
-0.0629158761711284,-0.18096129758577295,9.709024238762291,-0.001838529891158782,-0.010743373392920683,0.0071020636005510755,6.12
0.04265286304290774,0.12487141989990341,9.902194144616947,0.014105783315853593,0.011646320068839143,0.010384791602992731,6.13
0.08872871235923524,-0.005668271283213861,9.784862404557195,-0.0074533701876560825,0.0008499132168560278,-0.010820021438048048,6.140000000000001
-0.10923879363039427,0.16304492969886308,9.861370242195349,-0.013512483463847168,-0.0035055181777965505,0.008887473082351991,6.15
-0.09778808888816755,0.03084983742794933,9.78152241397674,-0.00878088296037327,-0.011017749507130463,0.001085543440505457,6.16
0.06393708014746231,0.06406436997413208,9.813092536488211,-0.0077315073449139,0.01443555623200803,0.012962632545127637,6.17
-0.062001306129410794,0.11353248804735652,9.772641429619158,-0.00010998884034418052,0.0003906787378001804,-0.007520488029693411,6.18
0.11792268378984389,-0.11029138650763959,9.751502743464053,-0.0004508626245963448,-0.002967153190672228,0.004235291291403522,6.19
-0.030148075242065156,0.003759505815549101,9.812081670852647,0.006796778349384508,-0.0047045394315274845,-0.003764093601556331,6.2
0.0820894565236807,0.02929798953511137,9.761232044808745,-0.003841135262060371,-0.008996379551263594,-0.008685177625497881,6.21
0.015671486092249883,0.017789054948561086,9.813416075357061,-0.01713212523989941,0.002848533159602599,0.012177729029886631,6.22
-0.008036067452994388,-0.08559826908123928,9.822788679865482,-0.009226177778090571,0.006794200572744033,-0.016549105720217776,6.23
0.18581936940390187,-0.03522133952235888,9.696716044495064,0.004382709595693813,-0.024671329033671703,-0.0035463630075118374,6.24
-0.127706994705972,0.11000287662005655,9.74333620999756,-0.006960693040553016,0.0003643661409283712,-0.009850806793600736,6.25
0.07616800941346503,-0.28587727641719457,9.770974000853837,-0.007907377446131167,-0.0020205106700445204,0.01577698781478069,6.26
-0.17237019899991926,-0.09360087831706793,9.735914991518662,0.010981175011136648,-0.00654787537443303,0.009568187719389087,6.2700000000000005
-0.0355851052270302,0.20207608681944655,9.914402083983425,-0.008082776740742878,-0.005044121348917811,-0.011952473496893181,6.28
-0.11521181095290994,-0.070114005840238,9.725613204090385,0.013963906220200741,0.013653383635374305,0.014677858159419473,6.29
0.00022058610600444222,-0.131190063961955,9.717370220093848,-0.007738534005813384,-0.016063333494392942,0.003990439686947317,6.3
-0.0006274192953479216,-0.005357360434004307,9.58308185520153,-0.002103240129700444,0.025768329370640823,-0.002379480858077701,6.3100000000000005
0.09658438356278193,-0.06725351688245537,9.800904450184413,0.006557376974306765,-0.00942606585354485,0.0004610834886482168,6.32
0.004636031469357341,-0.09336368199570566,9.766267166208145,0.01333500399882749,-0.01919117430499121,-0.016423682563138677,6.33
0.05181402932348292,-0.0737329303025065,9.75009758468334,0.006718393720320931,-0.006866442848337789,-0.009706109044735175,6.34
-0.14474318620781582,0.10149360568818125,9.898520518463721,0.010358384777401853,0.008709169227721305,0.003926985273430216,6.3500000000000005
0.1028312248117665,-0.07696530789068179,9.989741015745304,0.005551866343241992,0.0020509575568918924,-0.011666730403636827,6.36
-0.1111371033763463,-0.13473737467205957,9.73006121936094,0.003762979939872618,-0.0016665101844008665,0.008717353093288128,6.37
0.10389511882470676,0.057377982613155756,9.694047125030346,-0.0033983346075683115,0.010020666949212744,-0.00866796850255663,6.38
-0.11762348460508482,-0.13051799136305225,9.802449912263219,0.00019894339420016246,-0.007930599944445667,0.01178559726656872,6.390000000000001
0.027873863355377157,-0.1313713974796292,9.704333564729538,-0.010573113968027834,1.2497705758091468e-05,0.0008842779616499475,6.4
0.08540191365913198,0.009513286568950272,9.799510187978875,0.001736301730176995,-0.00901328764240175,0.009844630515465403,6.41
0.09062190805772896,0.23263863495105436,9.809413180032191,0.0042005418800295105,-0.009060399210123712,0.011822833712080436,6.42
0.06504911745115019,0.038365127655943576,9.722341447106361,0.003320880204111563,0.0049421674571617094,-0.0067378096265461205,6.43
0.160340116138194,0.035780516378240444,9.758220541900167,-0.009768864514611694,-0.011790064263500415,0.0066372188572163884,6.44
-0.03959921818600312,0.011575259457332615,9.824342919926169,0.012239019377976374,0.0032730201047537796,-0.007460891016685798,6.45
-0.09549775133132629,0.0542104077993264,9.850849418788432,-0.0084241778814261,-0.007996579710489674,0.002952233012935577,6.46
0.02501894464891413,0.2305220816989837,9.77181377361775,-0.003801107148518301,-0.014501809635448384,-0.0012354151708368164,6.47
0.009135324416347282,0.1796379370180719,9.806579528369754,0.0014468243589855231,0.008358485022467178,0.0009583142663474921,6.48
-0.013337688324417469,-0.019211576421224525,9.743364435608243,0.0021448466407976863,-0.00581235986743303,-0.0013761831729292393,6.49
-0.15097705283154916,-0.020600401948005817,9.79702619966575,-0.007185196605833674,0.020712745427663905,-0.008439481485437364,6.5
0.07053836504364436,0.14811381418689137,9.567650630844843,-0.013098185750034259,0.0038671307824305963,-0.0051063792592927195,6.51
-0.12032332684024144,-0.10092736420631954,9.87819826839233,0.007597409454567322,0.006086891867137016,-0.00837798567681038,6.5200000000000005
0.01605615045927115,0.052298604579790554,9.676477674735366,-0.008824591900639996,0.00946451264741733,0.002834573759269158,6.53
0.054557107662218045,0.13295020944477143,9.69845446608304,-0.003075348254393515,-0.006696234811707192,-0.018417963044035885,6.54
0.031119641629361136,-0.010603216339833575,9.697679995350802,-0.009797604762518192,0.0021276475210378508,-0.020453894825889028,6.55
0.10427803660501844,-0.11994112353768419,9.677942072206731,-0.0060411581805618775,-0.0004045626722176595,0.0052045951087246545,6.5600000000000005
-0.0728263943903395,0.04983425291639349,9.774174211580867,0.011830050042752602,0.0044638609552845555,0.01641183484955265,6.57
0.07500382152805733,-0.047748806559698063,9.945501958495269,0.0028338464895355324,-0.005268159366231926,-0.005684797762777324,6.58
-0.02417125758854649,-0.089230506699947,9.775291754094495,0.0018900398737962656,-0.00039157364111130195,0.017963508422127114,6.59
-0.05176418014401932,-0.08295640771905825,9.783891484178646,-0.006537814983807336,-0.0040150212098028285,0.003975415400637272,6.6000000000000005
-0.07703615246077467,-0.0978199645249204,9.71812183579253,0.007782176430733195,0.005749627563081739,0.01566554823558437,6.61
0.04575748294670552,-0.021787446863678825,10.04126331446678,0.009377646086170291,0.0021234782635924498,-0.009802055884182696,6.62
0.04714172242760603,-0.02135281021972056,9.892803914628022,-0.0015677638080929595,-0.008657837352226243,-0.003889657789739588,6.63
0.15228304839730655,-0.13739888486761284,9.815530007620852,0.017049364827734143,0.006631668276399997,0.0022187707016738164,6.640000000000001
-0.10427873615290804,-0.15949280397851381,9.833762618915298,-0.002091112071747525,0.0004321547784032056,0.008365241232692002,6.65
0.1943671045953802,0.09455160110015168,9.89348389192029,0.011357878328785721,0.008267996905702521,0.005932792675846513,6.66
0.13381657397773392,-0.0037927471079577633,9.918943154544378,0.0029469002160932086,0.013530378783259696,0.005511652903929164,6.67
0.0982816085291718,0.11753111267120607,9.78939234262947,0.007076204930828207,0.0002175652498193221,0.005802033897932778,6.68
0.05170580158883469,0.1885038188934873,9.91187033905321,0.0166488840687971,-0.002268335613094108,-0.009127561346460948,6.69
0.0012360793707267008,-0.058264037654698154,9.658139960604455,-0.002571687769308183,0.009173849949883621,-0.0021549042352908697,6.7
0.06466425195656514,0.11599852949156647,9.697880847704457,-0.0034350530814449953,0.004551809722603045,-0.0070294733035840265,6.71
-0.1447725073524399,0.1123259282948226,9.954130598834094,-0.009191149044646019,0.005152832438413568,-0.005322128669896247,6.72
-0.10173614704027296,-0.08106733219469202,9.986217997375666,0.0024992581718984103,0.0025882417383704744,-0.0005170580013521513,6.73
0.12573765998354666,0.10542646675938774,9.879048843862941,-0.009856669617829404,-0.011831732920780194,-0.005946770352847035,6.74
0.19177074202943264,0.06603576616040333,9.709782166513952,0.014134222357925472,0.014517459353352207,-0.0001708157979291591,6.75
0.23859026580416615,-0.04265693146387753,9.825749643736545,0.006779892759058862,-0.02233632055150447,0.002971331582992769,6.76
0.05900929236476829,0.09375072944885648,9.837682914808687,0.0040883934878282995,0.012780302349681095,-0.0032214367357554854,6.7700000000000005
-0.1764580225635724,0.004682975396727049,9.841701590405316,-0.005675174129243949,-0.005718007812403915,-0.011043475438150983,6.78
0.08921054948579693,0.04469126834990379,9.775999405896282,-0.008992502470529629,0.008505447147427205,-0.005351950349966991,6.79
-0.1683060158493979,0.021066782885340436,9.905303082816262,0.002680386425417951,-0.0007680204435165858,0.006917418331280645,6.8
-0.02975072030883785,0.16871578010294266,9.778342768527606,0.006513551684697713,0.004245425621895278,0.010606021575910797,6.8100000000000005
0.10320567864010184,0.17446482699474858,9.786485103948605,-0.008626095125022165,-0.005064904432145279,0.007067545648578313,6.82
-0.19397954340292217,-0.03668960839739326,9.787497140387016,0.003278833433874905,0.0003786288840571488,0.008136487667756017,6.83
-0.20516759874173235,0.11079217301864429,9.802678158493976,0.015327903339380148,-0.016233235936189624,-0.006332128270667112,6.84
0.016805297683987624,0.005819091988075866,9.510018727452179,-0.009372776324195644,-0.0033323519124663094,0.0005043555842835787,6.8500000000000005
0.06389028975679958,-0.18023173816207363,9.769614384338238,0.0052976953615988046,0.011570694192055543,0.008879981953511907,6.86
-0.043960889859248245,0.033323126861138315,9.869667226933473,-0.0015197411701964492,-0.005678961106159257,-0.0033786105439419308,6.87
-0.01400157500774876,0.05079554386013749,9.695543615267036,0.00130959873714877,0.003762060095892374,0.0020864236073492278,6.88
-0.06552655370282563,-0.02743670477821396,9.759315053996147,0.00023438678823365378,0.0008654218624132585,0.013410315171726257,6.890000000000001
0.13447352672387608,0.08642260620636755,9.840532507148902,0.001131504071911119,-0.0065422259829331355,-0.0077206450406232694,6.9
0.002985024650266567,-0.0043252489919821235,9.886001830846547,0.013436921153238893,-0.006872889479687218,-0.018184212616905872,6.91
0.0843222615064396,-0.1231586589750052,10.002293089957941,0.006387385212003104,-0.01009913456020406,0.006553178808280756,6.92
-0.04208983542311082,0.05956997069821275,9.685722366581231,-0.012262301021016647,-0.0018545723419503186,0.005670318354842645,6.93
0.07421707925416246,-0.0315837443779611,9.72159639113526,0.007160814015492656,0.012510386035710133,-0.00684715156409826,6.94
-0.009418123549874013,-0.0460608524815353,9.790749665722368,0.004892667272005566,0.013649708611568143,-0.0019742242453978267,6.95
-0.16370719467048173,-0.1417467158422637,9.793324036314845,-0.007289562526677796,0.010215203869391511,0.007613180681874638,6.96
0.0671558367082176,-0.03843198779316448,9.844757028770879,-0.013025561306830814,0.02467933474894895,-0.015622863687690716,6.97
0.019602338507217446,0.05004232971556627,9.776667225481097,0.007638139392895822,-0.0022666933558107404,-0.0034997528913525804,6.98
-0.07481760707098913,-0.01143880719377927,9.896488814464458,-0.004700059791294433,-0.009341194603094204,-0.0008109082753004074,6.99
0.11758203302194942,-0.05937772365963772,9.785400833697782,-0.004605330230159626,0.011542813529786452,-0.006707565909772182,7.0
0.16293747027796016,-0.0868239521598025,9.712242249327566,0.0043074191512461075,-0.0029022191421638134,0.014297151904733282,7.01
0.06384858608198572,-0.0800050567848996,9.859778193666184,0.008228917779454652,-0.0007751527017644666,0.017662813994122537,7.0200000000000005
0.0006487900409362219,-0.14196264903789502,9.803075373996249,-0.0011146859694035074,3.2546980928758376e-05,0.0016007287956294623,7.03
-0.01727622014712437,-0.0861267605198617,9.910042521030553,-0.010845858654164448,0.011132355169911822,0.005614735185246972,7.04
-0.14192174524226864,0.06521084847006985,9.780050038342722,-0.01630337039779948,0.010247616533965751,-0.019866402476779576,7.05
0.03748470659867234,0.22359635737597705,9.696154407611846,-0.016431862458978357,-0.005787045355814276,0.010168868503175135,7.0600000000000005
-0.0011806968823600617,0.06590573646364316,9.76506669781248,0.001652879179097564,-0.0029243376710426663,2.9222298367420698e-05,7.07
-0.005948947787494444,0.007211648956270367,9.889776298148497,0.003787647930787928,-0.01125984282737238,-0.009793675824688732,7.08
0.060291942840292836,0.03693565527564888,9.741988754346488,0.011699626465110165,-0.008410361301338144,-0.00026570200404583613,7.09
-0.049191791428312495,0.14958916519614304,9.756187130384387,-0.0021644699575471492,0.001859674817786958,0.0031210530958325055,7.1000000000000005
0.15102723184635375,0.06277420756247025,9.872521407813823,-0.008952523160808488,0.009330141946729662,-0.010303579387040724,7.11
-0.0116122756947181,0.004812172430760604,9.802117573099773,0.004839125404088234,-0.01383245150248965,0.009404035782444494,7.12
-0.154754602690913,0.03944090263723042,9.705996959951774,-0.0006007181302768504,-0.0042213835721836524,0.03443467080614141,7.13
0.24353765547865233,-0.15652514353128222,9.797039650677817,0.002791184139030148,0.007582227502181345,0.006923135530274139,7.140000000000001
-0.007339884155547905,-0.06496957394085544,9.612187131240978,-0.015389894230981329,0.01464927624078677,-0.005453101559991012,7.15
0.08193414252207369,0.1385224998697093,9.864106008646003,0.018933057885616524,0.013451641803620308,0.005203698470360666,7.16
0.012476427591052303,0.06471581603116415,9.842616887337622,-0.010170955472879361,0.01200363950316752,0.00304198683194876,7.17
0.05101981084048858,0.14423410626119942,9.984429001277213,0.007067876282808619,0.00798453210127473,-0.007370286771429458,7.18
0.17428297719916358,-0.1299718269347872,9.773914126643348,-0.009126523790338454,0.007369089815084726,-0.00827821305708257,7.19
-0.00737144936453347,0.08289453004075707,9.938562404623484,-0.001758137115847702,0.0016379132975313732,0.00087446627911661,7.2
0.09452048773339668,-0.08749871599616378,9.60649955904726,0.0006763688250217092,-0.01022914250216187,-0.013492647673437407,7.21
0.15194848613250825,-0.09611506066147486,9.805288163252378,0.005573793935860492,0.009938967654911854,0.00657104175426134,7.22
-0.04978403380239567,0.04031635084681942,9.704940859100365,0.019270414492494864,-0.0016328641511765382,0.005219102675141494,7.23
-0.03230958447359504,0.20261198602695385,9.715825872899645,0.00026369605157071477,-0.004201011169234475,0.00402013324574396,7.24
-0.09647493941473072,-0.04224475378097649,9.794443976507967,0.009723089268144518,0.012464772985898357,-0.022389257094779548,7.25
0.090882918314953,-0.14639995029202363,10.017682917660284,-0.0035005096842345325,-0.005975757894730072,0.006100050512041838,7.26
0.2804254272361552,-0.0015441268944631408,9.906104363053194,0.015799145904870554,-0.017455235835557435,0.023265833488378355,7.2700000000000005
-0.1551248232854907,-0.010738472989973028,9.808192090969664,-0.004548329850127624,0.010173002866702125,0.006194432783564471,7.28
0.008476148511240952,0.020554957456897123,9.906206283846009,0.010341427658200914,0.005448700459397493,0.004130226344684272,7.29
-0.019112004167641906,-0.05289964952377555,9.66569152891119,-0.002671875970647275,0.0039868205599021414,0.006881660097180357,7.3
0.009797077426963082,0.04381455223215471,9.845768883738751,-0.0023838021286385815,0.0032149123618196046,0.004927192200428782,7.3100000000000005
-0.0025850788877812185,-0.06554156692895796,9.852080022157985,-0.009464711361005617,0.011663924347339857,-0.020831999344006903,7.32
-0.08650127835859694,0.07534962709762094,10.005798827889127,0.011846994354346899,-0.00835009616564569,-0.0018921738978603143,7.33
0.009380513486303475,0.07057599952632095,9.891674593120594,-0.0015379697943077393,0.005982137579836586,0.008953427820251438,7.34
-0.09097346482456753,-0.05325151194937583,9.699516065865616,0.006573131663357218,0.0012975607271414177,-0.009034333250766153,7.3500000000000005
-0.14189298223414598,0.0971281972599555,9.775349132134805,0.019311257988070835,-0.0023706664973802308,-0.004127779622909126,7.36
-0.09272995359758443,-0.029303407647409185,9.912952176768265,-0.0033047951274892957,-0.016487623755360507,-0.004558256399017432,7.37
-0.018137210460933455,-0.07079236863174851,10.097727176771643,-0.005302476816764081,-0.0038789259107057652,-0.005800346923458526,7.38
-0.03249165954227389,0.12655457671514955,9.751229745349017,-0.01881644823080718,-0.006709336970918376,0.007476976597168438,7.390000000000001
0.08753459400425401,-0.042886488748029826,9.689228167463858,0.0010075770280683924,0.0011063167337654286,-0.006024142887813401,7.4
-0.0001254906178680375,-0.010869595907795133,9.83389350507032,-0.017404106275988797,0.01410486592704765,-0.0241306943813053,7.41
0.25567993213244306,-0.033015259869081236,9.643537803597667,0.02005585473549501,-0.0046485515742192935,-0.0005035023845083917,7.42
-0.06811602627958836,0.1074033922292219,9.81420330753676,0.009791023554813986,0.010913343933925295,-0.008026153256965462,7.43
-0.03641842618441097,0.09609338975763623,9.803039216302025,-0.015074048121110666,-0.0037826598391319205,-0.0039980515570294155,7.44
0.13484396377638672,0.00474124897500942,9.921374386231225,0.008767023996428822,0.006687475390854859,0.00794751018394016,7.45
0.15196366308673367,0.025527813934928617,9.757761588433684,0.015465893866442955,0.00473348524036761,0.011490414348163988,7.46
0.01423517936060414,-0.07816325796434109,9.826893839814234,0.01706180973863027,0.007767332784414821,0.010826722930837389,7.47
-0.14940258527436487,0.05831667771716527,9.860726462404912,-0.010491203883460816,-0.018897626303962838,-0.005634077004428592,7.48
-0.10182125545765056,-0.03162808394175844,9.658291988706154,-0.004394868381442643,0.0008625437711608087,-0.005943733092282666,7.49
0.05420879886346073,0.10563122127284191,9.777427509443786,-0.0175916341822499,0.0034308003482785127,-0.0014751676807862855,7.5
-0.15986532562885514,-0.08668802991872171,9.588864054506807,-0.004483061441786081,-0.0013694419948729055,-0.007312736849286729,7.51
0.1068534792163906,-0.2265719036599858,10.042094005042488,-0.006931417489997065,-0.0017459415852710972,-0.0061407260515556365,7.5200000000000005
0.005835892602782013,0.047855535423388156,9.73204961563447,-0.0027135256392220998,0.0015383452328859074,0.0032943081470292474,7.53
0.09083820483916522,0.12033354836331665,9.831028753617241,-0.016504092443702375,-0.0033926258086694368,0.008115596079916989,7.54
-0.1976378597634104,0.03507151085445289,9.701906330326464,-0.001893116542029154,0.00986332614386367,0.006609729710692946,7.55
0.138493053002623,0.19649197088712628,9.484972381532168,-0.00048343775207298215,-0.0003629071667103302,0.010706522159635173,7.5600000000000005
-0.02423876568866981,0.050301140189972754,9.9206452893268,-0.0019829501801583425,0.0010428498065331493,-0.009257245683839435,7.57
-0.03948336885245271,-0.0016638511532035358,9.681555293434009,-0.012039767376760865,0.008234868411453752,-0.0036611822591071813,7.58
0.13089437156873518,0.09927098126142012,9.860196102193127,-0.0056080894931257496,-5.251399521799702e-05,-0.0022706430083640435,7.59
0.07559216506159465,-0.17081901632744462,9.92410848453716,0.0012219502397526757,-0.0027181575449525246,0.0007618509573827329,7.6000000000000005
-0.10886674317317475,0.2526642221749492,9.693637488051289,-0.006875669061657639,-0.0044094383557433765,0.004560090943125661,7.61
-0.08288149290178215,0.3210710874483768,9.806328848811544,-0.00944747730396383,0.011994468123950917,0.0008931962256491253,7.62
0.05247330355326856,-0.06567011136456202,9.794052418849741,0.0032252099161413127,0.006620577578812129,0.015640905731409267,7.63
-0.06377577728253343,-0.03715612311839205,9.818734863579584,0.006211512768384076,-0.004673510812590479,0.0022185224651967766,7.640000000000001
0.11873026092800743,0.08882807705576953,9.660233998878756,0.028249604329145774,0.0022329193963922535,0.0024769119200019167,7.65
0.08265628095279437,-0.057525406969393345,9.868843909066044,0.005385219172030532,-0.01741928871405973,-0.0037127169467182745,7.66
-0.23672706007080985,0.07982066984824521,9.664041118959243,-0.026455606355811238,-0.0012823713685110947,0.011569776569605703,7.67
-0.034759980576587905,-0.01434151512142764,9.738006795991174,-0.0039027241892518687,0.007364503254723086,0.012836367966011144,7.68
-0.17433473595155893,-0.06434224287246305,9.846668583512841,-0.003748721435345884,0.008774017737677272,-0.015258808451371285,7.69
-0.0713195496252298,0.015507021690251074,9.847874504220359,0.0057131414140043505,0.008104605903707634,0.011794333737597602,7.7
0.08557906580463032,-0.07281427184888106,9.86301671044363,-0.012868876979037037,0.006019668955802323,-0.01053109365378206,7.71
0.017939554752262873,0.039086786627112284,9.604109037074354,0.006520457184348356,0.02149993592411402,-0.004691206981021135,7.72
-0.028290062657844353,-0.2530098372834139,9.723012084646047,0.0061393965025121145,0.018852692869078095,0.009563894165572562,7.73
-0.011782106327885374,0.10920020838444766,9.713803899969873,0.007105948495658015,-0.014785647842652322,-0.017662764739039345,7.74
-0.09841206189742842,-0.020807578085419207,9.833231046695957,-0.0021978773313929517,-0.012568726485836242,-0.00756779364691176,7.75
-0.06491173117207706,-0.017399406180096857,9.970800819254192,0.00022437310960416135,-0.00677445216904325,0.0010936925133386696,7.76
-0.022397997531343396,0.03231215317459437,9.831628141400897,-0.0019240003641788526,0.001527652659633037,0.009058806091949147,7.7700000000000005
-0.1161582471569439,0.014929118604309316,9.843943605703299,0.007446661215474287,0.010006954588423971,-0.0013665385613227017,7.78
-0.01377216900259788,0.06934928446517047,9.839027312733084,-0.0093103694944498,0.0013763987562786704,-0.010847002735825463,7.79
0.09190070285865497,-0.010219288984751647,9.692796527924406,-0.007805347182265041,-0.008781785410108904,0.005166198241331375,7.8
-0.15345767246293568,0.264665658320081,9.750178541793995,0.02311807988159117,-0.003955154844648564,-0.0036005020597308828,7.8100000000000005
0.07595797660479764,0.11854536705986873,9.93564291278714,-0.0008423366917256474,-0.016805295008891125,-0.001216485342194599,7.82
-0.030111994211548556,-0.03499610802227851,9.820916889861342,0.0011933114461181987,-0.002079392339459962,0.009023294347656393,7.83
-0.1473298523312765,-0.11124992065364794,9.798086345812845,0.010833347940277018,0.011912503339095088,0.00035885899094639914,7.84
-0.011260336751573782,-0.07305646584843116,9.915444756049018,-0.009310045771346389,0.026580925526032806,0.0026717018597145303,7.8500000000000005
-0.07583071432096529,-0.18589321554412197,9.70053739987011,0.007064725011346876,0.006888445227727401,-0.005455646654064533,7.86
-0.06690803197785593,0.09484336808457342,9.92864743677014,0.0061180823108799385,0.00886341797452186,0.013834373055660463,7.87
-0.1207381202818987,-0.07088927966267904,9.853117661626621,-0.00926827564621755,0.0066255459664876825,0.004969571650351993,7.88
-0.06978294225028508,0.10774768916009209,9.657719334564922,0.012480098177314687,-0.00976984091471033,-0.006398722443484888,7.890000000000001
-0.050267109977738735,0.05030809015263729,9.925726859911544,-0.007334485725502107,-0.005300721771506787,4.512048721816234e-05,7.9
0.12319120190683278,0.013969400956365752,9.705126030598311,-0.0012134184780442315,0.013979993315620927,0.009107847896526909,7.91
0.17148215587398147,-0.12020641274150219,9.79796000338594,0.00857111551158153,-0.00012864449085802526,-0.006830929306650769,7.92
-0.08335804509811313,-0.0408694898700998,9.880174196476924,-0.0036510852626740645,-0.015460698480312791,-0.005220559355482419,7.930000000000001
-0.08140754071819051,-0.038232644937352823,9.598628692957647,-0.025417966820527084,-0.0029919624067509887,-0.007140482154628615,7.94
0.08076250968680089,-0.04897300212318245,9.855288483633633,-0.014165798803051664,0.007198857785122912,0.00499914870878394,7.95
-0.10233323042719214,0.04869369855846095,9.836459125572764,-0.003954096876007226,-0.00933253571620542,-0.012033962136441001,7.96
0.010849579874867819,-0.05824572212103432,9.785672312047106,-0.012498536264590153,-0.005284808240476311,-0.010219115622314727,7.97
-0.08499246405225952,-0.00270413869658499,9.730026750302667,0.013494701427394847,-0.0027723872022124498,-0.005766459049557737,7.98
0.1247672046353844,0.04113725815220324,9.819268308943496,0.009143285798190856,-0.0060432940151094895,-0.01899639452655785,7.99
-0.054972061557082265,-0.062409310057866235,9.925290752536107,-0.012087168392826635,-0.00081029498699789,0.003427393216894068,8.0
-0.08322278949615404,0.1396441091176451,9.740191641027817,-0.03971225995533049,-0.012198909920293072,-0.003806039776998191,8.01
-0.07430943782576051,-0.022808155210162037,9.978989256394351,0.020839651099431835,0.006301533951885148,-0.0016808272474095778,8.02
0.2763641127053878,-0.030941485128368657,9.931913697852307,-0.018705847463538455,0.003308433048134634,-0.014906556575229258,8.03
-0.03548582140508842,-0.06342362670324067,9.816268696976037,-0.0008971452905662271,-0.0037161425255218916,-0.000596876653149054,8.040000000000001
0.04143009437135325,-0.10674714498607302,9.935256200347123,-0.018711377663238285,0.007269174471051747,0.006987493544435289,8.05
0.06799180757375121,0.002634296772594766,9.701701194794458,-0.008167850454819915,-0.006538592787302347,-0.007297806360733234,8.06
0.031850050621829294,-0.11918404996064012,9.719848684131975,-0.00435697237304706,0.004188052855033836,-0.00824437756521209,8.07
-0.07725747266435622,0.05325163335030406,9.882442225317249,-0.0027616809053779873,0.0006227532185824323,0.015431472374693108,8.08
-0.043052364335429034,-0.12570057075757565,10.076935718682691,0.006634276044265215,0.002870898640109256,0.011602794555755367,8.09
-0.16259184971595786,0.05336774070206755,9.65962638066804,-0.0051501919599442935,-0.016686810286725414,-0.0043294805886461216,8.1
-0.005343856981000055,-0.04316613496050426,9.756626835777036,0.012316077331231615,-0.006977467407149662,0.011464548212172902,8.11
-0.03798293403286354,-0.04122969657757425,9.973050270795737,0.0030865023690084116,0.004347255579121549,0.006919464981362304,8.120000000000001
-0.07771952033560518,-0.04239214493860288,9.665962634558023,0.004263301964700799,-0.008535455302598414,0.005632417511698804,8.13
0.005992268013590356,0.07699426204696891,9.754520920691276,0.0021209911737085523,0.011956809606200531,-0.002812326923855919,8.14
-0.044711767983467654,-0.05049439620245242,9.703988157384469,-0.006570912941242215,0.00622968402310774,-0.0022819365121898787,8.15
0.10338809902545487,0.07752750345225799,9.821612665204958,0.0007898473162567255,-0.012681188664568462,0.000879128133293674,8.16
0.16029124713850257,-0.18627525332084827,9.915546372628059,-0.007042232976555024,0.0028573073849654414,0.012911345473874545,8.17
-0.05968988012717191,0.05740178807736414,10.019960434869857,-0.0020823591204162896,-0.004620585613758132,0.003345639383482547,8.18
-0.031830997049516876,0.03984188875252322,9.78191803905913,-0.0008058417993804749,-0.013003279301290933,0.006484024611430079,8.19
0.13689729904013825,-0.24160326160341647,9.741457013024679,-0.0026621784240627227,-0.006293478196618893,0.004846551834363982,8.2
-0.1414284705934927,0.022293229350831896,9.869480264666837,-0.02220756568188996,-0.019768531992007867,-5.2669295192814725e-05,8.21
0.015601642605561811,0.015656542629181796,9.723092253869869,-0.004935784592150947,0.006957664536469961,-0.006037718790198732,8.22
-0.10845844366472049,0.07068906791717643,9.812240711745542,-0.0033742166084865977,-0.003865483720921351,-0.012975367708553487,8.23
-0.08200370393119312,-0.014882551058743337,9.84112508753081,0.0036982802202419375,0.0013624306199748182,-0.0018320509639118028,8.24
0.1773739237781977,-0.0629685265733726,9.633703283179628,-0.0030266514732200612,0.01105177174841963,0.017665583077822143,8.25
0.11475735697565806,-8.826005337329245e-05,9.88687276327135,-0.002386366216001899,-0.006918787654473543,-0.010371648982031908,8.26
-0.030766847727204172,-0.06381759321789517,9.944362148624144,0.005518082051245587,-0.0013598322006803186,0.011105283559400079,8.27
-0.13534227054442838,-0.06969647260207149,9.729900238917319,-0.02633631233282321,-0.00322780027253781,-0.017729785613544238,8.28
-0.11214161652117585,-0.16723568777458186,9.654932076697413,0.004068770094298333,-0.0010537482637930353,-0.021026307388970822,8.290000000000001
-0.11648170531230924,-0.039019197934666794,9.709601969267217,0.00019520710500775575,-0.012411414457228433,0.008932042328742139,8.3
-0.0039417826580929695,0.10047198592280544,9.62691316422254,-0.010980451179523447,-0.012162851970542943,-0.005590698783309886,8.31
0.3122476330060987,0.013390021512952025,9.643592917832446,-0.004963004231579846,-0.007162127548247638,0.0003411729999594508,8.32
0.11127895995291437,0.0361847458406422,9.864081307719227,-0.0065662637757849095,0.008494483259010924,0.012104980450325226,8.33
-0.028964527643559574,0.13467932390903803,10.016863329702543,-0.007956857206664609,-0.019352937476364376,0.014190997472643026,8.34
0.19715910130434977,0.07194336322424126,9.768792973586992,0.002422083266486085,-0.006099723147292362,-0.009880955437532292,8.35
0.00549887845581914,-0.0828445013390836,9.767285399303397,-0.01860330602887519,0.013229853675699907,-0.004021588227625509,8.36
0.027077523378558767,-0.06978436397222271,9.789700088404315,0.021206672679079625,-0.005881002711499954,-0.00705449218302196,8.370000000000001
0.08777705677295222,-0.06735028765569806,9.771475159010427,0.007406035459226915,0.006065468537785256,0.019424361324688458,8.38
0.11157153293423189,0.0828797964904533,9.793899603489795,-0.0030192409016097173,-0.005412656816687014,0.006035586514981474,8.39
0.2064844747900831,-0.08793535218743787,9.9918943255787,-0.0052898164155250685,-0.002006188496658863,-0.015691442722424585,8.4
-0.07690839323717161,-0.03912508841133196,9.696852678311936,0.013396137730612634,-0.006354975240217382,-0.0041352844449526775,8.41
-0.1896681069577928,0.0368070225635118,9.794827003703158,0.005091857981418564,-0.00804145715344907,-0.0008753865528900332,8.42
-0.03900702741039219,0.02852290602272885,9.98605978225706,0.010637461662945056,0.014775674855703072,-0.010438015350687025,8.43
0.11797517838609993,-0.07894313286552078,9.821364283901328,-0.009619153773503608,-0.005049025051148078,0.00885145300209252,8.44
0.03108337136397939,-0.08543938022818667,9.74446759698652,-0.016546263353734315,-0.010637343583951955,-0.002120876602371982,8.45
0.14554098423751718,0.09836440417369137,9.859746065949217,-0.017448288631792506,0.0041593742084539,-0.0070718773818549035,8.46
0.07539061084074732,-0.0034791222325520365,9.839508940772328,0.005663834198719755,0.0028166661712612146,-0.011253576932624925,8.47
0.04686731274944597,-0.06848639567457836,9.778129828096173,0.016488342636882657,0.005827073113252295,-0.012137785434326493,8.48
-0.01613005455715074,-0.018968957129980386,9.865382572063785,-0.008119807386544893,0.01486430660892749,-0.008133032452866076,8.49
0.2264037745210863,-0.033512043378131115,9.745759868844212,0.0016034961792327732,0.012188502638995876,-0.005895293086630753,8.5
-0.21739249139300962,0.07130116529671564,9.642702813308482,0.0053655297019016245,-0.004998841195673155,-0.0046178757509103205,8.51
0.06496203499312822,0.0026481211843682306,9.848731051612695,0.007623502290173545,0.009280773705238013,-0.0032559716854963206,8.52
-0.009699698214888863,0.07678486828601627,9.963204800081538,0.010584467271875475,0.016328320506533843,-0.000169831285841215,8.53
0.21250927369053382,0.02086388512438843,9.794156662525166,-0.01291071087891498,-0.007874596553573188,0.019534779838275028,8.540000000000001
0.13207714558882158,0.03037777939988953,9.788044621204136,-0.00984895386467445,0.01874188368778674,-0.00571652847560647,8.55
-0.005055303814746003,0.13230589048394972,9.81313678529151,0.006268990670985547,0.008501495764054465,0.010710568503369986,8.56
-0.10459283746657946,0.021508661632348807,9.788985438912032,-0.0032412511293792978,-0.006917735197438511,0.0034697730079419156,8.57
0.13606865150662217,-0.09543764002225702,9.6532834898703,0.0045130312566010015,0.008865328737534732,0.01481796012794054,8.58
0.14675130384884238,-0.14947083818824183,9.672823466167886,-0.01011924918847088,-0.003242911776693479,-0.0035818480661741463,8.59
0.030594837372026625,0.02589922240246863,9.764998097096774,-0.01842531756797349,-0.006876755906883545,0.008716015955666104,8.6
-0.06645648627834805,-0.11228160783146422,9.72373751651055,-0.013510483936774833,-0.006645673679627803,-0.00886210682534059,8.61
-0.014618408287261906,0.010948390734008221,9.756713706346542,-0.002910318438025781,0.0011431995091965566,-0.003510554252504343,8.620000000000001
0.05487650005147933,0.015121505381071458,9.88845758059344,-0.012649984126060372,-0.0005280311807713899,-0.0014979013796696317,8.63
0.08310620475041786,-0.08803022493562249,9.872511211022797,0.02074822059241035,-0.012804506610012117,-0.009927539301122687,8.64
0.18503681188647225,-0.024709563814840508,9.74843631363435,-0.0003670544063087145,0.013192143219043375,-0.006541278982710975,8.65
0.14604848662801387,-0.01681981206649023,9.830058192654771,-0.004549483274498991,-0.005122397379154836,0.002375578157831695,8.66
-0.10356903317303656,-0.09296843449803764,9.78397692393181,-0.0034933480618894825,0.0034536968218262464,-0.012749634198761253,8.67
-0.16602943980365634,0.023621053700336504,9.933528957837895,0.010488750179008887,0.006040090201419689,0.012474938094895568,8.68
0.007798630531070778,0.27506636158284853,9.769532793069578,0.00813925977383946,0.004521589926240076,0.011744603953187807,8.69
0.10392379375367339,0.016127350690527942,9.780979304089366,-0.006314256679272589,0.012783566463918667,-0.009256322669760083,8.700000000000001
0.029425547571034813,-0.005326958487936052,9.718111795817299,0.0011394731583825308,-0.00426268599580222,-0.005704837891866399,8.71
-0.03287851574602459,-0.07967264746000728,9.789176040014231,-0.018137697740283842,0.01733468969997323,0.02371219311204827,8.72
0.011305488869987543,-0.07183874022998317,9.604168369490381,0.01881811649105355,0.020557451559494514,-0.014158582625459874,8.73
0.0798771594258032,-0.02324880287902856,9.87338707518,-0.008537051044993148,-0.017285034718346495,0.012176076909388557,8.74
-0.02494589214222923,-0.13588019203872945,9.845395429650893,-0.002649721633152316,0.012102577863714005,0.015075716651606924,8.75
-0.04061073542589016,-0.037848380807758424,9.678043846886512,0.021878402737887867,0.004604768071993655,-0.008493483581112227,8.76
0.08008509070408154,-0.08770991104420864,9.698329720615364,-0.00695650431137227,-0.005004572173254263,0.016876734896781993,8.77
0.0043159371226571,-0.22731065196309688,9.796837331744504,-0.003596457543360706,-0.011770489454117074,0.00512007998233058,8.78
0.047315006370757105,0.07782747702570958,9.727168035010058,0.006928666558241727,0.00017484376495016912,-0.003726180814897551,8.790000000000001
0.094694845419119,-0.004951167350875919,9.917355256808742,-0.0006965389764025576,0.014496370070379922,0.0031035419372057284,8.8
-0.11854972697256475,-0.0834634389398069,9.821715773262362,-0.008795324396119419,-0.0069254718333918155,0.020896647572129338,8.81
0.1726453409715003,-0.11479914608238494,9.840943531385895,-0.003996998851819059,-0.007995299817267234,0.002129805063239166,8.82
0.10646406479890258,0.11485248630870298,9.799731026840234,0.002324535226724356,-0.003127349393796227,-0.00767071329230366,8.83
0.006968509175396422,0.015282150067581643,9.650789823024914,0.000690700519403426,0.008932457713507426,0.010296567096585418,8.84
0.011810974938138555,0.026937480875429666,9.911622393705418,-0.011694247564574843,-0.006727732615919419,0.013642355628259073,8.85
0.12428621701770347,-0.006903848011860794,9.736858048028974,-0.007977441947180346,-0.004349955374573298,-0.002675951558636304,8.86
-0.06131758489303621,-0.06461133971634678,9.786527081197674,-0.0055945340757410965,0.003631501875879241,-0.0025323331896064676,8.870000000000001
-0.0874264519076377,0.10803677757977355,9.811568463588873,-4.543723752872815e-05,0.005059258487099519,-0.0018393004843382378,8.88
0.018495924070275057,-0.00791424215828295,9.562525950392128,0.007391336105029205,-0.009909490521170109,-0.010162564705238472,8.89
-0.10148936995425073,-0.08992180719754539,9.809314449300581,0.01940455629686148,-0.013682437311744447,0.005691239596508141,8.9
-0.06822842367173408,-0.17610051387254297,9.841125338522735,-0.0016748616455113594,0.004827428629035886,0.005642112705340309,8.91
0.0025963437141355763,-0.020269839486995678,9.820981975638263,-0.01020436221150131,-0.011142419556773699,-0.007840141365988861,8.92
0.016170734368147095,0.121918901937657,9.908055889489587,0.01739980203170986,0.00039146236412449886,-0.021175184439562768,8.93
-0.03208911336687878,-0.001662059864674291,9.90981829108938,0.00378554241787505,0.014078297614533672,0.002626302537753236,8.94
-0.15206551019300013,-0.03971061331715304,9.591516937708116,0.012811524679295883,-0.00211948289079067,0.002226342990558646,8.950000000000001
0.10459593479270582,0.15308662357182115,9.672378120426831,0.006133403657354934,0.003424525819330111,-0.007971884903002695,8.96
0.03043501816964711,-0.0626807349423148,9.819716377322505,-0.0016927534560703832,-0.0018625778076565886,0.007414999519167345,8.97
0.05923297102194797,-0.033731765262994755,9.696285673997984,-0.009742315604601166,-0.00811215581271213,-0.0021003779826007144,8.98
0.18142077251777333,0.0462830389860253,9.849748604887521,0.006713455702561095,0.00016126013648140835,0.008552753288774126,8.99
0.0023618171221854454,-0.1084046501133355,9.8891594043699,-0.013999733919429982,-0.011362818858294512,-0.00630240709034751,9.0
-0.0009141054001070003,0.13822729941629017,9.7846834974339,-0.006928511001762448,-0.007949209782688559,-0.019238111967794867,9.01
0.08695281050905027,-0.10836666791588373,9.944768392679057,0.02239912578644721,-0.003726960603914418,-0.014135148828905928,9.02
-0.21041167271761965,0.01392367226872652,9.822770086585809,-0.018391660718729278,-0.001651930607996841,0.001796710980028794,9.03
-0.0855822187319544,-0.2423518326611077,9.999709150673631,-0.007501210384318815,-0.0006009538252243704,0.0021705048822947526,9.040000000000001
0.13665975571924227,-0.007768282528368574,10.011251715869687,0.0025609798267150065,-0.02034668040990018,0.009996277104659548,9.05
-0.037684743621505076,-0.021154514375668287,9.88833087476611,-0.0125027543084038,-0.009509011209642237,-0.015387250577440139,9.06
0.017436502446945987,0.011944253058174401,10.012969144228244,0.000559220883155995,-0.005189482249856873,-0.0033638896932807415,9.07
-0.09395088830489873,0.02484725024922907,9.947147959130616,0.006369016134401185,0.005841010210063387,0.003032676645262131,9.08
0.1611934161652294,-0.21678273941882786,9.952299758237283,0.005592374070762235,-0.004211103584826005,0.004071678379251577,9.09
-0.26332771808960714,-0.10386374589655663,9.94390715988417,0.011081077134663027,0.003552529577622438,-0.0032282952317868874,9.1
0.09651863162254938,-0.003198332940410976,9.97503295173665,-0.004445007204789294,-0.0066997352261378715,-0.006284046655518093,9.11
0.07251947415255917,-0.25237130456550916,9.78244548381448,-0.005904651551575152,0.0003279873796948642,0.011601805700378318,9.120000000000001
0.11476132850403836,0.021092094835606246,9.67221721393746,0.0015217219720806258,0.005916428183028315,-0.001306012786109535,9.13
-0.15504869675515331,0.02888037065426538,9.785544771583123,-0.011296066002150855,0.007880035687103564,0.001990434367324096,9.14
0.03615176823929646,0.06546051636412344,9.908074676108052,0.0058011545167436515,0.009765278980559552,-0.008306702884339445,9.15
-0.11478842017632185,0.04295676769003035,9.624335789029692,0.014139259077869169,-0.004452084493790714,0.010720106376248786,9.16
