ax,ay,az,gx,gy,gz,timestamp
0.21047384201336566,0.009203565872662169,9.97124087638362,0.010732536237787516,-0.01617993342228097,0.013370612366415208,0.0
-0.009392686079165168,-0.017261258086952173,9.861867502370714,0.004727870803051074,0.019026527907525976,-0.02638012936092419,0.01
-0.016988328478090967,-0.08255174969735778,9.852679007570615,-0.004097554711123973,0.012206837766970116,-0.0003677019706365302,0.02
-0.0314608830622822,0.15852960532536722,9.85102560513178,0.0017810435730393611,0.013646682007983909,-0.011845337856168548,0.03
0.04049856362388776,-0.020972850241338718,9.672523078347899,-0.002477460908001327,-0.003490181483790066,0.001350178909266182,0.04
-0.014011170102639843,0.0016419445650543267,9.63148888079585,-0.014332934610839539,-0.009604279801406388,0.009544532700884505,0.05
0.003543472874603718,-0.08802695779500547,9.849657215578182,-0.00973612884743944,0.015055993904098116,0.008842096127553618,0.06
-0.03128083480436044,-0.0008016584760984429,9.714257428841687,-0.009507090645819359,0.018944974354573412,-0.005630428028440567,0.07
0.12471659697340681,0.23715149658984713,9.933819066176397,0.012044772346133858,-0.0003107898775114412,0.014513040342689477,0.08
0.0538848058712563,0.03275885745759435,9.797563871462573,0.0027661208586963427,0.005143968603446311,-0.002344574385048064,0.09
-0.2353352573157264,0.18929080132832213,9.75427858844975,-0.0066984859347335255,0.008313689345746977,-0.006631439582471203,0.1
0.044709872280492655,-0.007769583760814162,9.744458877301986,0.02375013932148198,-0.010325106153971841,-0.00937331149791447,0.11
0.05211801174326846,0.0554245509045913,9.760213797754059,0.006764660275727324,-0.0061214280837472695,-0.005630072113896857,0.12
0.18191372664215466,-0.225244263186625,9.9028964224591,0.0063564699108553235,0.014839890911398017,-0.0026656461767195594,0.13
0.061565305452602415,-0.05561645971157928,9.763088933956539,-0.007465266397566621,-0.0011955704959707278,0.008474070592422184,0.14
0.07881946837428841,-0.03992623229053851,9.809484942112052,0.012947341433576651,-0.010458665878168308,0.004045873195609149,0.15
-0.0040818435512161,0.16063153423143806,9.86663606374314,-0.006602908328353827,0.006931742531618576,-0.011226798066669295,0.16
0.04593500069261165,0.17062106443145306,9.751870356291914,0.0029524201503281005,-0.0015676617898140708,0.014001333815509236,0.17
0.07263544704978324,0.023248624381804178,9.926270662584656,0.0068368809530051705,0.02649065051375922,-0.0008064879630578562,0.18
-0.019748970594647523,0.06135540842269908,9.721854013262497,-0.0035318067248074477,-0.015175152749297347,0.007817124736158922,0.19
0.12887833880758276,-0.1263906369458656,9.665931491265159,-0.008632892668213663,-0.005686127965780016,-0.011494900536291305,0.2
0.11471094303895771,-0.06178542054594519,9.826917369358934,0.0013637189371335156,-0.012887855687614953,0.015845038585952695,0.21
0.11279660816479978,0.28839069288084734,9.703741495037589,-0.012472800001873561,-0.0031601232108210042,-0.006337148062947168,0.22
0.07777076898716985,0.18025557225984365,9.980287060479633,-0.0005536223260211995,0.005635515020947952,0.01748425560213093,0.23
0.0007867802367739787,-0.000767880777703508,9.854697351899748,0.005609963684606085,0.010649288263998675,-0.00025094644385999275,0.24
0.07238022296833173,0.08463145500609111,9.971114784929767,-0.0014454664227277825,-0.01955870316744398,-0.0092480513509003,0.25
0.05427584852935563,-0.09314557847815957,9.902056466752628,0.008282822329369124,0.0036339697310252828,-0.0074855700616050435,0.26
-0.08717553991905273,0.012884432961537318,9.758259160306233,-0.0019258308751355852,-0.00281422530656006,-0.018297926189868786,0.27
-0.13728714331101732,0.08772546482463027,9.895187792697023,-0.008037590057538412,-0.006073649624603221,0.000972976494155738,0.28
0.06422952301290391,-0.07443865614539527,9.853404601339607,0.012159436495457573,0.0021736772657749304,-0.008424172851739457,0.29
-0.10527542526303564,0.08041910806951787,9.864714714846055,-0.006989151253811497,-0.002613235678018286,-0.005071127479430867,0.3
0.029128316489909534,0.1594766742145922,9.819303627337128,-0.0004972889148290261,0.008179722683873415,-0.01077096139586795,0.31
0.07782144797914428,0.04380608065112748,9.942586703354383,-0.02363560724995855,0.005219387250541271,0.00904833459879886,0.32
-0.12425199304156065,0.10363666379764983,9.770898292908052,0.009927126810513854,-0.002646670173073427,0.006767692609653675,0.33
-0.02344964800824971,0.05318075572629676,9.764772761509928,0.0045131360097900785,0.004184364286155331,0.001750175674612998,0.34
-0.07725766075566698,0.08188886539408524,9.706910344457906,-0.005069858112928293,0.030837745050182552,-0.009118170649613075,0.35000000000000003
-0.0493926767822885,0.11863715050273123,9.776107702197873,-0.006080731843765554,-0.00014968049541022547,0.004607460928349201,0.36
-0.11164204675227048,-0.10071689732886778,9.736834853016616,0.0009936536677248354,-0.010171476204838688,-0.00783764006962922,0.37
0.08235718404035783,0.13534861651223246,9.557407321525115,0.0030523651479269324,0.011937969010804158,0.011432458959950455,0.38
-0.1560304101445446,0.04406392535295192,9.784299964538638,-0.012489801910685008,-0.007580773478319637,-0.019682049651290005,0.39
-0.001847186248324815,0.019739002930405643,9.809717016703976,-0.0006176667023226426,0.0025310168967105475,-0.011450716541276948,0.4
0.04228771398753501,0.24488462093387275,9.753404518866073,-0.002487262875787473,-0.00427088439679294,0.011340628737109901,0.41000000000000003
-0.13377071399663523,0.0066184200759138116,9.778154414904469,-0.013604357846148074,-0.009845066238782132,-0.0011652332718978923,0.42
0.01098127094198565,0.06775565612676099,9.926387620821162,-0.010083920346133497,-0.0014731609831772838,-0.0001444148536938515,0.43
-0.07592094079926724,0.008883695887506147,10.018786925743273,-0.0010519988792355313,-0.0031692660792892874,0.002566458272748516,0.44
0.009302443032528585,0.042140447718029675,9.961939579444667,0.0035743617649830056,-0.00745947050785159,-0.015343581611324791,0.45
0.044334133610806056,-0.017539773021855592,9.90671740630887,-0.009392890176729842,-0.004735621136694664,-0.006775091806635538,0.46
-0.013941448778394839,0.08881320048842331,9.711447552851482,0.01601307507510849,0.01463862007732266,-0.00885948439842659,0.47000000000000003
-0.13080618693447843,-0.08746537420299683,9.8017961554614,0.02248559795127408,-0.014144477857185832,-0.013446811232006644,0.48
0.0977172772616739,-0.009664501818659169,9.936843811411345,0.007791538219532108,0.0001778806990915331,-0.005115270487470984,0.49
0.019561575109243334,-0.09460552456032448,9.973303554649835,0.017374756866198816,0.005013740867260034,-0.010468945487112772,0.5
-0.06333931181051108,-0.1066614193620207,9.90573166300845,0.009553619082013336,-0.017161968832680945,-0.0013018054474985515,0.51
-0.10008587186262093,-0.045203067596831875,9.71578580428496,0.003245606860375326,-0.010609483845657398,-0.0036751594575331315,0.52
0.05883444736771576,-0.32764757228977526,9.934215950109577,0.004045913360857963,-0.0031767115956833525,-0.011628170003439244,0.53
-0.07602086827510196,-0.11314403882032374,9.738175625803542,-0.0034141309539871744,0.0013177324505598501,0.003742140802784926,0.54
0.11118139017335296,-0.011631477726356839,9.95982497948268,0.004844886124742943,0.0025973223030625187,0.011338186306559327,0.55
-0.003947453532375938,0.08611156125872527,9.709117069078433,-0.0006853018952556364,-0.00573902188669758,-0.00206503920443007,0.56
-0.08512124003219522,0.03765887762814002,9.777614825072272,-0.0003345521898549031,-0.012041409968000287,-0.004218569050188723,0.5700000000000001
0.12141485357796776,-0.004801554135731212,9.781530275351788,0.003625681073700447,-0.010937036203404091,0.006960159176799648,0.58
0.04125109561483403,-0.10222316996441641,9.90720760504466,0.008538454090270603,-0.00445845662965691,-0.004175506169789257,0.59
-0.056823012585502625,0.059130287836032296,9.937940808621894,-0.0005622817472842319,0.007623232021019155,0.016034854917903005,0.6
-0.005752791266593334,0.1500420522940914,9.708144736324035,-0.0004902837362789554,-0.006630884795094242,-0.01258215048988171,0.61
0.1118725348566133,0.09849159133353297,9.699052629888648,0.014941140454392368,-0.004078794008537429,-0.0035032353004510164,0.62
0.10853190697997867,0.1575281251120533,9.894291370750324,-0.010792600567375212,-0.0005026539880584378,-0.006301116605242615,0.63
-0.03490005939060018,-0.04718095985616697,9.717753835553596,0.0013734835390443406,-0.0015366319524836092,0.005309055176119571,0.64
-0.08296201965449533,-0.07477932022605932,9.85883202120881,0.014075881891434747,-0.003182712132681885,-0.0031603034888368054,0.65
0.14352419032306626,-0.010825504435818568,9.787472948460447,0.020709630472362725,0.0002680570438469442,-0.0037394144985775347,0.66
-0.046570508479689104,0.03632691954105018,9.888374359952369,0.030010284266612206,0.01585716479669785,0.006673655422667352,0.67
0.029742763489308273,-0.07205254037163995,9.703702310384907,-0.019596426612543478,-0.0035211773287135272,0.01801600211643517,0.68
0.01588210952531043,-0.06793495304952003,9.764824903892045,0.0008104052950379292,-0.016055054048360315,0.008805569949405187,0.6900000000000001
0.003099288213387443,0.03168991599038328,9.729426990145491,0.014285169090548697,-0.034387467686185225,0.0011801839089136835,0.7000000000000001
-0.22940624295186401,0.01434225089553603,9.779014989262564,-0.016437177407855247,-0.0017289458233236052,0.010159637158632866,0.71
-0.026504271891246697,0.0049984005588749,9.88681168342849,0.0029117795765523508,0.012543428057469533,0.0028269702663669674,0.72
0.22065776319673303,-0.05481140480246506,9.819401483007669,0.009302118711642408,-0.0026022713467665506,0.010827240407541062,0.73
0.07176120266409149,0.2189169769495386,9.719466192404608,0.004645524133274716,0.005417908812621548,-0.007416912402633376,0.74
-0.01958390320034896,0.02065843915467147,9.927548545268882,0.005390006883074131,0.009514808204942667,0.0034488481229723008,0.75
-0.09698813045816813,-0.04571960639129055,9.916750031239648,0.003060599628530405,0.007403829765934781,-0.002538270055722695,0.76
0.02472111121670617,0.07737031479192934,9.814066811263016,-0.0054997160596253515,-0.0017777040056873694,0.006324980570375397,0.77
-0.19771133958045284,0.1207232168898283,9.826513283212396,-0.006237455247397485,-0.0007355542120616266,-0.011514528487635971,0.78
-0.04125639492259543,-0.014903075885587619,9.73920919269226,-0.008197707752987594,-0.02561075140168378,-0.008601462354889507,0.79
-0.08670864141662692,-0.12241953060960167,9.920371452886403,-7.513130721547577e-05,0.006887989347478086,0.011517750575423603,0.8
0.04904101700546023,0.1041327523516469,9.889624309349024,-0.008153166758349584,0.012379143447790383,0.004328961543152075,0.81
-0.09712258365487043,0.07115558606779751,9.831523553100014,-0.0003309925994197283,-0.008409977830333155,0.005947223884090257,0.8200000000000001
0.18407114340692687,0.040367983113780315,9.940263518426384,-0.011557948921334627,0.008425532592857714,0.00018395491557754535,0.8300000000000001
-0.15996722272098315,-0.1402632954352792,9.901915278639764,-0.0035225777522661385,0.017986369683981346,0.007747789289678159,0.84
0.018703649062349944,-0.3148066182310709,9.764590672876022,-0.000834814678043346,0.006031933379565844,0.006581704293984504,0.85
0.02139278993350998,0.18817223277807615,9.912029252577286,0.005688455312171108,0.0003571522766734871,0.00551463617556755,0.86
-0.06955144170358256,0.04408324746816279,9.824830992430362,-0.004090134910722433,-0.0018277458865289418,0.0037112873702094635,0.87
0.061170520727135025,0.021181641134551198,9.790036372170011,0.006575761511123744,0.018365523396754645,0.02619623691092437,0.88
0.08832611869904956,0.05480146261009425,10.029904348150774,0.013828122390606643,-0.022230836661257036,0.00794644064161077,0.89
0.10905599121974402,-0.09590696687837674,9.776743909634959,0.004736461184939871,-0.013771293743924147,-0.022224978442106077,0.9
0.012852416872851952,-0.0053580723597792985,9.901486935467188,-0.0030617353241296987,0.011825632089186688,-0.005304358955808291,0.91
0.008206248231576632,-0.010437732498681306,9.877969369009707,0.006515941362801849,-0.0069095143373816914,-0.0007567111005360503,0.92
0.03670298138669185,-0.11945698953023827,9.854184476426642,0.006989000648824997,0.0027423273740421333,-0.0035409454032671135,0.93
-0.03843929951654391,-0.13278713381812812,9.768188049175993,-0.011063834151668754,-0.005812381785519479,0.007089121207843485,0.9400000000000001
0.17412385228686433,-0.012971004602286007,9.735859423022234,0.003604370820392948,0.0017996846711040451,-0.023437925405173723,0.9500000000000001
-0.18427962696445455,0.042897987114680694,9.813593102509415,-0.0072110687932553956,0.01932141137228895,-0.0026512384653476495,0.96
-0.04782220898629633,-0.14181729670811796,9.784190899090621,-0.006884513620583451,-0.0008287441652021951,0.0036967255256069136,0.97
-0.032260239344499377,0.04170138260680903,9.692113433387638,0.000579028596526678,0.004855110949464551,0.004742971158203623,0.98
0.10469519918324642,0.10811449306728133,9.841188225672525,-0.011530430790564615,-0.006753017807719193,-0.005237285212103684,0.99
0.01744432142369958,0.13150305850028765,9.680885130065942,-0.010072136162655803,0.0203135257998793,0.009477583744083288,1.0
-0.0012903534676163746,0.07247673593306622,9.955416752180053,0.008934628152728075,-0.011385471675526752,0.011983065803471008,1.01
0.005799248403274109,0.04093448779423969,9.897002231076247,-0.004450446911303776,-0.00042937782741520633,0.004300725481857201,1.02
0.042959809240296194,0.15027424260310718,9.814951609491017,-0.006032698808009776,0.014803742528435875,0.003768587917762492,1.03
0.12749573700198974,-0.05040757148235088,9.620069030728732,-0.005876324167957575,-0.02071967799013952,0.021082133579396273,1.04
-0.029436844386707257,-0.0709245810962933,9.681298135664282,-0.0008280157678215007,0.009893763897169377,-0.003080192443372279,1.05
0.004342198622131229,-0.07227620740182435,9.667172305777893,0.01196419361598973,0.00019916741449632812,0.008847949422701378,1.06
-0.019835689691059324,0.02951447787831686,9.956183107306131,-0.015484221934400575,0.0017715580579246912,0.0015513386380737173,1.07
-0.04943087363820571,0.015538489461131084,10.000608673986486,0.014285338057571893,0.0015174519925815575,-0.0009157161331546663,1.08
0.06452124079516415,-0.059743103244676056,9.780871681037251,0.005517612102455207,0.0062056561302558004,0.0033635387432341493,1.09
-0.07522207628645682,-0.01600329211308564,9.988522582806409,0.010401049322241908,0.003099265825438802,0.016420879716887403,1.1
0.19838632680595164,0.08506878607432995,9.825802689214076,0.002661447293120658,0.007898884755166403,-0.002731342950469454,1.11
-0.25820046280857806,-0.1220925639878186,9.823557038288069,0.011203687552285839,0.011150331877597086,-0.023718293551345568,1.12
0.03321063503934373,0.0014276373970165542,9.633888616094884,0.0023765605097564005,-0.011665595865269092,0.0012472682365558996,1.1300000000000001
0.08569267070416686,0.13375046172562563,9.779208973410983,0.00704767477067524,0.013699419992388573,0.011089424246338653,1.1400000000000001
-0.03619003303046547,-0.06257444579760606,9.63547610216706,0.004516670807321378,0.00625315244772318,-0.004920707119479223,1.1500000000000001
0.14434214634258577,0.1953680847029562,9.776449925129524,-0.006108468771655922,0.00891581109686648,0.007274986719231503,1.16
0.01770109057116871,-0.017907650482294337,9.767666102878257,-0.0070403406677032035,-0.00858015823349928,-0.0004337493461952424,1.17
0.018476410165344057,0.0017608571278448387,9.77449657396523,-0.014773941182471223,0.021188184560363168,0.015441484437395212,1.18
-0.009852405657804292,0.23775422406219102,9.84928690371523,-0.003105582951629278,-0.0016588778026087794,-0.007368867285745644,1.19
0.04293374823246678,-0.057526059515438724,9.735623113311567,0.0052363508308568086,0.009353110561955771,0.013503018288929207,1.2
0.06320518337928974,0.06150900720247818,9.815437740281043,0.003796633714816316,0.016380318515002677,-0.02283967136995804,1.21
0.00037610505305422383,-0.07106471970165919,9.806224908105918,-0.0033598621769587635,-0.008298888140815853,0.0041129173897972915,1.22
0.17254035404336127,0.020365684016912185,9.793162780805147,0.008974654080493496,0.003944394800685496,0.0023761958202442725,1.23
0.04113464651801044,-0.06452227013363535,9.926500227986606,0.01671330412380711,-0.001046757709098443,0.018786490827468926,1.24
-0.016513632050918707,0.15665325685220688,9.852334547945295,0.010493194513181918,-0.0003024583506477573,0.010226367202695017,1.25
0.07482845610215003,0.057227948111023434,9.862819741217479,0.009341306486483082,-0.004456116094189248,0.010846370641021834,1.26
-0.1334522079449212,0.049623849199075934,9.777605723558576,0.00537818737236232,-0.02463172687333803,0.002554592758196117,1.27
0.019031738373187078,-0.12628955918258578,9.893674382964074,-0.003920136152825581,-0.013323745895843252,-0.0020699601310711245,1.28
0.15854426851149234,-0.09598531354355368,9.803855344268737,0.004101511188678453,0.012384352125905773,0.013038051939904134,1.29
0.05822165179308591,0.04099477713088922,9.872902696576903,-0.012986361969301474,-0.016018858287362346,0.006621045108871998,1.3
-0.09543394626469624,-0.07636286552625,9.837246807177683,0.003661754447567666,-0.006038905124613286,0.0007249347581635835,1.31
-0.010466502288838669,-0.013428745257630029,9.83230681852473,0.00354544408072217,0.004238444128823096,0.0015174212461460277,1.32
-0.18203595884184037,0.10309217133192555,9.757788432524316,-0.0024243191427810065,0.004367389949250942,0.0008206486519126477,1.33
-0.13405898526034196,-0.11381527992182916,9.812141849833466,-0.016018921205744743,0.0016538016442456244,0.01269567073443588,1.34
0.23207883552285136,-0.07955287489299911,9.793306323316918,0.005468551900719676,-0.007860303831644964,-0.002141169677906106,1.35
0.037504687084574495,0.06952138572161944,9.771139011385628,-0.005989599062568431,0.009144692995435348,-0.018504515478120712,1.36
-0.05719493224476298,-0.0003168028052224391,9.84629115663795,-0.013804242850254785,0.018179144586669988,0.010128719309973637,1.37
0.06788023667349935,0.07759225694551496,9.924387377454824,0.0015572207618840491,0.004426991640555753,0.02633312594508034,1.3800000000000001
0.04927863077630093,0.08631136560478614,9.750319178042862,0.0022773531096263967,-0.014760704106355724,0.005032390428299103,1.3900000000000001
0.004859496552874327,-0.08916678648028774,9.851998572943582,0.0004317812592639495,-0.01814725992526723,-0.004289116397997052,1.4000000000000001
0.009209288335211644,-0.03451799140308809,9.812735153494284,0.0009660560487984134,0.004293413618393768,-0.01863575093711766,1.41
0.09008477190894187,0.027164861371296353,9.939389415665827,0.0024846870923778052,-0.0013974178103440117,0.018653436000086038,1.42
0.016369453896443578,-0.15890633042442534,9.769264030061942,-0.0032120813704986117,-0.006229025439854863,0.00043216748557373683,1.43
0.13950968229842994,-0.03264639323048062,9.947321739138559,-0.006248246240265029,0.009618906798416425,-0.001501504460867564,1.44
0.020317828166588447,0.03992242923734851,9.881705345521178,0.005038337569869912,-0.005988154678508427,-0.00319308421979475,1.45
-0.061615730497220446,0.08986184824520323,9.749245721669205,0.005723335112326017,0.00841621960203289,0.000579292654587451,1.46
-0.0332854073639383,0.11093379471171594,9.854144801609623,0.0045491178834427765,-0.002650531896537389,-0.002705414194772241,1.47
-0.031004864127063755,0.04535309173531882,9.755907223639191,0.0003192731026078167,-0.010823982912469268,-0.01073851341828568,1.48
0.04849119358942829,0.003276692926113468,9.804740774848252,0.009296259225362303,0.0005764981399578665,-0.012820584845163768,1.49
-0.009291813693854619,0.012451485525125138,9.830247881043876,-0.008093737080007393,-4.1503322939419474e-05,0.003077888893510205,1.5
0.02356668371002653,-0.1924083853822879,9.807655543357845,-0.004212360006332586,-0.0034840660202902257,0.007190616624159466,1.51
0.11758500415686712,0.05055687246493014,9.877665372463424,-0.009605005519151505,0.016567651909419202,-0.022538409436939865,1.52
-0.05228322899579083,-0.10868077739341193,9.804279776408714,-0.010248374067089139,0.004783493002236229,-0.006903820079903633,1.53
0.012710242295128144,-0.04311078435750981,9.753361513718913,0.001960955453644194,-0.01977976678517612,0.006000509349289468,1.54
0.05708174123225325,-0.11673309143316038,9.822032906290229,-0.00031323040480885,0.004812884292076044,-0.005509568922606971,1.55
-0.020024468030061728,0.006902905311211677,9.675001606219109,0.0028574904887831683,0.011289566836168113,-0.008079556474473294,1.56
0.12350858458807593,-0.02123973618202617,9.860223582328443,0.003846229417490567,0.006388834915766816,0.006859383324100719,1.57
0.07738524534235978,0.1321705509534223,9.870753138446878,0.0014525953346352291,-0.007148566761934192,0.0018945598650276171,1.58
0.04899111182553455,0.0019927525363323075,9.753138686649008,0.016376616809043825,0.001825986247238878,0.007929581888238654,1.59
-0.021847428237451134,0.0679839005752466,9.792231412853548,0.014084796538238551,0.0012501742468058875,-0.008411249810604284,1.6
-0.054310020073496015,0.06126464147019496,9.736510730394945,0.01628108272356539,-0.00203948259618417,-0.020880845937957564,1.61
-0.05763609580573131,-0.0033750127484529673,9.679064093563786,-0.005471957241452745,0.0005854322087810121,-0.003434211247619294,1.62
-0.05105434200535898,-0.08146909324393309,9.826862552347297,-0.0016014412894647387,0.011433411114815285,-0.014041564162284728,1.6300000000000001
-0.030092258037301024,-0.032502226287318546,9.848837399760724,0.001157859450624325,0.002872062578699606,-0.009403058142808679,1.6400000000000001
0.09567217069420057,-0.12958778795787035,9.63583960791756,0.015726369758437532,0.00369680027486478,0.0004113441716113715,1.6500000000000001
-0.06830010150539596,-0.21142889666281348,9.66057337174935,-0.013243450310312398,-0.003072627285846015,0.017610003403598685,1.6600000000000001
-0.10418008433688751,0.04887277900349701,9.853487341731832,0.00849745730224208,-0.008718130415863981,-0.001961089783480078,1.67
-0.019034899442042126,-0.022036183019649765,9.589894960776256,-0.0009869285185636909,-0.0031303171843673223,-0.001094568196283,1.68
0.015382439218745398,-0.11270659116751199,9.885575670448063,0.004385788349017995,0.0017049665055999283,-0.00681780456386334,1.69
0.010776826459867314,-0.19941043302945785,9.782370996694985,0.010701120862065682,-0.005955791327587015,-0.010344164691065543,1.7
-0.06514964367131741,0.009172304657593333,9.755335069914883,0.00787496435185423,0.007779027351696118,-0.013630415847725088,1.71
-0.19032677546703083,0.01955416728694677,9.759946974430841,-0.0035131989486534205,-0.006904534277170131,0.0010022196278425314,1.72
-0.008000599468000814,-0.30095817793170876,9.92332533762088,0.011104553130335926,-0.0004064146644912961,0.004406161612198064,1.73
0.09552607288771575,0.05034257415028675,9.83469594721189,0.001109371569470847,0.007508150143448037,-0.008827692038233234,1.74
0.00957541458781882,-0.161854641693158,9.702930560040546,-0.01736228893539709,0.01692386880549723,0.011217084357264687,1.75
-0.08606739005282613,-0.1757640802528883,9.912291016937694,-0.0038436343309484707,-0.015978338001150543,-0.0014808644675794733,1.76
0.1138046866391356,0.07861829588013912,9.88533393657047,-0.015620288721759893,-0.007068873911695759,-0.020704917861436245,1.77
0.07541786112564608,0.14269312768959128,9.878143094602464,0.009338011002278483,0.007919289730238104,0.005936763435035161,1.78
-0.07409386145475151,0.01648724766486612,9.754893047132596,-0.004631743279037807,0.008971161242503176,0.008195894817366555,1.79
0.004163460212341795,-0.17562665069986055,9.817301494570012,0.013184680894907609,0.0074603426007569884,-0.005690663996308941,1.8
-0.021630951554176173,0.017930807580945427,9.609487383730656,0.012630103418330676,0.00927095790861002,-0.0033053638869105007,1.81
0.010955900377650004,0.12598930746685455,9.767634423226589,-0.0014671004530744975,0.004364243733053004,-0.017711114379033624,1.82
0.02268203610353428,0.07066125675477578,9.848699506836583,0.0012415772733017849,0.01084052815514627,-0.002129076256836245,1.83
-0.12364637371004304,-0.05017823611223404,9.814290966862796,-0.005544197714162915,-0.0067958442203311445,0.0017560062325387982,1.84
0.00855738873710992,-0.031247122917149813,9.774676310605892,-0.017871545103327648,0.014321227742230885,0.011307275129266834,1.85
0.18389693765479592,0.04068439218079878,9.613080766704524,0.01374379208202639,-0.000253940191406403,0.003905543610586152,1.86
-0.17322745571118323,0.0005917145745470926,9.8141138700038,0.013570916566992487,-0.005924082459057126,0.01973999010199556,1.87
0.040671026785595574,-0.025308632010146565,9.912148163367766,0.012503490186089008,0.007513390081102229,-0.012098676091172647,1.8800000000000001
-0.21113491952785324,0.08253985082410727,9.898226762807754,0.018900858679269054,-0.0013997810797764592,-0.0015959946159811614,1.8900000000000001
0.062109639423947476,-0.09125249395567372,9.920949693893501,0.002049293186463854,-0.0031850231480839604,0.010045537278009756,1.9000000000000001
-0.26961083319723667,0.06404815223028619,9.812038347617248,-0.01677295713004015,-0.005732928938945282,0.006437148883031443,1.9100000000000001
0.023783356507815902,0.0016670057486312965,9.722926167598422,0.012182936794470777,0.0012291714208537091,0.0055227528204188515,1.92
-0.010655658186600836,0.03207088531128854,9.622586563121507,0.00267711243076226,0.0021047226737780306,-0.0017987439224173968,1.93
0.07944785316478485,0.0012035182081106726,9.673238411393168,0.00043875993908255417,-0.018391409575634694,-0.0001276243812441717,1.94
0.0025653987707217416,0.008253694641729292,9.712041143098505,-0.008573195071385835,9.70018889968222e-05,0.004874129657945443,1.95
-0.15689991932235908,0.005797916971795906,9.774775991591612,-0.00868586566251119,0.02055887442004203,0.007765301714646202,1.96
0.10323241952744384,-0.09003631582879569,9.688651257268585,0.0009102147573017607,0.008822653442469654,-0.016740513532151547,1.97
0.131652880671847,0.010647693823495107,9.726529193387398,-0.0068865323963631575,0.00520025443805421,-0.01062567455142755,1.98
-0.009854898788638294,0.05479531212873476,9.880052233545396,0.01213560029677881,-0.021920384931662654,0.0060094489548287,1.99
-0.021991814632898093,0.1978199380755726,9.780359352301597,-0.005661477338192953,-0.012818599510753006,-0.015451964035188446,2.0
-0.06696702587598656,0.08429601160186222,9.766916220495476,-0.011990736807932023,0.009457340792225632,-0.020753689003199988,2.0100000000000002
0.09054881112917855,0.07827916045885702,9.948273725519096,-0.013340407345636393,-0.00936890187690976,-0.002956150665535544,2.02
0.028655447828431543,-0.16243206421079742,9.799426299257672,0.0016870716433179508,0.003492228441261843,0.005698006418700886,2.0300000000000002
-0.05975997801249422,-0.01161277021629135,9.705831068509102,-0.0067054670422370035,0.006064087350610121,-0.006110641327946802,2.04
-0.2649580097046765,-0.251702783593648,9.733845328088702,-0.0013499075723182475,-0.010705300830002042,-0.013784941079148013,2.05
0.016571045529117107,-0.0936554869028409,9.8907411514131,0.014817298337256453,-0.009478502652444593,0.001644850677154564,2.06
0.09515969462184523,-0.12251964036416728,9.572616914842637,0.0015870928484893313,0.0036211783863570064,0.0034858693072946007,2.07
-0.027986276222446805,-0.08775274649199852,9.861096592836995,0.022032879640378762,-0.0005046137645106349,0.009504334848032862,2.08
0.09928128933043816,0.10278150448090191,10.017417579042094,-0.008421251722861083,-0.014957980350531338,0.0202023493070668,2.09
0.05525636357356152,0.08876578212030041,9.85708412881578,-0.010554125299852578,0.00017164735182000773,0.010306533084659316,2.1
0.08776820542286407,-0.13151322135734503,9.76044098284854,0.015898817003623816,-0.0017797827893938265,-0.004358256112102168,2.11
0.04070443080837072,0.0919821667966616,9.785557524137552,-0.0008883257348468043,-0.0015150671453315826,0.0003487721134153444,2.12
-0.024459504141745535,-0.16502649774233777,9.716550031773021,-0.0030711456463610397,-0.007018683930303224,-0.004522282124153191,2.13
0.1432966531321944,0.029157742679834994,9.767793228102677,0.015750490477205618,0.0006004404336670011,-0.010665597784849488,2.14
0.07319353628138461,-0.13320364099465098,9.73920088765167,-0.006408481514056489,-0.0012301397845423977,-0.005911952735789355,2.15
0.04289326096394075,-0.1837071526592654,9.964913264020318,0.0027141706767532946,-0.005130642987880012,0.004875095917917011,2.16
0.0918432584129259,-0.18260209280210915,9.8932247056624,-0.0016033715360460215,3.478054926667085e-06,-0.006596172845942554,2.17
-0.09424233876952565,0.14123629783287894,9.744609555534215,0.009859491433084022,0.0032320338505270425,0.007419199118298121,2.18
-0.02379027529849656,0.18249813068794257,9.929750612753036,0.003931639602713487,0.007839812581287988,-0.0010206942675468494,2.19
0.04794510962175544,0.09983321985091656,9.926828132935636,-0.0058045670562696374,-0.0007599744830065994,0.0167574867880718,2.2
-0.03947350244492316,-0.22883473495483797,9.88352983978465,0.00988697690763753,0.009293492216761803,0.006258626530673378,2.21
-0.14958117150857422,0.13753497954643373,9.792828523142774,0.006591389213771797,0.0035085784328664927,0.008616619919398858,2.22
-0.06532604428921406,-0.43891932595250077,9.759036065582675,0.004009226309475572,-0.0019483395808532118,0.005300407131725749,2.23
-0.06980749219471692,0.01851387777739764,9.663689717922276,-0.012044724780660092,-0.005912662487304057,0.0023130091920784087,2.24
0.010131737417367821,-0.06914235632648524,9.747260392470492,-0.011437476484437596,-0.014169634240151085,0.01258305916214145,2.25
-0.16401457826661103,-0.14491954993121808,9.821241827445768,0.0010843967977817812,-0.009776774302137534,0.008961930769572314,2.2600000000000002
0.04553140147558147,-0.022841980496377957,9.856199989681336,0.009963351913687024,-0.017099642660219756,0.011342431572909841,2.27
-0.05371867940208328,0.06417862522459004,9.872529997430362,-0.016407892189640002,0.0010154387899664987,-0.031510700635931484,2.2800000000000002
-0.10953876679881075,-0.18306090942309147,9.954082128099198,0.0044392797724894005,0.0036493148000595085,0.016318177601932656,2.29
0.019161860941242673,-0.18040609404755892,9.846226554230554,0.005143711392691633,0.002033977415445406,-0.002017206212023506,2.3000000000000003
0.0009966844794531457,-0.02226995607049773,9.896498356022299,-0.005538945045425805,-0.007122783385434446,0.0053808180016190685,2.31
-0.026185389977729418,0.19947834632140515,9.853128822675158,0.014536945422466335,0.003649288938036383,0.002208171928977645,2.32
-0.2000512336918855,0.13773328247174163,9.943633095535116,-0.00843661485942046,-0.004187085899142034,0.007746029659508464,2.33
0.038493960448431744,-0.03804284176757553,9.943348067020004,0.023234026297245674,0.004154798072032039,-0.01810682614764462,2.34
-0.1758472221152534,-0.1349254499370157,9.906102971198015,-0.003924746642609449,0.002829662762430252,0.0010198576633568951,2.35
-0.2771610315257211,-0.16131447809745375,9.71301677306575,0.0206132708041504,0.00970322072762169,-0.0013687847710555142,2.36
-0.03129302200342977,-0.10576815563928786,9.668138585829167,0.01831759412598096,0.01088599285076952,0.0002686417127992475,2.37
-0.10934845324417337,0.048497331596827724,9.934490418578825,0.006913219477289976,0.002826480560169376,-0.02027050076038178,2.38
-0.11807132144950186,0.033250966011628226,9.71315619797678,0.008278951581485871,-0.0048896162597448075,0.004358613130251278,2.39
0.02633566873808718,0.016720248026095917,9.951478299362384,0.005756638764073741,-0.0016401060921278892,0.004637646632834541,2.4
0.11715661380943526,0.23915684557641073,9.827512852019074,0.0038571233169870395,0.006094814750413001,0.002424485775453042,2.41
0.035880297655648284,0.07444513376359804,9.77574829235789,0.0022324905490700114,-0.00031706249786135404,-0.0048565896227448545,2.42
0.0012615494540823347,-0.05755003358624128,9.751941724568205,-0.018454512402622653,-0.01744200994219744,-0.00927373207550969,2.43
0.011663133867054542,-0.09767464688760812,9.930444007816936,0.007347779175957945,0.009661251568103326,-0.0012797548318164056,2.44
-0.1544370612957731,-0.03001351268555762,9.701927724720298,0.0006352445272197719,0.0006168348436129836,-0.009848453692083455,2.45
-0.0393016279679496,-0.14177563268386015,9.664998357963151,0.004462116679820504,0.005328614788331739,0.01051936489068624,2.46
0.1554706199090139,0.15910776786620764,9.671007482247827,0.011823366555698933,-0.006741360268973908,-0.015917286853448273,2.47
-0.12764863688014946,-0.1578763486138519,9.944614914743207,-0.0024264024823524837,0.013656107866108007,0.013829017356334149,2.48
-0.293507733854208,0.07608757222515539,9.78938413978495,0.0011734130918567716,0.01601497527691567,-3.3235700592762045e-06,2.49
-0.046723567479747576,0.059387735623875317,9.606801517703683,-0.015432589626767664,-0.0007452782769842891,-0.0031099344403545575,2.5
-0.09191689338242987,0.05706645718320901,9.901495835804393,-0.006310910705757601,0.011267174342719366,-0.0014017871149681275,2.5100000000000002
-0.09330075008702679,-0.10909461548945217,9.7619777400362,0.008630644541446837,-0.003374033078419808,-0.013055620936171972,2.52
-0.06130740122638411,0.216242178128041,9.8506163820047,-0.004412682151460191,-0.0021321961240621566,-0.006882890606018416,2.5300000000000002
0.04444412393609494,0.01889250704637034,9.67422477308124,0.00596714038063082,0.002955689763656613,0.012681202847254996,2.54
-0.030369244576994043,0.11672050150821332,9.844569733484606,0.0039497569995034084,0.003345448198497403,-0.01574661405974639,2.5500000000000003
0.07585937778775226,0.010043923999185304,9.699272068214704,0.00012873426918756637,-0.005127502758253596,0.003849748770709609,2.56
0.057388987546856875,0.14654552673331953,9.705358045294673,0.0014974769144739007,-0.0014147278685227613,0.015205331165412275,2.57
-0.030900344538349018,-0.032842321165315796,9.777130701130101,-0.007287467903650006,0.0008031619989940365,-0.008937425801307072,2.58
0.02741655727275181,-0.04806228318781246,9.676208974885082,0.010452197552596028,-0.007038888486574431,-0.019380392758442066,2.59
0.02459034474617995,-0.03744409592363975,9.778650188551325,0.011884284118042585,-0.010883506459332818,-0.011587450243312062,2.6
-0.08918410052011011,-0.032022628092058,9.760975395400603,0.003190009572466617,-0.016520936986712694,0.010654501622376703,2.61
0.1391355917626846,0.06413848634123694,9.784929388129967,-0.003403597189871631,-0.0027954456700222353,-0.011703264583483624,2.62
-0.0511068466092868,-0.022826575023743877,9.807183883196192,-0.0009999445271745057,-0.023360754651767564,0.016829848622718382,2.63
-0.043299506790872196,0.11757365567820353,9.928411239017041,-0.014275841369110765,-0.0012270406668423153,0.0011644151425795673,2.64
-0.09550922470744576,0.049071504683676936,9.84053866300367,-0.005393739468577843,-0.011977201710131367,9.95867672887248e-06,2.65
-0.05777299626707913,-0.005939217985832108,9.754371006661918,0.005291090406326531,-0.012825564872204973,0.010203718292421232,2.66
0.007359644822328865,0.1477221846396218,9.60379016977141,-0.0001136174783350937,0.0030573996783121848,-0.02797794306663949,2.67
-0.11430872407869946,-0.05610784168002095,9.95371449749262,-0.019539613672404355,-0.011915656199845356,0.008273985069444831,2.68
0.13230829316173393,0.03089039991316374,9.959362610138374,-0.008872350766206624,-0.010478428664180943,-0.0023279323574503753,2.69
-0.11235390319453614,-0.2415296409101594,9.933069346054818,-0.01744543222050542,0.015293935174624976,0.008308564711252565,2.7
0.032906329025911195,-0.0632498168630162,9.696239355139287,0.00583743015633003,0.006465253339472233,0.01086288682458309,2.71
0.05018789584359065,0.05026425048233735,9.706931016254963,0.004965833404029703,0.023686023973499285,0.007073130795103561,2.72
0.2800473318363981,-0.09096172850966934,9.751730794816513,0.005347718404990785,0.015032802234102489,0.005497898432194424,2.73
0.0032009351504200916,-0.25953805968836885,10.016486113433054,-0.0024750255738121385,-0.012797375780270688,0.019220179023935958,2.74
0.06264879443521602,0.12282001741562253,9.7513722000533,0.007382734785666736,0.006111921892047579,0.01041180166984893,2.75
0.08427398368174518,-0.10677071243575278,9.883047504660551,-0.0077915174397929915,-0.02213113725014824,-0.00729221633359595,2.7600000000000002
-0.14885192462089117,0.10897401642183749,9.662995385517695,-0.012818166638614289,0.008199665418533696,-0.008666394020966533,2.77
0.05763575113815857,0.035743223895105355,9.822458648936559,0.0019423601703311144,0.010390307683921863,-0.006104481148931041,2.7800000000000002
0.0010584490498161349,-0.13519962120126303,9.78107807235346,-0.011928805960918379,0.01708329539401327,-0.0007160599736862467,2.79
-0.0032632115319095045,0.056574024148805996,9.845341772089359,-0.002381117455621865,-0.01563589027436043,0.019926173545745905,2.8000000000000003
-0.197178270182467,0.11260822093145989,9.803251969621183,-0.009854117509696926,-0.007616182066874795,0.01443077385974392,2.81
-0.12432578553890994,-0.08363126149670473,9.628293449545906,-0.020941759049275227,0.007701043617234983,-0.016507022736646955,2.82
0.20846634826754193,0.12050204788500601,9.87084339271617,0.0113893236012312,0.02124070220618971,0.008477801595332629,2.83
-0.04660822537233341,-0.027322730520774437,9.687574580407977,0.01864010548127039,-0.001486346928223855,0.023068941610489488,2.84
-0.0952082782830259,0.0024570270117124813,9.80734079932987,-0.012825588754875437,-0.008217561820815856,0.01560501781486802,2.85
0.21792826775136695,0.06839610729301393,9.791411126399936,0.012064190132776174,-0.0006424518151017772,-0.0024358653339289996,2.86
-0.09203258728820217,-0.007863406069151679,9.899501314334062,-0.0009627249855297264,0.004270232692406114,-0.0012760457010305623,2.87
0.24292726159435662,0.09184807860090945,9.750179981739741,-0.001233497824411872,-0.006907560198502095,-0.00020293827326725613,2.88
-0.11454892208573822,-0.12009876485583304,9.651217901527875,-0.0029040046179394127,0.0026006046334748466,0.009300689211663363,2.89
-0.03817986344512645,-0.07010053397275605,9.86228834600106,-0.009816346934297933,-0.004663975206217371,0.004951909812486111,2.9
0.0015945596576339444,0.02400786173303885,9.684767020896388,-0.004368527858472533,0.003517655996541776,0.009679560994398172,2.91
-0.07262573334442358,0.009688081421767532,9.845407933116508,0.009843106007014319,7.268100990831555e-05,0.012280964338572014,2.92
-0.12506624411696635,0.034997973353140796,9.9528137517326,0.01741315551421276,0.001965323973866368,-0.015815513347951768,2.93
-0.08460491053700063,-0.09675083041776494,9.745417106256838,-0.02156262561318589,-0.002304014664653756,0.0025717836934690064,2.94
0.10715055411374025,-0.008373058989606717,9.745877421400595,-0.0006568582554746646,-0.0010460440837136808,0.0069835079825495755,2.95
0.1141786276251156,0.03189138662356376,9.78598922528715,0.006558669282172556,-0.01787265345743739,0.005020592952842409,2.96
-0.10282692801671967,-0.049356536310964115,9.693345152196983,0.008393398664491293,-0.002217929575824606,-0.0139946027741834,2.97
0.02497931636249152,-0.07784698854411674,9.935411112443044,-0.0050699926813379485,0.012536258819441499,0.0008253756596998623,2.98
-0.14738969071178465,-0.1867695471347341,9.997407727247818,0.004474487378730135,-0.005547653057830738,-0.003805582315385071,2.99
0.1263246068238154,0.10801175035021843,9.800713941554518,0.020647979961255017,0.002048983658815192,0.004490894498175002,3.0
-0.13699401257525423,0.09569998027817882,9.832993477290021,0.008988250564730228,-0.002456300615059284,-0.0010492575243513835,3.0100000000000002
0.1495411848947295,-0.05263884481639798,9.835322734451456,0.010178538948695698,-0.0010244205210733059,0.0028651477998342906,3.02
-0.10361641183921973,0.05204117322283861,9.795385690719536,0.006258194800592618,0.014733723917753048,-0.012340799210363332,3.0300000000000002
-0.04525598748875412,-0.05619703907019259,9.978267986247952,0.014317377978902904,-0.016568748026458666,0.004799186688366001,3.04
0.0628442644179383,-0.27922396688863227,9.693621569023138,0.0002709500407347125,-0.005742526019459626,-0.010129822694034616,3.0500000000000003
0.09456900321262195,-0.06978040254549067,9.877694488143472,-0.01487566618027479,0.021831220523163008,-0.008136049647990704,3.06
0.0297630237168446,-0.052945324385793927,9.760050488488588,-0.00841488982217737,0.004642732071475121,-0.004902267438127485,3.0700000000000003
0.10886611572625876,0.10307782811728312,9.911107516023668,-0.0117981342142312,-0.006532035362602513,0.010017474995541143,3.08
0.16652211340936612,0.1298247621546135,9.828835509147867,-0.007672914912824507,0.00033102679993408235,-0.0005374187695416481,3.09
0.037259457713459614,-0.22741753683816093,9.761358872347914,-0.0034226673228561727,0.024736775095301953,-0.007358468717981736,3.1
-0.07710453926273314,0.08668482862662417,9.960038633393188,-0.00545029749287162,0.008232953480933596,0.011694097992939984,3.11
0.002359824198171662,0.15082395039250424,9.7332904014146,0.0012407080354192737,0.007429044539587811,-0.020416530853074672,3.12
0.045220713315263755,-0.12559302531344363,9.831422525549677,0.0056829316697328755,-0.002660717201739778,-0.006843063143147524,3.13
-0.15177906830286478,-0.029152567005738268,9.687076870855117,-0.011183385571075335,-0.00024241277567106734,0.003641194358063296,3.14
0.1592482718198043,0.2151220275892595,9.739793037179426,-0.009662111314794662,0.006194724336487984,0.0031619858577713114,3.15
0.0010357582378162232,0.037059093516737605,9.799992087757165,0.007170199362902437,-0.01867919118567382,-0.0012301085268204579,3.16
-0.12261182869549048,-0.10567180525214073,9.773261465616475,-0.006220942748705259,-0.008644208325943032,-0.014230017592286962,3.17
0.026545109908748105,-0.030819538864007824,10.097141069061786,0.005135063505256129,-0.005752840564254544,-0.003545149563590848,3.18
0.12462362462376729,-0.038477417493490866,9.746544059942249,0.010726340496885898,0.00045070374644598553,0.01026505012539711,3.19
-0.12572894659524111,-0.06961344905181674,9.780631096316327,0.00246775746025476,0.009930618978166446,0.013362684552603737,3.2
0.05993582948710591,-0.0378082073749745,9.902997497430283,0.0027844711357377138,-0.004036004022575702,0.01008903933238789,3.21
-0.15929781823527112,-0.010631099256532621,10.013035161936369,0.015379188259644176,0.009811546182271738,0.009818367954236044,3.22
0.08816003921744858,-0.02458256348606366,9.744305892827986,-0.0031586089834610472,0.0061966972752934115,-5.621301973342916e-05,3.23
0.10749019822081368,0.04993176529480247,9.792257340858304,-0.009787801869255519,0.015965112353278976,0.0061409392771215035,3.24
0.153953413047309,-0.05826348203715858,9.867452815617819,-0.0056891530298281935,0.0120310621733737,0.0016076272896522793,3.25
0.01607029107281022,0.034959768795586856,10.050704617605156,-0.009961682265140165,-0.005093920772792031,0.013620679770395432,3.2600000000000002
0.11535157670589487,-0.0013352526207363706,9.792518374065706,-0.01865038910885791,-0.017097568080247382,-0.0018355332912563535,3.27
0.2153446648645576,-0.04200362283106429,9.798033939486807,-0.0019815415624408503,0.001465559544231611,-0.006095514020069672,3.2800000000000002
0.24039453196510557,-0.1359261032626384,9.840285599538557,0.004270991044630405,-0.010034915243186707,0.006291695056349533,3.29
-0.03150472719188594,0.035678004267771415,9.934564912858301,0.004114330641872591,0.0025150887905638,-0.003337866119855842,3.3000000000000003
-0.042275404456671745,-0.057144394491352536,9.823594994569904,-0.006519445334888927,0.0034627135871752907,-0.010814432233314311,3.31
0.02831263409288433,-0.06927937212611422,9.762890205748265,0.0002768824429811452,-0.01830648533807084,0.007616828491230282,3.3200000000000003
0.07552081716639782,-0.005389221100140427,9.79468215474658,0.016456823952442697,-0.006403325496762732,-0.0029081997731197303,3.33
-0.06245957809318458,0.018506070843256544,9.859267443197286,-0.013151116702602796,0.016311036368522967,-0.0002914573433255952,3.34
0.05659817283876448,-0.04251943090626713,9.907087154026685,0.011761015948581323,-0.006370014371509198,-0.02315822262189884,3.35
0.10558315148897256,-0.1351684626500079,9.890800185426487,-0.004269488989791392,-0.009386494169079811,-0.006593087880213117,3.36
0.12348459925175986,0.004795682472515112,9.899157401440894,-0.009372038038050786,-0.0029876540325419498,-0.01810377419515729,3.37
-0.032812319033387376,-0.20014998729491748,9.737006816563163,0.00947151255151066,-0.002249794302662126,0.006462640668051658,3.38
-0.07824767600102585,0.12487682321796034,9.695166288248096,-0.013002413725423113,0.0012203046773774364,-0.02265721467508878,3.39
-0.025547106521758203,-0.06236768364858522,9.823439793363587,-0.0011816905477172643,-0.0032170611689627377,-0.0012084833998029245,3.4
-0.08020566480178332,0.06284329944321869,9.746997785783096,0.0012711178030529056,-0.008477377541142857,-0.010154958955099071,3.41
-0.007544017853272631,0.025084229821762706,9.77767449249585,-0.001245012794732585,-0.0026216252814573243,-0.014001515339558526,3.42
0.0767736156075832,-0.06545192086983449,9.897100296079136,-0.01109190409595087,-0.013239023515415171,0.01208580583358882,3.43
0.059409826762678614,-0.06671065629985348,9.591310033016088,-0.0008427251467120053,0.0041296608973000175,0.0016425398971148884,3.44
0.04520466789933436,0.1551828664343364,9.628706048864876,0.001706096579822904,-0.004503225057951055,-0.004055310210713624,3.45
-0.08925632222017862,-0.05135541934507781,9.802929059950078,0.004463498875451483,0.014922850280721654,0.008002597571736408,3.46
-0.14324688175945607,0.11795363777407618,9.645296069658865,-0.006588413344449785,-0.02015083854338,0.021004854303165184,3.47
-0.09979242313493465,-0.03764777869333919,9.830564170572883,-0.012180925640843106,0.0030466773346111433,0.003460675595828756,3.48
0.046854497558710274,-0.09403156858460787,9.80107643452261,0.0067879470811110345,0.004655680402292959,-0.012554448481203863,3.49
0.21066247597939824,0.10691127695579959,9.963439474621332,-0.00907754266870707,-0.013187541140228977,0.0024782115422738926,3.5
-0.12021226253903823,0.04358527007725177,9.728778112473753,0.008742336868860168,0.01803485549809256,-0.002156585100960628,3.5100000000000002
0.043351659963564965,0.18857590705818458,9.833999909571595,-0.005299473358792261,-0.007000492100270332,-0.0017549877587234998,3.52
-0.04316566594321865,0.024539601335583985,9.838384829783234,0.008401549736584945,0.018352761784047048,0.0038254315436855443,3.5300000000000002
-0.05172350991991264,-0.11167947546679138,9.838139688029438,0.004518000133148114,-0.008050623086927252,-0.02461725466674786,3.54
0.0877464244743746,0.08313268537844998,9.859857478496462,0.003817127984974676,0.011342917421395456,-0.004621315453108467,3.5500000000000003
-0.11166262982122133,-0.19640560335686622,9.750165059264202,-0.0038501166176542812,0.015154763239383537,-0.010803721387632857,3.56
0.23117578593252022,0.023143193245610365,9.769996241808334,0.010955616599223159,0.017020813014190707,0.01863595135617707,3.5700000000000003
-0.019004210925657808,0.21154187111416523,9.729908415296231,-0.00293449146260473,0.005870579430637964,-0.010520537947487443,3.58
-0.06386171145431592,-0.10271245280609094,9.692835357318682,-0.0026666570019998233,0.009130079795602769,-0.004480351804088818,3.59
0.05405819110704994,-0.12352201258219216,9.881904652577797,-0.004718738913641102,0.012138957384849443,0.00040608324372182924,3.6
0.05038640883157816,0.10563744773296507,9.718404795388906,-0.0032644124195818853,-0.0011151452705206717,-0.026170197699831203,3.61
-0.046581286428618564,0.026124604392984214,9.854142147466877,0.011549432318306565,-0.025497839742076752,0.018221655694378832,3.62
-0.04980561594725767,-0.0932244488893127,9.84125566861953,-0.004648372662072161,-0.00527467064859929,0.01093570886188294,3.63
-0.16597083491512654,-0.06163404979443158,9.903625428334216,0.003255631485315784,-0.000599961606026233,-0.03264136258173811,3.64
-0.2321498114063978,-0.022276621302290873,9.771541170659559,0.01285459700287859,-0.003966818451701488,-0.0052403697893593565,3.65
0.01693115952247395,0.08419128710869639,9.911035778817208,-0.0005701646101854723,-0.0013864578160869834,0.000758983419343753,3.66
0.057343252734967945,-0.013658275027415604,9.808855722435549,0.004007371351328181,-0.012592302748687965,0.008050070865120136,3.67
0.07003908786971688,-0.04335838810133721,9.883782332195688,0.002210432143579832,0.0131104593109058,0.005781979593157638,3.68
0.07963567457550873,-0.08946819982716447,9.713504624161583,-0.008529386717269907,-6.189550061029008e-05,0.005037000306031063,3.69
-0.0289748390484426,0.03781529090908195,9.84294242691411,-0.03318227222514526,-0.004539346610608479,-0.002852331690519352,3.7
0.08658470903202842,-0.015936270473658528,9.819502630320512,0.005705351716283455,0.00038226774591719237,-0.005598744056485714,3.71
0.0702787124231724,0.241371739519353,9.717348341377415,-0.019679640080506603,-0.0014609913018446019,-0.008785994455786076,3.72
0.11256570433383668,-0.09420096491477839,9.69888638119929,0.00726364863487898,-0.0005839247417309153,-0.019818194686490195,3.73
-0.008238014216464504,0.23168715923151512,9.720625344424564,0.014232547602046284,-0.007165542194299992,-0.00021470350969194567,3.74
-0.08770479050296605,0.08341884009528636,9.7747417763818,0.007919098823095185,0.008817617536790483,-0.0033223957465553827,3.75
0.10674343999889468,0.02485636945184385,9.758467682595237,0.01699602141275707,0.0038667600468101668,0.004050357708368112,3.7600000000000002
0.26693089658407604,0.008240792104909713,9.982679067658003,0.007952520804928438,0.013978238564296237,-0.010299081475341695,3.77
0.025410691106194386,0.0016426193641529995,9.869600359874129,0.010340052821491308,0.011732518328535016,-0.007780548573049842,3.7800000000000002
-0.1329582785186813,-0.09814840579561118,9.948690325674873,-0.0007187680797530425,0.004325771729344064,-0.0028486252930164015,3.79
-0.08601984498425462,-0.12567149277948805,9.790270288009046,0.014889793374568545,0.0026537429144876602,0.011676854275729755,3.8000000000000003
0.16452191276790445,0.015425439670369717,9.787069118313601,-0.008281073249377945,0.024323845396993723,0.004305250966415033,3.81
-0.11018892921666264,-0.010865486364509248,9.74374107059827,-0.0030594390517994004,-0.0065021842677862604,0.00162211510823835,3.8200000000000003
-0.05038144013112216,-0.08465536919945515,9.782276833564058,-0.014852182916395592,0.001956355361442175,-0.003558538636229462,3.83
0.02700827403170902,-0.1186534493717379,9.846407783744944,-0.00851710624631762,-0.0019960017924973155,-0.019234873525116478,3.84
0.10916006991811228,-0.1183417726503955,9.832114197324522,0.007657592444757867,0.01343092066191008,-0.004439968970769393,3.85
-0.017476969148797622,-0.008687181035946154,9.709201669294913,0.008356505936946805,-0.0003616053751004232,-0.012708029241159165,3.86
0.10921367851743702,-0.10159566809998583,9.860696828537975,-0.003306284901957755,0.0025503876190340826,0.006035904995823538,3.87
-0.18263109856584694,0.14495330916201787,9.728416018821926,-0.008645060885684801,-0.002293573753720643,0.017609291025557132,3.88
0.12654712935987092,0.012996353085367111,9.735447859183399,-0.0031884330205802646,-0.004869367637113273,0.024739439125204196,3.89
0.05964003000905232,0.27162102713231845,9.89694180221247,0.005304975603197599,0.013156802999011761,-0.013036265075693956,3.9
-0.05312873211412309,0.02311508423381585,9.757320394064058,-0.005097655248195991,-0.006446754551399592,0.010448152514800078,3.91
0.06492848598226202,-0.04757506493033654,9.678011545789515,0.00037757616349721925,0.013015271878880979,-0.013526603870785796,3.92
-0.1352822669527781,0.003637109504014931,9.759495286740623,-0.0025137568731812897,-0.01077786749316207,-0.004995250419567849,3.93
0.021458674314787103,0.1319896932628238,9.856245069339263,0.010517713811531855,-0.00668388307623384,0.011560501151521626,3.94
-0.10077231717444689,-0.05737453113333965,9.613289126810173,0.009141740336633874,0.004598949874832762,-0.0043104463662151,3.95
-0.09589041703334264,-0.1605250184911148,9.880848684667162,0.008299824130944737,-0.004646422311893056,-0.005698951473970155,3.96
0.09300558142807308,-0.03390104955958943,9.885252797158364,-0.0006525594919185514,-0.001544046873647286,0.003060597100713971,3.97
-0.06883212783194324,0.025589544957836743,9.820368996107103,-0.0016611991956496945,-0.011344435597400672,-0.004417512845758585,3.98
-0.20793731365042853,0.07931496249843879,9.754325076493133,-0.015167591576509407,-0.0146103543230152,0.0026943044901850534,3.99
-0.023403064664039328,0.05252246756867841,9.732068246032195,0.014348316462719439,-0.0055879515167882,-0.004437365216436822,4.0
-0.029075989158679812,-0.15442704581772604,9.57675411703999,0.003934766035779835,-0.005264986813863956,-0.006729205365193942,4.01
-0.1787955772647441,-0.0110139505308539,9.736656390281057,-0.007591550351860421,0.002563396454743115,-0.007539611501808135,4.0200000000000005
-0.08563717394084663,-0.01365620993795565,9.755535943164334,-0.005975239914944764,-0.015361508611761806,0.007976057202294613,4.03
0.07930046752374227,-0.04314985819430132,9.826122312280262,0.00029089016417749986,-0.0016543771469669036,0.0029973781326082215,4.04
-0.1111686569436981,-0.04250104675051958,9.88040159924797,-0.011787444474110668,-0.00022711169829084667,-0.025926555303839204,4.05
0.12111152499835665,-0.11510802970680223,9.681809287199487,0.0017559749379984053,0.01289523029396504,-0.008552657079501673,4.0600000000000005
0.07503329855038438,0.01957609952502515,9.74887405466009,0.0034199241819417485,-0.015622610540164637,-0.004180846535752195,4.07
0.0409571333626407,0.03387144784722809,9.846951693864176,-0.004466915436419312,-0.0017338533196383935,0.0025643934681721294,4.08
0.11389509124685884,0.005533048137703097,9.814785915289999,0.0037201179132454777,0.0006812525734775052,-0.0047663717727628495,4.09
-0.10561552504025438,0.15128709917534022,9.826794936209641,-0.0006061681418837866,-0.00431339327728819,0.011102896164804943,4.1
0.052537086172920404,-0.14337041860888752,9.953568583952192,0.00844419754488414,-0.008414476363562606,0.01197829679939457,4.11
-0.14539232744976832,-0.014564606495060632,9.916261830821691,-0.005689155026288919,-0.000185113306861613,-0.0011657590051158855,4.12
-0.0373313536764028,-0.16923775836379124,9.894733763453054,0.010156057700336308,0.009346098277620682,-0.0067646278105419145,4.13
-0.029561483033649333,0.12476052168002486,9.845529902700344,-0.011600166552182576,-0.009793284556236575,-0.013811756708401585,4.14
-0.023166129313703526,-0.1458377643797214,9.61836726779712,-0.00448285389068644,0.014638187214146345,-0.012578162002028624,4.15
-0.03945961681993829,-0.09618039216390961,9.981930121780044,-0.01994023136738671,-0.007812528440229118,0.003918239784176657,4.16
0.1558716975309186,0.014339581705077315,9.728594349153788,0.012880318346070094,-0.0009506112187645453,-0.008345016463126338,4.17
-0.12674184009245076,-0.08559866884533496,9.923576411860777,-0.014116113881275356,0.0013222104980857466,0.001683425917859038,4.18
-0.08230656659337987,0.21295599322807102,9.977911247469336,0.021917479837801835,0.004793414653793131,-0.012978096458560356,4.19
-0.07170895337864541,-0.04775000163735699,9.87735149111575,-0.006098101356979008,-0.006792798944748824,-0.001929662542403488,4.2
0.15147838903001942,-0.009818231131605222,9.844785373746976,-0.00393268431688287,-0.006112221417539897,-0.01377621445262225,4.21
0.010579493415617192,-0.07288372082948809,9.763368218872243,0.0012509771813787535,0.004005742074931102,-0.005830753495028028,4.22
0.08891505308147203,0.20905215589773807,9.557000444096259,-0.00023862368341004387,-0.011530863731215021,-0.010989034467293575,4.23
-0.021521526182681702,-0.05878400406836264,9.94688270113367,-0.004643440130128127,-0.0055289861645202295,-0.012158854935810625,4.24
0.03221508710008919,0.0577408108718607,9.99209837221411,0.017411566546818937,-0.007497205909642436,-0.010078076452484491,4.25
0.06556915863547828,-0.026450102218264566,9.639327317995377,-0.00782930296003443,-0.00231105532539604,-0.004875675695114919,4.26
-0.08332224884240834,-0.06672640605045259,9.693026693268813,0.014066916202317977,0.010348417801575256,0.002273620990991164,4.2700000000000005
-0.16525248122538222,0.022396718749237432,9.743917950656828,-0.001407143097612148,-0.005679589365663921,-0.007253385039363041,4.28
0.21301534917236742,-0.04796583040408531,9.774417393505704,0.00540265917448403,-0.006033818402072677,-0.0025613628554526425,4.29
-0.20456296760601433,-0.03293626578109257,9.994801263685257,0.0019654495080599515,-0.0004251071011262281,-0.002781664389802626,4.3
0.037628157364936216,-0.10630841294985933,9.874079622670154,-0.009038736309161804,0.020821019569105627,0.003316794828154362,4.3100000000000005
0.14305806859923342,-0.05204539154604246,9.784006244083148,0.0187123082675412,0.0021054855664255283,-0.008967187767578898,4.32
0.027512761097513022,-0.11594402935690235,9.778086434893455,-0.014731306331042499,-0.001982388079505637,0.010905811816268396,4.33
-0.15789229064580299,0.03068858822782955,9.827247230973722,-0.016239229188432666,-0.010393492994934592,-0.006064670994143155,4.34
-0.06510448278407296,-0.02286543750625841,9.790290641666276,-0.0015315768205190312,0.0025536043616549587,0.016795866779445574,4.3500000000000005
-0.10779215413281416,-0.10942268737631347,9.913640390916424,0.011125549025127184,-0.008286803322384542,0.008157411648219832,4.36
0.026692217770959727,-0.008620135128475996,9.818313111946523,0.004327434561222366,0.006426466364306335,-0.007535486035328105,4.37
-0.13634377792090707,0.015475458177555364,9.71041975583597,0.022283859455335002,-0.0033137118709746687,0.011162790237434536,4.38
0.085553762484302,-0.10542384386390798,9.857455510917209,-0.012934664115494153,0.012982957784118652,0.015012202672105584,4.39
0.1547907845907193,-0.0010015094675250309,9.705588930364556,0.004260231991036661,-0.003785507885581409,0.008966097182972052,4.4
-0.13445288071228073,0.11227318548761363,9.906921170256817,0.028436281713230805,0.011932908774481615,-0.01389779057912017,4.41
-0.004675993800046097,-0.031321176175091496,9.716250616958856,0.006182731513941748,0.0001600578808790934,-0.006145432226604484,4.42
0.08711618165944938,0.02693859055077811,9.648334903381649,-0.007837364331073533,0.010766436918549227,0.005400870765113231,4.43
0.053345502036943826,0.13329615855060564,9.81800229831214,0.007982786193046255,-0.004355001754948028,0.01379735554805056,4.44
-0.16681219439646902,-0.08060470179658806,9.638117672597822,-0.0008005610632670178,-0.002566666902414196,-0.0036683617169611773,4.45
0.07282162027977418,0.04373884322160021,9.740587973554021,0.010233608207817697,0.008568010746605906,0.009934491298678953,4.46
0.05275575270836939,0.09178979366038431,9.917920281855976,-0.013601964897706906,-0.01896630282770379,0.009605848233497298,4.47
-0.12171242611169637,-0.07913972043090098,9.865234901376837,0.0009835137931256408,0.0036444321777590943,0.0071472089716067425,4.48
-0.13906578891623464,0.03966683318592559,9.706715824735603,0.0007804369080068713,-0.005287127249031717,0.002070704993555034,4.49
-0.044627662986165065,0.09582105089624504,9.99496365572229,-0.018932139590255723,-0.008268016759505068,0.0013133374063811127,4.5
0.0726879197014796,-0.02803833102585417,9.71806634879329,0.01431190252053729,-0.001074858551449489,0.017379584030612565,4.51
0.09180900878981631,0.06183129076199147,9.737081521748015,0.0010841935883499707,0.025994680747439554,0.01763850351779056,4.5200000000000005
-0.031754905951654415,-0.09695017083749301,9.960371082904913,-0.0032292306395100075,-0.014107834281307812,-0.016399607780151558,4.53
-0.20158407345650742,0.10497066895638385,9.864964961123901,-0.01130371474251323,0.01617945729311106,-0.005620761658081281,4.54
0.04442372613525089,-0.010039762264833609,9.739569759523528,0.006077113982677097,0.009004465365125221,0.011060564557544372,4.55
-0.005331973096589308,0.08145888054707912,9.743718318564818,-0.015616619356462478,-0.007971608061689965,0.012565798618477014,4.5600000000000005
0.02768267041924008,0.06671997022637229,9.669673042280106,-0.003637996424167201,-0.006750200420271536,0.0034645659161515697,4.57
0.11185565628427299,-0.02006823578437135,9.88118691883945,-0.014498322971863115,0.01006823047961714,0.005598876344249072,4.58
0.07657645877169501,0.009651776358778905,9.809493897881133,-0.00826335668830552,-0.00798074165891545,0.010327982005112977,4.59
0.026444323024464023,0.08507919233868423,9.765160992949252,-0.013587433471285021,-0.01045366405596972,-0.009603175198694011,4.6000000000000005
-0.026119598808020977,-0.17658009640410274,9.867624718057582,0.005406211409344231,-0.010719640565305515,0.0013757374044270608,4.61
0.009438064094113532,0.14443143156830796,9.83465735545898,0.006300616959162904,-0.006176326615298753,0.016998419953047735,4.62
-0.10339466485714105,-0.09150502768715575,9.76283322779169,0.012784442208134652,-0.00670145172130598,0.0028209514748033537,4.63
-0.15195977491490498,0.0626185055127484,9.774696776757219,-0.00072003880869954,0.014605913762025934,-0.01585238931085149,4.64
0.031730964962074795,-0.007998212217244295,9.819226141269688,0.01361556932234375,-0.0036443256427719146,-0.0012237713441841489,4.65
0.12235231983955655,0.06683314073351877,9.844494987180775,-0.0008739022716327504,-0.0038612773146767,0.0022591296612959333,4.66
-0.20203432020394652,0.20390764749313484,9.929059437821167,-0.016442959683182153,0.004104002468388211,-0.00022897041123353081,4.67
-0.01290433275408031,0.034741099431799385,9.864886531985235,0.025249957091667243,-0.0024979372578329373,0.004155594475453137,4.68
0.04512510596593455,0.04913484845040882,9.641667656780616,0.007803557728487908,0.001948078851627297,-0.0033167592879533633,4.69
0.24362578072354235,-0.00895327142056206,9.692063196229087,0.010946054129214778,-0.00448283275501492,0.0025231832848876014,4.7
-0.07166266746865674,-0.007185410272128894,9.90478474403539,0.014482310913989646,0.001281476222934462,-0.00912097909781755,4.71
0.14095542468572886,0.12394618372580811,9.885146859371886,0.00034617859654509814,-0.01686148851496272,0.0017083259755097627,4.72
-0.08449390543677518,-0.08711787161509069,9.776445309327187,0.022661808697585967,-0.013589565940234184,0.005773832027171122,4.73
0.18774854593394685,-0.07250572181384983,9.739382322522639,0.0001354852347000469,-0.00568384883752813,-0.01250491906633242,4.74
-0.011978626021416831,-0.0022881042711731577,9.598911098402803,-0.00267781195548709,0.01820562281251773,-0.005115669639598932,4.75
0.1285000075284139,0.10241809528308154,9.806003257689946,-0.0011747974097976327,0.008571409846733356,-0.01621253345235888,4.76
0.2877965526272915,-0.06562074630863185,9.819046216402615,0.01762984336771877,0.0017972059008859523,-0.0007241852594354216,4.7700000000000005
0.03727259889405179,0.10900243278819227,9.751022919854927,0.004722172268854396,-0.004891999035381651,0.011270983023473694,4.78
0.11063528284705737,-0.11590072197737152,10.005346412880826,0.0025394033432608394,0.004706522324760507,0.00453470840335084,4.79
0.01572890017264876,-0.005147952593562217,9.913455764563537,-0.0015284193403609725,0.007075367446824572,0.007948623109458154,4.8
0.15031257750855773,0.02481594953189848,9.90971527147726,-0.014302467616103536,-0.022746053410397513,0.00971372446290386,4.8100000000000005
0.025783868075796575,0.04633989815881687,9.870422808341708,-0.006012087826746009,0.014802679171764895,0.00805609765511936,4.82
0.1980266884339891,-0.07359302841530534,9.720242255502916,0.003874466788855518,-0.008602666793951755,-0.007638550635670055,4.83
0.07758912516019308,-0.07989512855528935,9.88815957467751,0.011699677132211659,0.0003009743873800787,0.0018419761908083923,4.84
0.10510245328316879,-0.08292191250104379,9.84436895784504,0.003812757116274515,-0.01843214971529992,-0.004779180441813178,4.8500000000000005
-0.020312237126435446,-0.07212858826233913,9.74204140155214,-0.007266877742866226,-0.0034401307849034972,-0.020088537408291182,4.86
0.02227397638177749,0.1295755352275142,9.975851019137854,-0.01252292228898229,-0.007982918009087707,0.005317241749586857,4.87
0.06735962859053002,0.019870349095214988,9.78448841406018,0.0038097481233672873,0.0020757945223298913,0.0035986907741514464,4.88
-0.07039566957663931,0.011317919304417556,9.61825886565628,0.004370729661307211,0.010370983381450111,0.009206732346019885,4.89
-0.04364140962218789,0.0032800581052049404,9.824846253826273,0.0011946589134265763,0.010497419944555227,-0.012000748455803366,4.9
-0.028079803771076335,0.059358673351337765,9.877469347600123,-0.011400159494254266,-0.006402101681768494,-0.02113199353631366,4.91
-0.15167275752677406,-0.020180789461279134,9.768899183739087,0.010819016253213935,0.00268160789724529,-0.011818725879321486,4.92
0.0766454265055138,-0.11875371103503503,9.735700363792263,-0.004773250128375002,-0.02703796767687029,0.002726777691995334,4.93
0.02314294341707582,0.06954830556650644,9.574432481437087,0.007267603458050772,0.017180015757485744,0.003510273447676039,4.94
0.10421515677258744,-0.09059986933764981,9.859645572194676,-0.001512073923596681,0.000751456744573657,0.0020820877301871636,4.95
-0.06636132316084624,0.0727021729455514,10.024821584633006,-0.0028982717945709837,0.009680953399528786,-0.0057846064126955464,4.96
-0.0652338450799622,0.1343145922994112,9.731923503771926,0.003686024624991047,-0.0005723311908835022,0.005524676534305078,4.97
0.051961307434692905,-0.123004278003485,9.79277605533621,0.008040787043520362,0.009028325522687569,0.0134241804800751,4.98
-0.06326394154117827,0.04862610579293092,9.810470606979012,0.014075418869290576,-0.00362503053760102,-0.004391961552182542,4.99
-0.015279501443250305,-0.12367005522386568,9.82516371256008,-0.00708054384329908,0.00467480033362197,-0.0005165590833692775,5.0
0.027826116851659883,0.05186138214519487,9.832379989705103,-0.0022941726062197915,0.008241873626895112,0.0010725133188646504,5.01
-0.09224287676926768,0.14947727052213755,9.712858935954321,-0.013841090548850228,-0.012940935519342443,0.001002927006495301,5.0200000000000005
-0.2763817777899205,-0.05374616246089316,9.660444220701041,-0.002435297619939316,-0.015501589995089597,-0.005037063540742866,5.03
-0.01719180548415527,-0.013878722085227578,9.578398290908265,0.005698842029417254,0.01204844404189551,-0.006882085915715263,5.04
0.07043571319094544,0.06094096121915038,9.785262369717186,-0.004306578327349062,0.002887846570217073,-0.021739438884362975,5.05
-0.09438559538120889,0.0565547715226733,9.921865317943235,0.006878215827929191,-0.00523332213158706,-0.009540433975154338,5.0600000000000005
0.1640999515214827,-0.05418358813333221,9.833678131969014,0.004529913614592781,-0.00447119555126011,0.012578347978554534,5.07
-0.009757562618535661,-0.15261840134399518,9.853198546784087,-0.01023656875887631,-0.00014700482112316794,0.0011302267923280563,5.08
-0.0765905055792362,-0.08722795155314533,9.58250713822412,0.004586019079636393,-0.0056145317090681626,-0.003234132604823065,5.09
-0.021649329044652957,0.0027462933089271347,9.582316874038776,-0.0028022008927571867,-0.010726157525050784,-0.001383780742339423,5.1000000000000005
0.028432012052184853,0.09834407100060755,9.83937946656256,0.0024747511681716744,-0.006111183299517091,0.007457886115800127,5.11
0.027313685695359448,0.09003391737124108,9.856795511082067,0.017080373638828326,0.00021075945422198146,0.008850087576331484,5.12
-0.09525920216490157,0.08070771625923191,9.842005083821006,0.0013965847438299772,-0.007490398119183762,-0.01071258713007065,5.13
-0.147578798942265,-0.07386176845968033,9.572829721086269,-0.0020521204831188368,-0.015137823310943302,0.005715662220999366,5.14
0.08871113035550883,0.11034980081442838,9.700852443601038,0.010513999237035694,0.011054087966379916,0.0006841249927484463,5.15
0.07449582637905737,0.11479029046270402,9.76774367098049,-0.003057443528009083,-0.006212926578868106,-0.005408688976842615,5.16
-0.07979803128329513,-0.11728980669369322,9.845193938788835,0.0013751353912768228,-0.00040223951115225814,0.018532571012495693,5.17
0.1128024464690234,-0.19526381520670594,9.74149404572823,0.02032663621639105,0.003684805377993719,-0.018498914258134755,5.18
-0.07448936814558765,-0.08391075515064192,9.892543742365627,-0.002602058803395753,-0.009481059661318257,0.015795051686194682,5.19
-0.06293954715137841,0.10394479171528247,9.810797356202038,0.005126940795424338,-0.0005224075256098575,0.01641696268060682,5.2
-0.09240693358604755,0.09734662229713449,9.867955218448792,0.011705859022505614,-0.0017637131072481085,-0.010839301130504972,5.21
-0.11509562187113574,-0.09329377238507176,9.859364802872824,0.0021863633360398958,0.0008831189256574319,0.008873754038349233,5.22
-0.09080945200934515,0.1658264828450785,9.891831377196256,-0.008552858957700842,-0.006203281460155859,-0.00012404864347684565,5.23
0.06578384510481294,-0.02606321030538135,9.777619384859165,-0.00032381505021366794,-0.004770364366437207,-0.014867283803179688,5.24
-0.17632496002650858,-0.06792127591243387,9.802298952116628,-0.00763740971209178,0.01558704301534088,-0.0022863767625857173,5.25
-0.003338765721372979,0.02504808773132494,9.812010797181472,-0.018738410281455765,0.0012047439873235223,-0.004656024127389934,5.26
-0.1011825990847463,0.07808689485388355,9.686934192712181,0.0009370752530214578,0.0009378810171112244,-0.01090103245429713,5.2700000000000005
-0.013968718189583958,0.04392121928745323,9.674324830153143,0.009964452261480827,-0.00759217824181086,7.87828563832641e-05,5.28
-0.07719519624225317,0.023384833106969975,9.992362808920099,-0.0012289872362431043,0.0014365267846909741,-0.00696678445769987,5.29
0.017563567253971398,-0.0036900492113592052,9.814288900868169,0.0085664985357391,-0.016235507891815985,0.014606067208378716,5.3
0.05862193550678551,0.16113609864921774,9.91538003406382,0.013734018291519419,-0.008349577084649742,-0.005450608373048366,5.3100000000000005
0.006520257221612972,-0.10981350162489315,9.89190793596378,0.00032797378308535054,0.0018104474413265649,-0.0017238232265764312,5.32
0.07758684192312394,-0.09775736869828285,9.731102608264132,-0.0031936713519581366,0.031103288261264194,-0.012589577322580424,5.33
0.08315358795999757,-0.019306547698653417,9.858627536986596,-0.0006904350952019215,-0.008923573607058838,-0.006608345430771258,5.34
-0.09079337358224268,0.09292169684273088,9.962871258133887,0.0021184854786421774,-0.006727641627061258,0.0011487188454725496,5.3500000000000005
0.09453027524269826,0.017321725745041313,9.690601914989273,0.0028171552059196477,-0.0022431874479216076,0.005044072509325861,5.36
0.21447713570091398,0.05796545372603532,9.65459918186699,-0.0027173045334456247,0.00100811550455739,0.011385415844127214,5.37
-0.026656220485715323,-0.11538386989336313,9.805213383572928,-0.008671188832416552,0.006687112855204647,-0.005405601816805576,5.38
0.07029056742575727,-0.0579489750102771,9.828085336627783,0.002366537335483527,-0.013160933891116739,0.01232588400748756,5.39
0.04861194317606853,0.005455400577976951,9.950388959053157,0.01218939405705653,-0.014266566072605014,0.002110274599265243,5.4
0.08848957090894653,0.07025664067361762,9.967685171357356,0.016908612215547632,0.005957995005000232,-0.03081373922469659,5.41
-0.030783255136789242,0.24971657662501634,9.860863259153883,0.005871833926006629,0.004824481902024042,0.004697482341795829,5.42
0.10527799477624177,0.05241911181553355,9.933438241339841,-0.0011143105543542087,0.0038478977852548025,-0.0003012162064253264,5.43
0.16264357755495598,0.03643073164713419,9.786018301638517,0.0015427391256068802,-0.014866712370275354,0.009185086338286848,5.44
0.09402213680782401,0.014685313412227058,9.783078369352863,0.004100908582940807,0.007371491833885628,0.010720362253901225,5.45
-0.04753696684820902,0.17755672031321024,9.776831044097129,0.0016665415156107849,0.004895184459336964,0.020898744919624318,5.46
0.11155431118515076,-0.0038133799040173423,9.806009539511054,-0.005250780194709013,0.00805351983498363,-0.007236118894531939,5.47
0.024710829153627246,0.12163641217912347,9.821460712211854,-0.0025042361347902753,-0.026114821402530995,-0.010071357879980215,5.48
0.07084409383692446,-0.09345360433838672,9.881584087964887,-0.0021397029831465584,-0.01068936132635276,-0.005945486518719419,5.49
0.042164202430352626,0.05181840260886539,9.707235588962384,0.007878097182424122,-0.004124731457452033,-0.0034742147390081747,5.5
0.14149062487526837,-0.03614295305866654,9.856320058516726,-0.002351887124875769,-0.009116235024622806,0.0031370408888359157,5.51
0.1463520869598644,-0.020077778922838494,9.904672811942426,0.006001465593966592,6.900756928134366e-05,-0.005390842957403436,5.5200000000000005
0.1310209415540248,0.08587892736055941,9.840331005792958,-0.013898303773856716,0.008419835799204672,-0.005652745357731847,5.53
-0.007569304463722242,0.13413104092837175,9.750271552209355,-0.003033592303699137,0.005889806746233766,0.014359947530902611,5.54
0.06726554536129714,0.14358665363054585,9.790324769249043,-0.011426287495844593,0.006383696834359314,0.0001777506155034344,5.55
0.04429472322388278,-0.0886221655279099,9.897414284179801,-0.004007223067053225,0.019683110641199146,0.0018508741424988553,5.5600000000000005
0.14262627606778153,0.03976063975632364,9.937599651765753,-0.01098922504784399,-0.0009389221004874362,-0.0021854004025154724,5.57
-0.1615285465525881,-0.038806060083737826,9.846482635462989,0.009226608294743236,0.001993115757472626,0.019552433719357963,5.58
0.016021098699747615,-0.10921941999193503,9.962891409379413,-0.013582911815099177,-0.01647962501581445,-0.008736270803530745,5.59
0.10434499032073037,0.15663152089970966,9.81204208664038,0.0005250489206902368,0.012684429190715541,-0.0002814029176195267,5.6000000000000005
-0.09211792875945185,-0.0869578643677948,9.89715063448647,-0.006221154907437011,-0.00376159751625328,-0.003299948738647852,5.61
0.041522535351802,-0.12339251289066999,9.910554384248385,0.0009483559410554378,-0.01211097967802315,0.0015298349333215686,5.62
0.06753389017989646,-0.04308033105376316,9.893248944554262,8.881876585724453e-05,-0.00910994788173758,0.0021612794757796083,5.63
-0.029238584572231042,-0.08643734885088653,9.81754698506215,-0.012066570940983287,-0.0003230392268626925,0.007115401288806521,5.64
-0.017148683787626826,-0.14822887726928866,9.732427311814716,0.0016482090735690392,0.0021120477455878533,0.0003218288710368251,5.65
0.1541870414011175,-0.06970323875193778,9.846029496452683,0.00817900008916109,-0.006891423084763283,0.007424398896106124,5.66
0.01246549931378893,-0.08717999403533583,9.798471158041336,-0.0037646210180126783,-0.011092289557725746,9.150154034812851e-05,5.67
-0.002623379578494062,-0.07992342395803759,9.752231738091682,0.006049396011123122,0.009507664178660084,-0.012383191834982734,5.68
-0.05431136606338997,0.0030842973698014427,9.871932641831744,0.018324242538657932,-0.006828297928268667,0.0034834551736246957,5.69
0.09547774972788658,-0.05802302469297536,9.753167349498037,0.01935737372826745,-0.014788464013679115,0.005693363254669438,5.7
-0.046884052903223346,-0.011604490153318527,9.98946303622831,-0.008611174094709488,0.001696877222800544,-0.008228897060771545,5.71
0.0454455127403493,-0.16588870851310947,9.772325624011232,0.0030414748306375073,-0.005738885837442761,-0.004461773907050508,5.72
0.11777531093485274,0.07166571864750185,9.760751333298966,-0.015372859251284217,-0.021735142270455348,0.008377466171255682,5.73
0.0652946202016852,-0.01613023291474663,9.857102097950742,-0.0009306908002777398,0.007821887022034495,0.0029909261112880774,5.74
0.07139519996938407,0.09937028137373011,9.981310044972949,0.017782110545416414,0.004242963046060841,0.00441014820442521,5.75
0.2547840217548927,0.11362825158810566,9.703575006057386,0.0008891226755876547,-0.019031253062788713,-0.007851804965450437,5.76
-0.03196073235142999,0.16073393349126888,9.866238369261856,0.0057067053631738975,-0.009198689690846985,0.018454070038177128,5.7700000000000005
0.0645749514577411,-0.01881914576880253,9.744395537688447,-0.006460759756161501,0.016311038813985435,0.009194621581460446,5.78
-0.12356113949301495,0.05476298297470006,9.887820659680179,0.008012502026312653,0.02294962793007249,0.0029194825222905825,5.79
-0.12492882108088849,-0.014338062923501375,9.983450415966747,0.02060252680009991,0.012458640777449,-0.001598194355001925,5.8
-0.0888547751679779,-0.11921042065373062,9.675294736818984,-0.002169584986714173,0.004725053722718069,-0.004106278722630984,5.8100000000000005
0.04179138811448046,-0.0367283024409647,9.719258159679674,0.005012350173804791,0.0132412417661127,-0.008333306302388533,5.82
-0.08361529520635502,-0.11824817946472768,9.83925487292694,0.0016139549924379757,-0.00664806157959002,-0.007503015538371572,5.83
-0.07974688910280033,-0.14323225757381616,9.801912907290484,0.0039355953924997385,0.0065845355202695886,-0.001292139532166911,5.84
0.02363968427935399,0.11061612159533943,9.622631061073754,0.005903594578044388,0.01182439906694659,0.005094515467337479,5.8500000000000005
0.042146569009287205,0.10714437080457662,9.732271454862445,0.01166456637529502,-0.014460481645035541,-0.007479478985208719,5.86
-0.1134093597674397,-0.04487068600161137,9.742443056601902,-0.006197473783085613,-0.01337565278356154,0.0007265305456977613,5.87
-0.23271336320734495,0.08312387778668437,9.769049272259524,-0.009014141809754402,-0.00503316674358838,-0.005056028413265745,5.88
0.008300219415570546,0.01740177038160086,9.889937546042907,0.0011575024751511957,0.004918759837770992,0.0014246788047672446,5.89
-0.022162747219041153,-0.06314104417318298,9.813997963481183,-0.02027422630864169,-0.010747036822319464,0.006819276517319294,5.9
0.05997084291788504,-0.014103376928617942,9.95395152862745,0.007523349103483745,-0.010905486998044582,-0.0003115621794288237,5.91
-0.02383890875949504,0.1375771872031165,9.731536172918824,-0.00040122726418473907,0.01797308193543851,0.0014899594113823875,5.92
-0.02938680399661436,-0.05839368098636549,9.592930423901624,0.003347833334346664,-0.00772934164721025,-0.0026701799633949337,5.93
0.06309278938914946,-0.21870480388041083,9.922024860624092,0.0009743955205140405,-0.01366951567803418,-0.0035273620765245914,5.94
0.07926689269325221,0.0313801138389195,10.061462781956505,-0.0038037386544314306,0.02141823543291369,0.0004328479079943355,5.95
0.027957471051162797,0.16331806976285443,9.894965970341474,0.01774210947347112,0.00280386225815772,0.002889645317480725,5.96
-0.03221817416851332,-0.04994153585902071,9.876666803365044,-0.0059150125213131115,0.0005223416778435128,-0.01021400537939306,5.97
-0.043161336826536764,0.054449531094095255,9.753209055500687,-0.003339668314443189,-0.006383537930471226,0.014052682817010626,5.98
-0.14990690847805138,0.04877647051490095,9.851379762209278,0.0010385783420157506,-0.00037467630595085206,0.02087603617063487,5.99
0.10517687155335675,0.029938710460557755,9.863972049392924,-0.0034880339002951,-0.0013695185535995207,-0.017098857725026336,6.0
0.04346478054169778,0.12641848399751446,9.83947825989311,0.006218359735945077,-0.012965656122072596,0.008079512300179866,6.01
0.0371165788095497,-0.010281569106907334,9.823480566223331,-0.0009357283234607912,0.012796207463091777,-0.007215403057985957,6.0200000000000005
0.026333780760743532,0.18313374392972187,9.827441115094706,-0.0016199386172843615,0.004339866183740804,-0.0028992995372760684,6.03
-0.06849136015590182,0.08054636269363989,9.790431682226993,0.011133185346771022,-0.0014221545692131336,0.0056656676037161995,6.04
0.1342230090871816,0.14658556562677258,9.953158260199565,0.001447514133712793,-0.00041479996288138935,0.00031657178160045604,6.05
-0.0957626990289103,0.0006512973916186702,9.769974780105105,0.005499274306019058,0.004113035222694619,0.007409937270517319,6.0600000000000005
-0.03981418311458003,0.13132834917912933,9.992475296325894,0.010792157605932771,0.005115000284902312,-0.0009203172682072661,6.07
-0.04828393255812338,0.007516756549280915,9.99102851255062,-0.000527578083396098,0.0024012028078330585,0.005187819731454182,6.08
-0.04017563554430468,-0.05689854708276362,9.770524208033574,-0.00390520585794239,0.009108744572934707,-0.00676494785590837,6.09
0.083423367998646,-0.09422334344347517,9.859996972995553,-0.020679230538611364,0.005134797537803102,-0.01336502808931365,6.1000000000000005
0.09930173892961519,-0.02983721428748136,9.77333615096432,0.01091746114161334,0.005020690319276016,0.007088674553446824,6.11
0.008903455937747778,-0.09332336279549745,9.635945282839824,0.005465199899218901,0.002744248807580785,-0.018775053930683922,6.12
-0.04383450417122889,-0.1115667362126144,9.698715799364162,-0.003492389060601463,-0.002303831652817008,0.01376914395240412,6.13
0.019979610086896218,0.08033041370154455,9.938016490185497,-0.006852183294878811,0.006140623140445849,0.009696867475214095,6.140000000000001
-0.09090037713657666,0.12392915209392726,9.785714037077792,-0.018326535764543822,-0.02228853155732646,-0.017578807909063437,6.15
0.11612103036446944,0.1401601114959052,9.670851703114108,-0.0017653114581852659,0.004107330412238995,-0.0018598877738313852,6.16
-0.10453087640123544,-0.010760486956467412,9.757918001555366,-0.0013679764191144143,0.005148401986522877,-0.007213064758692311,6.17
-0.0485716542096411,-0.01850543177799003,9.809619729652114,-0.0026574690333383915,0.004543507480625871,-0.0005694723824877114,6.18
-0.035411239300371454,0.035370191846395636,9.732643817688878,-0.006992331984531618,0.0019323775780775308,0.011424362388713789,6.19
-0.08974983201355806,-0.07423804978809823,10.043680551419518,-0.0017194036931690402,0.004273941871476869,-0.0007120053667596794,6.2
0.04326040888646679,-0.037777354517311984,9.841454640525347,0.007824138649845366,0.009525562392389261,-0.011212739687070244,6.21
0.010585012467121685,0.09957111691170811,9.637946614476666,0.0005723450593140113,0.0019893336250675917,0.0023480028831318212,6.22
0.20063398529095472,-0.03164977045329389,9.990516145891073,0.011152371680915244,0.009356742025033882,0.01596562917114275,6.23
0.028783881584961923,-0.03628903628091722,9.859871317363908,-0.008992603505244735,0.005654562577760592,0.005213428679066231,6.24
0.18829320713077527,-0.027021189654764546,9.726287624182122,-0.00121085940191012,0.012065074901526078,0.016854848140624074,6.25
0.011625691064341147,-0.08723835414223813,9.710750835178422,0.004229888306252455,-0.000591026752383184,-0.0003793362982197353,6.26
0.057807704819561004,0.019360343071893157,9.936756863058053,0.005890727386449116,0.0013213077056216638,0.001184618830523134,6.2700000000000005
-0.2549538216225465,0.009781748926460576,9.86926516933607,0.005196924151052823,0.009419076973176245,-0.005630287297094754,6.28
0.017885664549159675,-0.0840667882055791,9.692701659054158,-0.008238650996551557,0.01392541920827469,0.007000658227094887,6.29
0.18061329625607736,-0.10340323180313105,9.772490963347693,-0.015452954647731046,-0.0010352004963183965,0.0034563242121189532,6.3
-0.04373564412020256,0.22613075248476167,9.847723526577784,-0.000562556874772638,0.0058152445925165885,0.005206514200351445,6.3100000000000005
0.03332349721098608,0.11749301476243341,9.858902194427554,-0.005606679759816071,0.0028869385988878403,-0.004701975702232441,6.32
-0.09691991583503357,0.12259988638282333,9.59787960361076,0.0015290062441753191,0.002642887322059389,-0.011142983836251435,6.33
0.014860110816420514,0.17630986633582818,9.780718007875574,-0.011404035304403105,-0.022512587600160682,-0.0015417981385945168,6.34
0.057777571656649276,-0.05545139528114995,9.843114788664451,-0.01736640272846067,-0.005965459426961312,0.0070898462589678996,6.3500000000000005
0.07225354588080793,-0.08720991703864689,9.863270511916639,0.01331870880525371,-0.010571714788101108,0.015068039880513995,6.36
-0.04257706237774858,0.042031295936299604,9.82152984077272,0.011815369485237958,0.0008653658161043684,-0.010500641228155819,6.37
0.09249809614103484,0.0324612429857818,9.839508964084903,0.009043215116991998,0.0002843146268144956,0.00948258088716622,6.38
0.13852201907680836,0.10446684999966416,9.795833830810732,0.0006790031481041639,-0.012974910636514483,0.019614137079638626,6.390000000000001
0.02334631717433842,-0.07923911936728988,9.858830426307708,-0.010258348339002497,-0.002312030183122051,-0.008086006232641121,6.4
0.10901919598218707,0.05424981812601487,9.930031301271752,0.00022272362416640644,0.009383983457682358,0.01026023886105878,6.41
-0.03938614677322824,-0.07033444176489279,9.774665152433121,-0.017097568161262285,-0.005214172779367901,-0.0038621720991989647,6.42
0.007753492723033051,-0.08600142432123302,9.7433143415912,-0.005372125043654895,-0.011988329870612033,1.0797363189081733e-05,6.43
-0.018541888523634212,-0.073253732848483,9.782566366272317,-0.0036412434300051705,-0.00937943900348155,0.002078069450262262,6.44
-0.10620007939583952,0.016990724233029456,9.926570871885824,-0.005916096279769443,0.008907246754965653,-0.006208047507609048,6.45
-0.1171601345800511,-0.03565394936801096,9.799858841763887,0.0008270046786270205,-0.00572829101397711,0.00314510784390244,6.46
-0.010188210525699102,-0.03210381977333115,9.762013757892813,0.018740474130648128,-0.008239643585920392,0.0037105552621325643,6.47
-0.06615155754713832,0.01834480438826595,9.996988137475299,-0.003115816715562836,0.006133150301570531,0.009453170791049877,6.48
-8.498827476304933e-05,-0.033016478909678126,9.807195258238517,-0.006392542192855933,0.01152186943984466,0.006815864397099453,6.49
0.05433345866184313,0.08006461945684185,9.714286467148629,-0.011963861494873378,0.014998407303542481,-0.0036010233916164884,6.5
0.2522940231732805,0.24174398966507368,9.882803506926246,-0.0014435018575848688,0.0015186611480449272,-0.009763398493831213,6.51
-0.05311402925085088,-0.06760736840799544,9.727463111114494,0.012729246365423268,0.00112941680516604,0.01674692887376205,6.5200000000000005
0.18304198565687205,0.01479024561333715,9.930879787902155,-0.00504610642609315,0.007090356292381066,-0.0007428638044459423,6.53
-0.16211314987497186,-0.03699671441447596,9.658483109546932,-0.007595063125971534,-0.017306697174823957,-0.0055241332155570935,6.54
-0.1658680895965591,-0.18993716649591358,9.630418416512073,-0.006334995695351573,0.004357916296344801,-0.0005886595342243152,6.55
0.11834960627248757,0.022121286422909347,9.788601271288568,0.0018084696003717803,0.0010894149327837417,0.0003346564283649409,6.5600000000000005
0.09355211186561885,0.08345303198770583,9.835666421666014,0.007714953799426736,-0.0054303643853759785,0.008675572462824117,6.57
-0.22662231392004528,-0.0600012934128421,9.705366255298847,0.003269106157836903,-0.021146341424310346,0.00458869182714721,6.58
0.11636786343516414,-0.032774896612825455,9.975766821415338,0.0018193824718032534,0.007355945044810883,-0.008264423739468353,6.59
-0.01347892614780738,-0.023357376524693284,9.855901207721164,-0.009022083570011514,-0.00036288289975074843,-0.0049153565643437055,6.6000000000000005
-0.09305364140614154,0.21810369967560914,9.758013683280502,-0.006255978434065509,-0.014340863274549014,-0.0017346669013081754,6.61
0.046907803014486556,-0.054020320557823104,9.910762458639017,0.003037078049893129,-0.01258526793882031,-0.0070833334041082155,6.62
-0.04157490078332158,-0.2452733110660663,9.86606050751748,0.011058921361622743,-0.012245551979499756,0.009630834820429377,6.63
-0.018435644609896572,0.08149909977547734,9.831837315314939,0.0066479778463524345,-0.011345361922673223,-0.01104484093189751,6.640000000000001
-0.09402056705004208,-0.018832454949945093,9.836177852580649,-0.001352169582945047,-0.01598556751650922,-0.01823900812731172,6.65
-0.2794648814071845,0.20614144250031918,9.880148416076487,-0.007778746242352671,0.005650153029981667,-0.0026641697364780015,6.66
-0.11433060693107587,-0.1707866455538431,9.84894698816464,-0.011469885924954694,0.002161484185393517,0.0089527126497839,6.67
0.10279849842348346,-0.08716378722602348,9.948668936728748,-0.007650090367882207,0.0038594235626360994,0.025422306645025667,6.68
0.00503778553848182,-0.061267228962614766,9.733847036299514,-0.010281760727889125,-0.008334878666737627,-0.011282899686618126,6.69
-0.012659626449727294,0.013198208114688007,9.931208426924837,-0.005165952798799464,-0.005825830589700126,-0.006540241188422614,6.7
-0.05840577852173467,0.02795182398715176,9.75721676667298,0.008341908557437962,-0.00605127038689807,0.015363635998933808,6.71
-0.0903934961145613,0.1479407122368088,9.949258363637135,0.007950087021609278,0.006429790207207029,0.006895584684594542,6.72
0.06730373558042961,-0.021953754401714973,9.770831266783965,-0.0033269070345656048,0.019541737779410043,-0.007787002927247706,6.73
-0.10978368399522359,0.042447538142333055,9.643463378911466,0.004031188632365112,-0.007608350539466547,-0.003385575469449247,6.74
0.01967378957894729,0.004990111290022359,9.977894831618812,-0.005621416589583676,-0.009584219044727471,-0.013840148970043242,6.75
0.07200559359876699,-0.08254400434602224,9.775283865264418,0.0028086640590799595,-0.004101271237976643,-0.0061761673958618596,6.76
0.09271130164585785,-0.14748250675454552,9.854323721289466,0.014067127845648546,0.022051446672898895,0.0015691453706163675,6.7700000000000005
-0.11646431968818911,-0.006831318387368887,9.65904972842771,0.0004334169481762999,-0.011265174104535725,0.010561873924508849,6.78
0.09797794633470158,0.05904764630466948,9.822347886552468,0.01961260525280433,0.005225058493127531,0.014232458951728824,6.79
0.04001476794009892,0.006508914555693511,9.923143715965827,-0.0002515588354324655,0.0017316661987131913,-0.014120966184940426,6.8
-0.1340596229947694,0.10160242517317693,9.863766114109419,0.008137610279522867,0.010955972267888059,-0.008160198111915226,6.8100000000000005
0.18159205745596307,0.0021047807246084064,9.766836020172954,-0.01177922888126361,0.005314710258259743,-0.013984929298754683,6.82
-0.11445391745776574,0.11068310914384019,9.691588546037472,0.011882004672872343,0.002141383407132843,-0.009170929233248143,6.83
0.210570487429017,-0.03216545081790225,9.774871718224809,0.007676285236250518,0.008686623433756466,-0.0005722339165394886,6.84
0.00648100451683363,0.028750957448886574,9.991135606967312,0.0008542310382613429,0.005507744550312796,0.009368585348423074,6.8500000000000005
-0.0038072023362495655,0.03751025952729312,9.884529095818412,0.0014253878471627585,0.0011551847452290886,-0.006774238922262414,6.86
0.06852562870593586,0.11071779253655836,9.949164435227754,-0.0009165416746979644,-6.0994417155603735e-06,0.0032999892875402626,6.87
0.13102135159779463,0.050579273095206025,9.841323594423548,0.0076009549348753655,0.0027770906176517655,0.005699027075079978,6.88
-0.10587808137409618,-0.025110102591472783,9.839166121263602,-0.016571229448573577,-0.005892558402367604,0.02216961162982011,6.890000000000001
-0.06386627366738105,-0.05164836990651489,9.86511052199999,0.009895502177615383,0.007536812880900487,-0.008796704382286307,6.9
0.06639789716240699,-0.04036660753621685,9.726780444807467,0.006602048663974723,0.007899187818578752,0.0017412300151044406,6.91
-0.10702125513578441,0.06146462938977037,9.844131528729163,0.005024370686276463,0.011310566144123901,-0.006663791448234749,6.92
0.08213587156613923,-0.07481324904003929,9.616228191584115,0.0071817513879912365,0.010408517479931599,0.0038201911553812484,6.93
0.16983991932479373,-0.11730177470691705,9.721141477683508,0.014608160172460567,-0.016052711469190368,0.024806534863442534,6.94
0.020555059430896895,0.1633080306621098,9.73412157166359,-0.01712118326830005,-0.021437257761449096,0.0011382198781580474,6.95
-0.03055004255897595,-0.020842870288907193,9.813090109627593,0.0053422057963807106,-0.0092149625665895,0.015190536056215651,6.96
-0.06930721985281171,-0.10890503761382407,9.895067634240862,0.00661201050514528,5.0404435231039096e-05,0.023049965120119382,6.97
-0.03031433330575973,0.18696052748020056,9.879503763178288,0.005773411360966905,-0.005999446992000612,0.01096309803074698,6.98
0.10785796660647509,-0.1901851600947474,9.833428476045293,0.003904241434656353,-0.022188880303619398,-0.0066916503357770845,6.99
-0.03723741274484884,-0.1718596029681041,9.713554096993898,-0.003689938173277219,0.014043357329665874,0.011461979997928959,7.0
0.014860122157205639,0.10958402066091362,9.501848949151693,-0.005020565550602302,0.010744020933876077,-0.018078684774178816,7.01
-0.10970169552706031,0.006919499180271932,9.907290202678206,0.011480796367497803,0.01726243635241334,0.0031576282680892704,7.0200000000000005
-0.10839047666954732,-0.019692493276540775,9.760653301388086,-0.011507014899529974,0.01787921920306091,-0.009793617606195017,7.03
0.03432660795215354,0.09359622414613016,9.742414163357987,0.0011951121142844655,0.017893817389140365,-0.01789883362436589,7.04
-0.14143998985219394,0.031345808194045165,9.742009578743048,-0.004419163290656928,0.010650112008035744,0.0019092698337374642,7.05
0.06690787862911558,0.10344558804370406,9.92312176876802,-0.01711493353950492,0.008493014705353436,-0.0012711305674230403,7.0600000000000005
0.12681013549622275,0.07480960992224829,9.897783201134578,0.0017277849365855164,0.0045870985914543945,-0.008776260282359035,7.07
-0.014671955750474839,-0.04249149380143487,9.781682256871967,0.013861819517967252,0.0007418650676236341,-0.006555109831393206,7.08
-0.17207596319789709,-0.08168800764751215,10.010352301743273,-0.006334356579250683,0.006903489758514433,0.014624820674116858,7.09
0.05199926201394524,-0.051857554037140166,10.01574397267132,0.0033736240824145357,0.005875360041283377,-0.022787881614242805,7.1000000000000005
0.044665660435708326,0.08836387952494579,9.696584275629272,-0.0026525519900773903,-0.01243037136114223,0.009182873030474024,7.11
0.017728207637856593,0.03646333598099779,9.697751403497598,0.007228499855541109,-0.02197371680515873,0.00535815083268836,7.12
-0.07479401541326228,0.06119583027606418,9.770135729321675,-0.013885951570201647,0.011190266232218422,0.006035833529139353,7.13
0.12958210730269878,-0.11863750113334902,9.727024618372454,0.0010199562125999245,-0.00987138117090293,0.021263078658433236,7.140000000000001
-0.04698637431405516,-0.14575121364215757,9.850688722357404,-0.009726993400621194,0.01048898391955764,-0.00950576941481696,7.15
0.07999657881439413,0.039418378393565025,9.963899189699555,0.002587856547769968,0.006598763993036886,-0.01656968180480469,7.16
0.052222673451545715,-0.08300953593517972,9.917074476081416,0.009348535194993693,0.017790397681623854,0.006417645416184989,7.17
-0.13007709040767051,-0.023792787215722977,9.660386616298817,0.016288292580401036,0.007857276278753645,-0.014998376821839689,7.18
-0.1232157879106707,0.07813616903178192,9.745391704253088,0.006620745736988461,-0.03277502009698585,0.014671335916360976,7.19
-0.08649161532261194,-0.11284076286625103,9.626114220467235,-0.0030796277148256897,-0.011874094710294037,0.006841071151639027,7.2
0.04479458117723825,-0.23725568334790537,9.811334317670594,0.0153955287476493,-0.010481843767322585,-0.010741200707317503,7.21
-0.02610391957959798,0.04106321214974079,9.779017286994744,0.00882926269167127,-0.0013640533713242255,0.012329598386406689,7.22
-0.08259967834324285,0.09084136416149792,9.867736755930505,0.008307332959013656,-0.0011586233071960636,0.004812274342163063,7.23
-0.01420550877776407,-0.03704034076033539,9.823253682488712,-0.013923929746456912,0.015100222411777863,0.004610775591020501,7.24
-0.030360384011198324,-0.17396671441622047,9.943836562257024,-0.008560383727253745,0.006083292789007334,0.007718466663280295,7.25
0.01848949170957467,0.0724316011483783,9.865252588599022,0.002273122730945747,0.001463297601592044,-0.0052489769259638904,7.26
0.06442980427965196,-0.02679959726225153,9.905556012881629,0.0007810597497733268,0.009955227642881814,-0.0068007373268637586,7.2700000000000005
-0.024228662015292855,0.047196191228843644,10.00697443438777,-0.003222296131111071,0.014072237162547642,-0.011674906633552855,7.28
-0.08849877887706842,0.1358005067357947,9.960821318065236,-0.004123964313478033,0.016871519184228956,-0.01271726821666341,7.29
-0.0005503480370914648,-0.06724368862106025,9.738747667450577,0.02139128028382054,0.013105745431566425,0.0019897050612510915,7.3
-0.0683989340330461,-0.07307711405347814,9.677235066687846,0.005631440668708714,-0.004565315610082447,-0.013195504507755652,7.3100000000000005
0.12787816050567685,0.0708862867816358,9.812133046754356,0.004148803450049913,0.011213171407218996,0.0076288257082789525,7.32
0.010312386458942793,-0.04848535085814023,9.798099160749441,-0.019117519964560438,-0.003762446545614968,-0.0011452199754944483,7.33
0.16662295577708053,-0.0220879708701278,9.935127036418566,0.01629136618361972,-0.00042053870441292147,-0.012914600614297389,7.34
0.00446480198317706,-0.010792639554378121,9.766772858373368,-0.00298605778952633,0.010660891617341716,0.009762631042178739,7.3500000000000005
0.014627616847234508,-0.042902198380929,9.573830339553014,-0.003940103798260216,-0.014846362796996627,0.0008542806614195806,7.36
-0.05253666936556407,0.30041122480790516,9.86544901892339,0.009499647826844907,-0.0024195474329496793,0.0052487773819652386,7.37
0.08943457289549009,-0.033715770357969445,9.876486546262841,0.01470270599298045,-0.021842151555518316,-0.018154008229362032,7.38
0.00978165934555266,0.09912895799062287,9.850683716630623,0.014616693664292557,0.0007719325149112151,-0.008061667204239396,7.390000000000001
-0.05013613046005734,-0.049423942637139645,9.844075096481893,0.013397401286157518,0.018228155682226698,0.01905468661915034,7.4
-0.09359418280377159,-0.046380847258529055,9.857175237206354,-0.02483167936680275,0.010511221289445124,-0.0037909320962169315,7.41
-0.053180638131353965,-0.2947441680612545,9.89467132470921,0.019723236368429698,-0.011413631628572547,-0.01670978042420472,7.42
0.10790833382295827,0.14757862932439655,9.899321133554217,1.576991210249149e-05,-0.004011193811007976,0.00852274845864344,7.43
-0.03936756232121171,-0.0701403552195712,9.846580543226949,0.014127933549749117,-0.0035736428906273554,-0.0031629538163294502,7.44
-0.022658575494639475,-0.03681877198707622,9.866802743715995,0.004079899051256521,0.0008009150490174471,0.0019417143072951533,7.45
0.030491796008392358,0.07618952273669777,9.933941829496586,0.012098258287057533,-0.004371213120564465,-0.004670201614359831,7.46
0.06855798953557074,0.08056344382522251,9.742349335781515,0.014197657429481678,0.01919529732005894,-0.012743876362167948,7.47
0.0901925087596828,-0.1493443710350893,9.79554928611572,0.014903383637262202,-0.0001215048315817824,0.028734193525075162,7.48
0.017507025449402948,-0.11006896447351402,9.747680196397193,0.009410116777962956,0.005133851337796709,-0.006679251203749545,7.49
-0.041224065953734505,-0.01333302324943726,9.676648702465782,0.0024944374322307633,0.005593674782291935,0.006673897995694642,7.5
0.023019838383891073,-0.10210680941443365,9.70035944593805,-0.012619108446858398,-0.004591909460887334,0.0078024754236389725,7.51
-0.08912152547428134,0.2208668186449927,9.795846561414473,0.0069546539828125534,0.006178559858047203,0.007761201292889224,7.5200000000000005
-0.01603779395985206,0.010880626628511214,9.888770480381124,0.0002108268013018351,0.008616835978415149,-0.006298615334826035,7.53
-0.03554407438403244,-0.12088279756368321,9.877398345150832,-0.014347948970297165,0.01033250407151854,0.016051646855870964,7.54
-0.030050408015258736,-0.17524544021904861,9.843213088985385,0.02552538640870569,0.004942578806993715,-0.002478542330135026,7.55
0.06569915604561459,0.07391368374751547,9.873241810991304,0.014326357964914967,0.010245022206094205,0.016411134939263227,7.5600000000000005
-0.016924359976535835,-0.0007092542424435421,9.69227449156034,-0.017540473418281122,-0.019878244139081715,-0.003106138985774198,7.57
-0.004758953211215638,-0.051271891286875065,9.850070914682538,0.006933848201588756,0.003898023113859743,-0.0125058990156693,7.58
-0.06783869325417,-0.10076128047496945,9.710345955958802,-0.005927193802749402,-0.015476712069129562,-0.012562564178693024,7.59
-0.16371457868725997,-0.0361607957506738,9.709608516564053,0.006912838203413539,0.0017877609243630108,0.008912595567791308,7.6000000000000005
0.07640868451986721,-0.06055847743223809,9.751744564776752,0.013601224698151964,-0.001799265491610661,0.013630001622009573,7.61
0.0375098456044965,-0.21344149949298008,9.911821164434837,-0.004777212257528975,0.012757098143546492,0.0011081174122491292,7.62
-0.048245045176194684,-0.016492412246796623,9.874313657219934,0.001257954489148954,0.010852995235134076,0.004599822126075176,7.63
-0.10324282176983009,-0.05239056583605393,9.8412699359191,-0.01036066627154904,-0.0025525289639546263,0.005256173730769246,7.640000000000001
0.15794965724022125,-0.0007467559002609809,9.788131590632426,0.0020511943457090505,-0.0048491664467833605,0.0038645354699031052,7.65
-0.017285811059486123,0.011989060090328432,9.965418389699247,-0.0028913224424100426,-0.007100937682104115,0.010842697714692323,7.66
-0.0037836008806700107,-0.10944226184633628,9.546867355157234,0.006377707909029317,0.007237423155615851,-0.0074244139398627895,7.67
0.1253831536939436,0.051424039020310175,9.64968228213321,0.0033609423716074796,-0.007587658162067412,-0.012080257359488419,7.68
0.050687785043105206,0.09257171582201153,9.954550432515228,-0.0008743459842103923,0.003775392606332761,-0.0091758249572806,7.69
-0.04459647750574744,-0.053847407152890076,9.987348896406699,0.007190558221489536,0.001274454707363754,0.0047239358584268655,7.7
-0.17200354449439226,0.1367353301417111,10.008202147148213,-0.006787916902539027,-0.0008551309347485261,0.01483126555782741,7.71
0.09805940391587674,-0.06735989008611384,9.56123907643864,0.0032494496290604224,-0.002043552862615282,-0.009116117880520604,7.72
-0.1930995938121132,-0.012056157288317926,9.894280552296163,0.004919426113386245,0.005167940060758226,-0.009755323097345144,7.73
0.055147585923956646,-0.12601527750830493,9.677538371719962,-0.016845883547704648,0.011793039975122583,-0.005423076243897349,7.74
0.050116763804380696,0.04446132400294339,9.770526948167673,0.002311690825949215,0.02170244240943754,-0.02696270317632049,7.75
0.08124764429904507,0.185404731802103,9.720323773895688,0.011348262750196552,-0.003730577142317025,0.003025345461212572,7.76
-0.07756627548835876,-0.006695388465027249,9.799412324964456,-0.001104337860212362,-0.0017486820529824824,0.0016768573871847592,7.7700000000000005
0.08715438185598252,0.1109829459366236,9.812316742964446,0.007692763405060646,-0.004420434344276627,0.00481027050123783,7.78
-0.17600708024600814,-0.12611201145212023,9.962059432953541,0.0060351894338876114,-0.01000252390642862,0.02503725429973788,7.79
-0.033338135017836924,-0.1040575685894422,9.844336612042818,0.011112134117893127,-0.010960834640073374,-0.011018626802598486,7.8
-0.031126583316989316,-0.0014960518597211545,9.654373726005014,0.003963981713106408,-0.0026603863913842547,0.0012215925835637965,7.8100000000000005
-0.20771673364865995,-0.08395155473453575,9.886083083357182,-0.016936400777221923,0.0186143916558929,-0.0019767085523024258,7.82
-0.008113127672099166,-0.042655567870464955,9.70303234916961,0.01787401773381373,-0.0173998924663465,-0.005380501153342097,7.83
-0.15429793619284,-0.3343738520704529,9.91011054963795,0.016687142378197774,-0.012952614426493677,0.0012961475161199646,7.84
0.059758145362245524,-0.011114192566443413,9.772025671246688,0.005313891398470401,-0.0014422226431272801,0.001197686497859747,7.8500000000000005
0.17872724766407122,0.10253195418530475,9.82013192184606,0.020551179064225628,-0.010251895098802664,0.003290702396881641,7.86
0.013770982645836935,-0.006027291319729676,9.858563445462732,-0.006120115307657142,0.004033378356506798,-0.0009646838849095722,7.87
0.04009285624138875,0.02118299606035255,9.913014192505338,-0.011865265405467463,-0.007714055859538649,-0.022314013765788194,7.88
-0.04510686798961405,0.10788367943573395,9.987380998643342,-0.0071849297127458975,-0.0059598518169193026,0.005433284955052937,7.890000000000001
0.03173655207483968,-0.02820408868160061,9.776238380168365,0.0014418839547866177,-0.004585049051524365,-0.0037709972820970223,7.9
-0.03616213755608636,-0.05580129446365206,9.803682723633585,0.012094457190318183,-0.002865999610742373,0.012369489851812026,7.91
0.08330360232005739,0.05292262118571394,9.855623275928336,-0.005173193375072451,-0.0023185473328327147,-0.0032330082538564076,7.92
-0.08852279017532137,-0.08680762515557439,9.907699452520488,0.006299444356275616,-0.020738944048303558,-0.00908767261932948,7.930000000000001
-0.02212441969362531,0.12886626634587184,9.685697953550203,-0.003428851533623691,-0.01369020374137844,-0.006475524847203797,7.94
0.07729715423374797,0.024685948929750248,9.654627533879307,0.012082978939689603,0.011549619777999898,0.006953722935665867,7.95
-0.04648871177110758,-0.011429391877505333,9.70289744245739,0.0014474363183745135,-0.0006696815893433339,-0.004333541796025522,7.96
0.07570338624467404,-0.09425512971019155,9.787169993362516,0.010910265925806644,-0.006724210915176296,0.00010492271896692897,7.97
-0.09235141447751918,0.014349242619428638,9.858998170548944,-0.005315533485006115,0.015285903256808267,0.0165078047307845,7.98
0.05118152868551651,-0.10163097555311347,9.506214342492664,-0.006815065705389442,-0.0032411799864401312,0.004922791447654648,7.99
-0.05629825537274781,-0.07294695217289625,9.897927392008896,-0.019209767053315525,-0.01792303820019236,-0.007497947569702175,8.0
-0.3103196063244906,0.00897465935977739,9.65370591075922,0.003192934566697039,-0.01455108062455033,-0.004152074541501921,8.01
0.09419873334355429,0.008432556450777234,9.934809327830477,0.008939544599934693,-0.004705015144586318,0.005416259405600765,8.02
-0.0998965767519732,0.252597255105019,9.747188885606237,0.011409418300452754,-0.006760807167886306,-0.005382562945885033,8.03
0.1218629047730902,-0.058073632396391864,9.90375963748734,-0.0052206200245772825,0.0031768856805493868,0.00813859093708388,8.040000000000001
-0.18618101256635364,0.2594639913839608,9.67134374181512,-0.0041132101283819205,-0.01857657038874215,0.0004596399926000859,8.05
0.031769206477802917,0.011358520756836833,9.929721174670957,-0.007615426181747914,-0.012323628853195996,-0.00537324285977663,8.06
-0.16449821544628374,0.0021039271674770303,9.812910632009341,-0.0020423484936228425,-0.0029715498538548956,-0.01573444355068398,8.07
0.080273143603457,-0.008710375821613372,9.748731996398075,0.0200672216108451,-0.0059235960778449325,-0.00228253390676854,8.08
0.19724611098887324,0.13037377306484796,9.712363564017068,0.014712760081227835,0.0011584833318403788,0.007163532706984154,8.09
-0.031117522681296608,0.11573370115401645,9.80433194748306,-0.0017424646052337453,0.0016803776134047999,-4.1066221995547084e-05,8.1
-0.030433204098904928,0.04998892403769976,9.879475614040448,-0.001935004608356697,0.018470731418412913,-0.002597354708482097,8.11
0.10151608603698987,-0.01307056091128672,9.788844447671382,0.00268911490486867,-0.006476999220910039,0.01888989061864482,8.120000000000001
-0.11905213684414362,-0.17300767450460233,9.776141288150706,-0.011304549696905329,0.006574902903907125,-0.003968081920617847,8.13
-0.003437710625037436,-0.13867661059423228,9.934925159361878,-0.007701759739837253,-0.005982863379915153,0.008112352885996625,8.14
-0.0015724949554053855,0.04266209501275725,9.800681610166531,1.2173182487565037e-05,0.013882843319974292,0.0032292867026523175,8.15
0.1766521055375312,-0.0528947639817886,9.707037834316468,0.0006949696388028451,0.006626741522522579,0.009295745183461681,8.16
-0.01852697695918731,-0.08701542976799796,9.765737208365035,-0.018085596753995046,0.003321149098059366,-0.006083923062565523,8.17
0.1276215994657259,0.10852724213199012,9.919120591452836,-0.010800180839049076,-0.0028501806756963464,0.007163457020318504,8.18
-0.038132638386995606,-0.054543345032269944,9.916998348657538,-0.01659579903685121,0.0024630578029438705,0.00462346444690812,8.19
-0.0018175829226163228,0.08948826182711307,9.791112412561139,0.012673866860106946,0.0023057008300784347,-0.004055558192482093,8.2
-0.15275857475334786,0.004858640517365204,9.92257571503322,-0.0005750503068416706,0.027169229469934116,-0.012257390253257866,8.21
0.01983427694940768,0.0627881054188366,9.812953293498902,-0.0016816148823755458,-0.010116445604408343,-0.008434409144642318,8.22
-0.037143956015847135,0.057554847729832825,9.775201466832028,0.006887382707268768,0.00020240783355031367,0.0003846641783111578,8.23
-0.13782763562991535,0.041196502737900674,9.969757539841746,0.010694815345730815,0.001982807590988348,-0.002099771588747005,8.24
-0.026529714500590836,-0.056635561904352205,10.001176802539666,-0.0022284645016433765,-0.005665539311835894,-0.010303903399144219,8.25
-0.01997061156862075,0.05249943332856908,9.710706122133635,0.0029088185972382698,-0.019169455029041233,-0.007792544102663621,8.26
0.13151757468499886,-0.020076197181493234,9.73430734901035,0.007254127910902938,0.002095705508961909,-0.007678104704567506,8.27
0.07714314263125456,-0.013126779878425511,9.845343932070776,0.010015423902152343,0.0017428401677603916,0.011833339347740765,8.28
-0.10716191609239854,-0.061948144154208844,9.803154710676727,-0.005482377440736799,0.023888321626209283,-0.003965183079553521,8.290000000000001
-0.07379850250506848,0.015778572417059832,9.775618461463216,0.0017747820432801936,-0.0003776654565816338,0.025117808867517116,8.3
-0.028911912049704076,0.17690714521954898,9.668289551067888,0.01303403536072098,0.006864122065562406,0.007450617356663601,8.31
-0.07609304333523431,0.008785698171667458,9.808880288137255,0.01380485477938064,-0.003148196530229312,0.000985313038296676,8.32
-0.016330061585110713,0.039873076183498654,9.863515892002042,0.00979849651686245,-0.0038679876719806224,-0.004543936166494903,8.33
0.06736267320900666,-0.055033282008435595,9.84614433269209,0.011016997029698892,-0.004968441994756175,-0.002682285170301079,8.34
-0.07635578110696295,-0.11845954067227837,9.84209699830745,-0.015233631905708334,-0.006696300971419841,-0.005162476559533926,8.35
0.10667394348478317,0.11594471345511013,9.920312142841613,0.006635143348700242,0.009191516580152602,-0.004779037152582945,8.36
-0.0662200957887817,-0.18530397438778726,9.843285430608884,0.002931248640662725,-0.01440461493030999,0.004490198230476249,8.370000000000001
0.1148281027938535,-0.06772712031485388,9.882888017344445,0.013078116630381924,0.011231257801758614,-0.0008401215289547814,8.38
-0.07359959044529245,0.0103350836990256,9.87916512778279,-0.0071563914787836505,0.006968944556138835,0.01177797744861693,8.39
-0.11893513166880564,-0.15484362922138173,9.93164031844338,-0.0018227766958413372,-0.010091948391848462,0.006537745138932749,8.4
-0.1009798888355741,0.0065286041851668145,9.558152727059639,-0.014197942766140198,-0.005134956301650069,-0.002805947821924121,8.41
0.03714148300066578,-0.047851182546395615,9.857047617925577,0.0016545092407482004,0.01291927166444058,-0.004493510302342162,8.42
0.039526256223695176,-0.04401914342145013,9.669944042892425,-0.002863531967755055,0.0005058785190974886,-0.0042164799759579555,8.43
0.01626714048821193,-0.045000772254169014,9.843915066026034,0.0029355292761546544,0.018859117881220112,0.012965272833746768,8.44
-0.08053701204665742,-0.05639992150895206,9.837062295588593,-0.012681701590642613,0.02403322230124805,0.010121476390379922,8.45
-0.05672172081848442,-0.018461720198406254,9.755121546314557,0.0145941586750859,0.010530216234666106,-0.005372448967780328,8.46
-0.017304644056140777,-0.09080497588625334,9.797388836404629,0.020913063090885115,0.002842958037039513,-0.0027204887666414193,8.47
-0.06474056509077385,-0.07839780149030558,9.72761786733212,0.0012202552400488837,-0.004584684654678559,-0.015031969724176836,8.48
0.09622482804873457,0.12522710761981057,9.891805096073877,-0.016282654582903865,0.017112532203719992,0.0017521788421949187,8.49
0.0948833521092715,-0.029061269834136566,10.062150715171867,-0.003118817888072129,-0.0060856224947702185,0.023889897048778343,8.5
-0.19569720896868598,-0.10092087818163949,9.845794770592372,-0.0005173192773291391,0.002246628910590792,0.019819994141655608,8.51
0.0485098697439361,0.06463896727506045,9.803246406992079,0.0027216034291470256,-0.0030746700497723636,-0.003742548029838348,8.52
-0.19882748782425408,-0.061231894070720064,9.802650312685849,0.000785327613411382,0.007489760288777439,-0.009918021774485792,8.53
-0.0036154621095957347,0.002090477702475363,9.670228490566192,0.00947523361180868,-0.003556227597253075,0.005105492708671464,8.540000000000001
0.045690719141219666,-0.050326387942510376,9.804730129106767,-0.012526006368575052,0.0023980283400391058,0.006549460677792002,8.55
-0.1047701125664033,0.058063593676003084,9.8996081288724,-0.008853267899383396,-0.005662122223665007,0.011731255537415892,8.56
-0.061043112069732376,0.02057209838291009,9.99351106078896,0.004894042317682211,-0.011673761531642377,-0.0029718446956253862,8.57
0.058282725706557105,-0.1121784148661229,9.931181609847224,0.00988849317862393,0.0018036350556962142,0.022651291719215122,8.58
0.05647328426369102,-0.005119139017728366,9.7767222609852,-0.0069547781111584965,0.003751440844118349,-0.019726018823191496,8.59
-0.06680471544386878,0.09372515466888526,9.81349156346637,0.0061351357751499545,0.0019601903089785165,0.018711380464204414,8.6
-0.009060023586726343,0.11671937304563301,9.85127464556552,-0.01415859660857454,0.0032124529711770916,0.003341316187160379,8.61
-0.04241168951240922,0.08891657040928992,9.843676251207494,0.015279645094028028,0.013752319549598038,-0.0004828690577245377,8.620000000000001
0.1057371700565797,0.21009618179112405,9.689472698642318,0.004464855501374081,-0.0006927110721725776,0.0012914016844522073,8.63
0.059988598253034,-0.19356978301096667,9.918782955754788,0.0015458809542698035,0.014321885884212977,0.00519978368987913,8.64
0.06066600538131235,0.07082233684712401,9.86130092857656,0.003959936947316658,-0.001502958695672441,0.009583533808676362,8.65
-0.03186005666145879,0.23876873134958726,9.866627561372866,-0.014209744336215366,0.0144855129602718,0.009989260798807149,8.66
-0.06133207281101516,-0.20562375965106888,9.843544023112445,-0.00041659021605072434,-0.019883296267648655,-0.014290069855761516,8.67
0.03619703385495857,-0.008329495700929728,9.876313516419426,-0.012641060659558896,-0.01012947792819546,-0.004863610170607396,8.68
-0.023365849656431955,-0.11955437561708332,9.856029070417218,0.0016731772567997833,-0.011235274655880924,-0.012645775249250408,8.69
0.0624523639110423,0.08005270792746218,9.843913058210326,0.00109410046752777,-0.0013094002777679279,0.010606650040028224,8.700000000000001
0.17097767317256907,-0.015456768040085623,9.910071090504829,-0.01052588164305908,0.013650407094912994,0.0056126820487659695,8.71
0.031069532285439846,-0.09428797587008926,9.737690150213501,-0.00582631766324847,0.0036491280968662344,-0.0016808244409528806,8.72
-0.014403497114615955,0.08910826281255108,9.864809531025621,0.00999891203318134,-0.00801137368920471,-0.012735782841440665,8.73
-0.0776335227067278,-0.027579328117720445,9.954318536333135,0.013336731949585049,-0.0038930240160377013,0.0044821201521050135,8.74
0.08689106748546326,-0.006405060232139984,9.854090756496214,-0.0026779626731621344,0.0025642902625459176,0.012944073536501977,8.75
0.023945856420433852,-0.020562568137973188,9.733824417761562,0.009920052863561466,-0.0042467564418993175,0.0019809262470214272,8.76
0.021558566427215195,-0.01408014672469308,9.947863760747554,-0.006982445415499514,-0.001980973147372428,0.008666637355974458,8.77
-0.12869586337402272,-0.04678525986947575,9.76056176368583,0.0037795115656269313,-0.005414840425585945,0.0011682941048708983,8.78
0.04280076414686502,-0.060928264211054906,9.954399566697306,0.0017410568058406114,-0.011043815027276674,0.003724822598796757,8.790000000000001
-0.005755441216684597,-0.04477588440174296,9.627269523598642,-0.004390790931934177,0.014272768096177621,-0.0017861724211588655,8.8
-0.09905804836717834,0.10159264364918666,9.798561781608793,0.006340489313498524,0.010185819902486863,0.0029272825066069337,8.81
-0.07912351305263488,0.013075636177467698,9.89665194147534,0.0036917776685305667,0.011243572176222042,0.007964773249142158,8.82
0.02727865025209141,-0.11537304453140954,9.859532179025727,0.010626340081088844,-0.001885103554286682,-0.0086529135973851,8.83
-0.00825747720218632,0.02057601330431519,9.946585163244107,-0.00847307745820474,0.01621166192415192,0.0009831635528789542,8.84
-0.08437738689726557,0.09547232331202726,9.760862025542949,-0.014962800335058873,-0.00410925948157421,0.006866287241075573,8.85
0.053971724286681746,0.011476517547647933,9.803345975144643,-0.002631443180535507,-0.010003200652509661,-0.005734039169596813,8.86
-0.1289252924614284,-0.12171088135783883,9.743807520517901,0.00038408030660722455,-0.008007987652738871,-0.009156381374565427,8.870000000000001
0.029388533985401512,-0.019284069865872486,9.82746485529895,0.01845068808321954,0.010610432476414496,0.0069180019335660856,8.88
0.04984323075480723,-0.0021459633184025932,9.784404689117995,-0.005589478976328617,0.002344156238150991,0.002233464480388227,8.89
0.05541234369948833,-0.15861329473244581,9.88336808263124,-0.00021067368600149528,-0.02223155183493031,0.009758437844742496,8.9
-0.08337199656204164,-0.10682208921694497,9.876682419599033,0.0014862828743387876,-0.004672247219154665,-0.011161954819587747,8.91
0.09574741768076117,-0.006435174053934481,9.8787317148814,0.00830557277907659,0.015170178088527216,0.006596625034848393,8.92
-0.19055227553391962,0.04657870254028151,9.828562501248296,0.007593288443739136,-0.009431441703754446,-0.0007493762435264483,8.93
0.20072145208847103,0.10442966871976114,9.84072400499954,0.009429811929316382,0.0031077252552352704,0.00256083492156076,8.94
-0.281098673929562,0.07167057905852763,9.754501638435471,-0.007665729718169419,-0.024775805592729672,0.0022604599270443933,8.950000000000001
0.1196593819070952,0.12633560151442183,9.740144918723482,-0.0006645954130110365,0.0020505267958144235,-0.0011296858561476591,8.96
-0.08547174819796209,0.05129705820015465,9.431375183817057,0.01067712700892099,-0.01196268912381722,-0.001570726270980787,8.97
-0.009548015062094063,-0.16802316530035544,9.977095991261239,-0.014162965894088836,-0.023071100366083033,0.010546976130674604,8.98
0.013317787876425513,-0.20872113421320115,9.912958660583527,0.00544260927377095,0.0017351763982278732,-0.005650586749102034,8.99
-0.020951128071830315,-0.01314442952689367,9.820096705341333,0.00971334787110374,0.014542731626445503,0.004343723210723665,9.0
-0.11350651366690512,-0.07449385693135628,9.859495193735157,0.00654913504037743,-0.016704028959366745,0.007188725163872456,9.01
-0.12233110662075677,0.1037042426910738,9.855742437696673,0.012587459810848878,0.008428329256032461,-0.010044327157466662,9.02
-0.08269632793342574,0.03556179747997794,9.875600390084212,0.0017838492058355909,-0.00935278419934993,-0.01036684041669317,9.03
0.1143358194218523,0.029884614024397932,9.818012313476045,-0.014724023059092728,-0.003933016786644929,-0.012158958203247758,9.040000000000001
-0.1477728925048028,0.11056247104896869,9.844798584415154,-0.003179349534866778,0.010742499629935238,0.004812826875773995,9.05
0.06577743377298217,-0.09063832781182271,9.585197858234226,0.011520371542192922,0.0032475877250919332,0.0010330341552150211,9.06
0.1303869446512711,0.09993078135716867,9.911327405996076,0.014308311241620726,0.008378949049730392,-0.0017649758646440946,9.07
-0.13167545728389204,0.05051963496652409,9.70489910222496,-0.0006034285551510925,-0.01580084298204868,0.0005936471532808952,9.08
0.0070326732710313715,0.04401629827916543,9.810406588420893,0.0016392400785168954,0.0038365366749392557,-0.011191412417363038,9.09
-0.021875182331569668,-0.006478781578261485,9.599788599832182,-0.01282629491128568,-0.0019001684723487767,-0.007925400157089913,9.1
0.046772714325165846,0.044517275914431616,9.775160924759819,-0.011907413227036399,-0.002944665174847603,-0.007918626196372631,9.11
-0.0009881735566977395,0.04336912958194249,9.873067183257872,0.006033821242845878,0.003978413294646934,-0.00031960795367190833,9.120000000000001
-0.15100031335036243,-0.08717518982860817,9.79938271653176,0.00413813818551467,-0.0010526092047658706,0.012818549508520877,9.13
0.02962688886595389,0.02334669350214191,9.736933593368732,-0.008099488731365108,-0.012612383278695283,0.0022043713743446704,9.14
-0.15559516723536768,-0.1456388252246101,9.80037445218101,0.019689716265337533,0.006730116345892803,0.001115334204255555,9.15
0.06271171705274513,0.01243874057829969,9.964072902005412,-0.011018144832630623,-0.0077629879646126864,0.0022334971941096733,9.16
