ax,ay,az,gx,gy,gz,timestamp
0.014911778523786591,-0.19325483510673971,9.91149007805265,-0.0028544973453205093,-0.0014597325841190618,0.008026103745882496,0.0
-0.11617584714035795,0.013812373947423073,9.754185928060725,0.01670328679281071,0.013351076998412608,0.005720564376995172,0.01
-0.008431572178093089,0.11041754096601562,9.964201818749418,-0.00654227078162634,0.0038039858634596134,0.010660193876697642,0.02
-0.13416847883002167,0.1316377801199587,9.886714557174038,-0.010156835050601063,0.007215510011310911,0.021295502018496445,0.03
0.052340724686399165,0.0747632654370791,9.664472699113041,0.007326817770685968,-0.0013504128280264311,-0.012390424323372302,0.04
-0.037896220912426226,0.02088396004801971,9.747289071809506,-0.015044044255908296,-5.806854709665286e-05,-0.009366577076323141,0.05
0.09316701657177774,0.007255565291073993,9.829848943679515,0.002589244441865733,0.014183413181115235,0.006176573571209305,0.06
-0.045062467483474096,-0.14920312938102195,9.878107591005154,0.012481776034220064,-0.014198259594067853,-0.008766527005194953,0.07
-0.04117083997211084,-0.1568948661848632,9.777311752818319,0.0054121313351333305,-0.004767618423576983,-0.017716477312591,0.08
0.012095319780313148,0.1078244589034259,9.708284941239583,-0.006856680715743833,-0.0006138573004709735,0.01067010243543547,0.09
-0.02162691494740393,-0.06771446750750958,9.68913754346257,-0.0016516371898189354,-0.009710758043972237,0.0009066740850944277,0.1
0.035669275776557444,0.18275738361078187,9.924186788055591,0.0030919028776132174,0.01009915508674018,0.02130901744915305,0.11
0.1377733919094149,-0.0732063834280387,9.895567018299001,-0.01270055977037523,7.960665448906323e-05,0.007553994863340527,0.12
-0.2530336496504497,-0.07635607200497224,9.8596591236088,0.0032318154572307085,7.534624352631997e-05,0.006156874001402104,0.13
0.1306006396631447,0.07407899669958244,9.746858699434055,-0.009284049231176348,-0.00048680611346218854,-0.0003805216603045533,0.14
0.015349104860154306,-0.06063746639500675,9.815343856907567,-0.010252381281818289,-0.0009086542245590263,-0.012183273000330144,0.15
-0.006752070140619307,-0.04715312182468607,9.861088281003234,-0.008829922990977212,0.0008200530227955264,-0.016990514638699602,0.16
0.06621671487198565,-0.019576844324686718,9.938840638761164,0.018647284129332177,-0.0006778044741272434,-0.01147609727964332,0.17
0.14002403216930603,-0.032345215993848805,9.918834540480187,0.008800967934305529,-0.005564603999911762,-0.002755246817502975,0.18
-0.25248876669616793,0.017007534360990305,9.73112418813041,0.01981745582971701,-0.0061446328214920225,-0.0020002154425803236,0.19
-0.10077917380019848,0.023065696166439525,9.60556798653948,-0.014468346848753783,0.019171257186423284,0.002528623130904375,0.2
0.008165666839703286,0.010808322789825027,9.808781980471426,-0.01054352110570393,-0.014844597608480503,0.0009583085567308071,0.21
0.00959283602467844,0.03984868138987867,9.843394886381317,-0.0024683782805950466,0.002134118975108664,-0.0059206595825103845,0.22
0.056089712121925234,-0.021263956084231296,9.846775112318737,0.014010469743929686,-0.004186741776919602,0.010921668772424897,0.23
-0.12196687956260742,-0.1540897228573162,9.901580259527266,0.008246431996321272,-0.006444079060222019,0.005245455298402155,0.24
-0.04928405569807939,-0.05717287612976532,9.800547660893148,0.016415252605419366,0.009919973019289919,0.007588527584064545,0.25
-0.006854222116421294,-0.07113992357355668,9.692822691747141,-0.007577850149691548,0.003359186968000901,0.020686892062313174,0.26
-0.2414372510868047,0.09406080037867204,9.77093878410447,0.010701620428113122,-0.004658692444600579,-0.002271492121478519,0.27
0.06751667905330398,-0.1944819708329312,9.754982486725101,-0.00549865395936684,-0.03372387578490171,-0.001866614150751522,0.28
-0.01958101966530991,-0.06215852620370015,9.872871622626542,-0.005510240695496584,0.0014197949354367051,-0.021753468855304665,0.29
-0.12987379135764604,-0.12240330893796225,9.782029959994816,0.007053382576860848,-0.011968737285784415,-0.0002261580689817907,0.3
0.08450198671083098,0.0468843203246614,9.684371023117514,-0.006393923781011441,-0.007931584211377837,0.002039287117192062,0.31
-0.008054166569682365,-0.15952202775196295,9.696404699308118,-0.005742722949412019,-0.007424103630590586,0.001205345214188372,0.32
-0.10009867017421813,0.024412170353050933,9.812040970900988,0.007519827161778552,-0.009669439925221512,-0.007112268574661938,0.33
-0.22119397805844754,-0.1592654349703652,9.918475274243537,-0.02259088824359048,-0.004816442123320108,0.010911731602074195,0.34
0.06897340324301768,-0.10640433627608657,9.951155993703452,-0.00026321390887259653,-0.015576922316226743,0.0008012418308341515,0.35000000000000003
-0.0251816142914513,-0.20111566453307084,9.858367294544324,0.008696242908956651,0.015302675184245836,0.00031496807449089023,0.36
-0.05672794279449514,0.057039344431247856,9.942280642537346,-0.006355442669636503,0.010429270382063741,0.01546019615789058,0.37
-0.11113908343572176,0.002572903592981675,9.744793798186862,0.009076253048638632,-0.0021802918300272882,0.01724189930465263,0.38
0.06820768020750663,0.07228834348104567,9.764259787150571,-0.015467388033640438,-0.013873128879928132,-0.016876430811756157,0.39
-0.04176977265382116,-0.10354072509009037,9.731877874093595,-0.001818481975877226,0.005197285528049587,-0.025229687750274198,0.4
0.005741057961477148,-0.08009731296439404,9.791551357251516,0.00750258711683779,0.0020185284656646786,0.014014216391852801,0.41000000000000003
0.08909458535788085,0.07231607395997729,9.776956091791787,0.00695467237593051,-0.0017568603722783165,-0.005520629272643719,0.42
0.03040924924463481,0.017983259133113133,9.72777976264397,-0.0029345425385016184,0.011908529321110216,-0.005862916837971857,0.43
-0.18198083233295573,-0.0745540011806237,9.680598079071597,-0.008605717124428522,0.008117139519105232,0.006474741458196866,0.44
-0.037370612178153115,-0.19080518035774674,9.76817519015102,0.00606202446082144,-0.019505175812364935,-0.009726265294372812,0.45
-0.057588286029102424,0.10814378418690118,9.839298243157668,0.0007155646556228441,0.0013163471530092305,0.006491857379333077,0.46
-0.09114032294384793,-0.1272460295495144,9.733183217995169,0.018279589959541223,-0.014450413627295463,-0.01091569299687152,0.47000000000000003
-0.035247367355371984,-0.1311348733867065,9.86624311371886,0.00064314609489876,0.0033973199459952914,0.013811902012044446,0.48
-0.0021646315054541856,0.16653002421706442,9.655364940735023,0.003944981254993753,-0.015169084788242984,0.006569244287203377,0.49
-0.08470998508563021,0.06221475816565654,9.88159321253055,-0.01587338034359954,0.0017014398177053333,0.004315305769276685,0.5
0.057801384362174,-0.11805499286427368,9.737233780300828,-0.015102703987783645,-0.0050666555013075135,-0.0137334474788302,0.51
0.04377983229037741,-0.32697409279064577,9.951599268287875,0.0025243681469810874,-0.01307311478373723,0.001399371333158479,0.52
0.08331137424024064,-0.1657264614274008,9.765299726613918,-0.007541276841761486,0.021026463724726205,-0.0016343146232485632,0.53
-0.10941005073647025,-0.051380593605832414,10.065910018089061,-0.0027102184470568997,-0.014976844923048583,-0.0020670400755002506,0.54
-0.01344862140825803,-0.09414990731823195,9.862356705065158,-0.007540608522890684,0.0046140290441514225,0.0004335208635047976,0.55
-0.03567845728614484,-0.14115175920356368,9.612053653623262,-0.0022204133567014224,0.0029172520490722545,0.006856336942688787,0.56
-0.00525928655205922,0.17032183396489275,9.813071971884973,-0.01230602291927047,0.0012929325826457495,-0.004385705105290953,0.5700000000000001
-0.013066048235497589,0.06225567457737938,9.808159004942839,0.012036268875616523,0.009974204119220727,-0.018034944365694607,0.58
-0.0324639545305759,0.007176030808807453,9.95612728129486,-7.338779826901706e-05,0.011980640794604133,0.009389142101002291,0.59
-0.017676005105871754,-0.043027197503079366,9.735512182892192,0.008504899441886947,0.004887910430540695,-0.00874701843622172,0.6
-0.019669705480594348,-0.035672352212087505,9.745354871207997,0.0005776344401457589,0.009927115310513076,-0.020088221818092743,0.61
-0.026387342032830847,-0.10728225495843187,9.736759558848926,0.014092202174446941,-0.0006072040112724618,0.0099649808791686,0.62
0.028703398120172446,-0.006412247484678418,9.821075237970172,0.008133622711917593,0.011736778122240374,0.0015585144959488074,0.63
0.06839073064873803,0.09365604730291485,9.845187821049686,-0.005751928511095975,0.017989983640030145,-0.0124067321367089,0.64
0.13513702931921798,-0.10094164990053352,9.870412615672834,0.006322002741408296,-0.0033596387932595955,-0.007137268913827019,0.65
-0.17035091075543915,0.12402868523644091,9.85511960294295,0.0013832114396851636,-0.0048864794011455395,-0.0008524156364384106,0.66
-0.11763285850054075,0.1677183787489814,9.68468875238854,-0.006591979141374055,-0.011876134724196137,0.014651922214534794,0.67
-0.09345421409981146,-0.08720901970522299,9.755019235389756,-0.016071442122498666,-0.0150970704702922,0.010843504577436306,0.68
0.03414963824760538,0.27595582469661134,9.853172676010193,0.0011881215126695874,0.0029453494493793544,0.008280973703379354,0.6900000000000001
-0.10084670626136481,-0.06831177508717055,9.874738603836224,-0.013947373890582801,-0.012479296398706256,-0.016446296543646516,0.7000000000000001
0.1188765803246501,0.01994745671570795,9.802767078477496,-0.007852920366367023,0.013885475904239115,-0.004824660892222248,0.71
-0.048241786702995657,0.053688559553565864,9.797872640858238,0.018285620803567715,0.007631628560408594,-0.005553188313195876,0.72
-0.16056258675012788,0.0010967243716823864,9.893950620268736,-0.010598340475270522,-0.004968676870535153,0.011990070810319347,0.73
0.13705046382915562,0.0037989993838602916,9.726669856659205,-0.007407354313720731,0.0008682328376180513,-0.00352714059374199,0.74
0.0855370414859231,0.07696722337414641,9.885035759773542,-0.005126188781351434,-0.0004283404791882489,-0.0035762564554192382,0.75
0.16396790045907986,-0.08222885862200113,9.777389779790909,-0.00577109712397383,0.003799674335857913,-0.006969438391714523,0.76
0.02045552325375089,-0.03247824750432606,9.58834318090093,-0.0011938589998677128,0.024675770010385675,-0.000705604701880449,0.77
0.07953647516835885,0.008643403914912523,9.74881416667887,-0.003075828412549235,-0.007844133735347581,-0.011541288005974362,0.78
-0.09492598106137069,-0.0044725738865732416,9.759326172975832,0.0148541599945936,-0.018825638343668485,-0.01081187332036485,0.79
0.02894845449175089,-0.15362752947161207,9.66518320327916,0.004110310973891448,-0.0009583090283726722,0.014045912347199128,0.8
-0.054391018919305194,0.09720374673629328,9.701817465280856,0.005404571059035418,-0.005615874394956707,-0.009985676867529861,0.81
0.15667169221427324,-0.021608490006511827,10.015428987801627,-0.002342406964315282,0.020773633214212456,-0.01228566659543561,0.8200000000000001
0.010162252256310508,0.0813966969024113,9.82209245596008,0.016320492582715656,0.0070202664898800175,-0.0013296355824446934,0.8300000000000001
-0.24227672348120693,0.0006405004998387508,9.783447830775982,-0.014994751151619246,0.011276013074726763,-0.00881955882776241,0.84
0.011742340769880741,-0.22070155979780323,9.8968149335259,0.004629450043590297,-0.002387890662308908,-0.0024714128914921077,0.85
0.11158593269238007,-0.09138074398119077,9.86398030735464,0.007439091654854162,0.0015583936360160477,-0.02115710047714815,0.86
0.08085355929070513,-0.052032893737433396,9.82360007350682,0.011951292095441424,-0.0028725355173756357,-0.008736409760675093,0.87
0.23952693952539833,0.04353344531073905,9.888974626994358,-0.00028074099485800124,0.012559209282339395,0.004850478765064782,0.88
-0.11797120534617625,0.14946771351229504,9.833162470822815,0.02350535619840696,0.01018850142951785,0.012583142639983681,0.89
-0.077121125186844,-0.10061758023168299,9.711927692923469,0.0202248531964399,-0.01657069814240367,0.0026649911879372185,0.9
0.00796932362515868,0.12817966326552957,9.613576394050355,0.006184853461788335,0.0017102544672852097,0.013180521439837037,0.91
0.14651432916460805,0.17136411299647586,9.725217970327629,0.01093842565817378,0.011057506939320304,-0.0043792663290562655,0.92
0.009662003602333363,0.14125356788427187,9.820033079126846,0.004706597778420719,-0.0073167541042939615,-0.002833220094695599,0.93
0.06205383912647014,0.17074397573012862,9.941086932049298,0.0051327849241887295,0.0004979725836668479,0.002159184187476511,0.9400000000000001
0.13560685280323725,0.39846111914213245,9.687308150900185,0.013428936120555197,-0.010537346654644803,-0.022231496915504554,0.9500000000000001
-0.018342815791831835,0.15054415368302654,9.78057616755721,0.0003137448867177558,0.01567350770395229,-0.007296257515829376,0.96
0.1436911646858597,-0.045012153261663405,10.033552230627102,0.002169576600593879,-0.007407624245730715,0.018177015645404825,0.97
0.06422887239334397,0.050629762661512194,9.723594653395024,-0.019920624875226535,-0.009638973263694683,-0.006988702811204295,0.98
0.0359311629902426,-0.021066395369897944,9.837156596115655,0.007362426908205984,-0.004166900122858242,0.00120846953423845,0.99
0.017237444339945823,-0.0437350562327424,9.816129982838065,-0.016194345233953748,-4.4550373425281344e-05,-0.008741044428108375,1.0
-0.010818376051182728,0.032691182055300826,9.859693148022144,-0.004872143729653773,-0.017882101024843815,0.0020852841044338264,1.01
0.017547140378414237,-0.036244959501557344,9.740425924582095,-0.0003467814649881525,0.010850130030148826,-0.01629827487314706,1.02
0.032220604967259064,-0.16281921836171798,9.847016301962514,-0.011201993178339762,0.020952759584576985,0.002072018518601637,1.03
0.06710938928910669,-0.05613570264805587,9.794507699951298,-0.010914842187515686,0.010369608841008586,-0.015101302750622507,1.04
0.19931712499481746,0.12291742593534448,9.751839994543369,-0.0018434520373822674,0.011903408658858812,0.01553254724386448,1.05
-0.16480739525466911,0.14417126335160915,9.839505299713553,0.004602514807722899,0.00738627909041657,0.013402931928733777,1.06
-0.07839464731803958,-0.02190074567395359,10.04090179561728,-0.0003091681257547999,0.0072164338187676895,-0.0014597354825626662,1.07
-0.09452596997580304,0.03743982390775679,9.66349156902454,0.0010644917143976095,-0.004150732088861562,-0.011148547250464836,1.08
0.10132376708083538,-0.04221686388649579,9.915900888237157,0.0033612628635320088,0.0038465476868967024,-0.001208549779083342,1.09
0.1383169716414194,0.054479591716740106,9.861829560261372,0.0027658698938593093,-0.010359338035808461,0.003406792786565516,1.1
0.029650574426763016,-0.09284712876346694,9.896889170283671,0.00619414868371713,0.004163263043859692,0.003405186618704918,1.11
0.029693729846933487,-0.014324639767496043,9.705646111148962,0.021230343437377557,4.998261131095127e-05,0.0005484251479717472,1.12
0.05982634689063554,0.06393135518051447,9.99486528083965,0.003120447384100697,0.0052015531145357145,-0.005686111277053591,1.1300000000000001
-0.008161130268379111,0.04571660036998561,9.77613638014793,-0.0035340960037470266,0.013587694103633325,0.004253751894267897,1.1400000000000001
-0.09129965868866753,0.02809062021361245,9.943266036033487,0.001097191042936372,-0.0004887905081852366,-0.019929030869836505,1.1500000000000001
0.19510131992029475,-0.0715800280158359,9.77561231985868,0.010891342731814411,1.1728968162744452e-06,-6.0812866916768826e-05,1.16
0.03788681879744138,-0.2691583669736236,9.862214701229497,-0.008519258631026953,-0.003785132567798767,-0.002834333029887119,1.17
-0.01996254778028054,0.024412280227586142,9.98003329519468,-0.007013823132735007,-0.006490417610531456,0.0022769652880015364,1.18
0.0978315374017798,0.0569572424360303,9.820203324307776,-0.009361293055855535,-0.010999195502946557,0.0037065008047941135,1.19
0.04774251225063711,0.050846845890371875,9.833008632027422,0.008905810409162229,0.006097240976366401,-0.010113441115854712,1.2
0.02843975240708499,-0.0607200878028758,9.630431629220993,0.016412363637219374,0.0059131911291596395,0.004600054941533415,1.21
-0.05248889182669301,0.017271387925646555,9.816360343731944,-0.011384826747247064,-0.009221784570758642,0.0007144928101056534,1.22
0.1841184210858101,0.059496756442990066,9.723277502929284,0.003299954366238527,-0.00651443922666679,0.0014525759704306378,1.23
0.044009393860680535,-0.0059711952800402335,9.731254681551848,-6.216399679769175e-05,-0.011487124081877503,0.002686525601933718,1.24
-0.06554695934255843,-0.01607891796752625,9.87286101422502,-0.006717939315989836,-0.003861474329402932,-0.0051528327702805915,1.25
-0.08988365498619043,-0.05308636774557898,9.874638587606027,-0.004841702049416395,-0.013739027302375728,0.0030679150887772816,1.26
-0.06677099527489581,-0.23552864634137585,9.897502701633375,0.009258578355759843,0.0007490731290399805,0.009386092858985107,1.27
-0.08672198113490005,-0.09896973382507174,9.656560218555343,-0.002664961203358306,0.0007477269752384175,0.010322090128801196,1.28
-0.19196170315493,0.0595109409143094,9.835799111537597,-0.0007214513376401073,0.010594873999012886,0.0030488914441966076,1.29
0.016924901598299093,0.10910670641112144,9.863568296631703,-0.0208352770620748,0.0013963950323572186,0.010055351955834091,1.3
-0.12379242165968363,-0.15551229903468122,9.819774878338238,-0.004326859565457527,0.00485086173886745,-0.003855269831234221,1.31
-0.09159105005747648,0.04486813506112617,9.798761355778502,0.0023050814519605246,0.0034289639258336087,0.019241510292164865,1.32
-0.03310697206114315,0.40230384600234653,9.821380079547117,0.004266041243218946,-0.023422806022410397,-0.0017585099550098294,1.33
0.1526461341986485,-0.04630268230601049,9.939852426830225,-0.009325089608961997,0.00048204707838439196,0.01029573170476599,1.34
-0.1290512507933974,0.047228508228017024,9.715765591525567,-0.024658602109710746,-0.0033068524010177775,0.012903387261802306,1.35
0.2167506674101631,-0.11069082921315301,9.766448425759927,0.019856377664810757,-0.01217624454736572,-0.013842750540889615,1.36
0.020110316733256903,0.02132872824354594,9.69921548007365,0.00949229443745149,-0.004989693383812262,-0.014234724280112724,1.37
0.03320879037324229,0.09029947907945275,9.797967443301149,0.001357129806685305,0.001576431894357923,0.005330952481196367,1.3800000000000001
0.08330088012394347,0.08539829301392787,9.7365169396621,-0.0027488702471379876,0.005170480171430818,-0.01358394829883647,1.3900000000000001
0.14149054854220652,-0.08984675434396437,9.676607621351705,-0.001485619484491957,0.001164975343056271,-0.008528962803631667,1.4000000000000001
-0.001154476956435795,0.09186182268672738,9.804341762234992,-0.006813148138098118,-0.0033637517949781227,-0.0047151693261903264,1.41
-0.04163075165368854,0.07176223205842984,9.588373209871088,0.013999092379316364,0.0038589715942276806,-0.0063317052513941555,1.42
0.0035353953305367197,-0.057420736504775395,9.86560642758595,-0.0015555268974562048,0.0109942722018826,0.006307827145328016,1.43
-0.0481340174389331,-0.0487876076203868,9.823340843682058,-0.018787292343422406,-0.007612096233323793,-0.02383321271564334,1.44
0.07360964963463242,-0.10843086730520815,9.75409916253145,-0.0035517841762992153,0.010840581418641082,-0.0031115678926843904,1.45
0.018296881729061146,-0.018418239315427024,9.882917615803969,0.0050012572570166,0.00021661612981427003,-0.010814180615810756,1.46
-0.09164398024983963,-0.13422980268177856,9.706163899058708,-0.0011632587947018015,-0.004098630728512314,0.012286303823780145,1.47
0.2601627011742262,-0.23442289997405452,9.889011098175686,-0.0022685984058098134,0.004327841318403502,-0.013651218314164009,1.48
-0.0521066587039296,-0.030241358541792884,9.88220997359211,-0.0033542933456525694,-0.0013358428707370914,-0.015804995579801803,1.49
-0.18416293396906325,-0.0765589806187808,9.680804866698768,0.007181019638269456,-0.005627574862121399,0.015911490819678943,1.5
-0.12462168038593889,-0.18776942474488367,9.853473876316095,-0.007553778934353109,-0.014465852336909498,-0.014887341422247055,1.51
-0.0438989611313883,0.05994477718468227,9.667660741170357,0.009225033286984286,-0.011092594993619592,0.025865939146155936,1.52
0.14338834015898413,-0.09850488221741721,9.750107992656261,-0.0045122684605685,-0.013239851741060021,-0.020642473699773164,1.53
-0.08032993304659079,0.01135867236910238,9.827591989188603,0.01124584831098027,-0.012802454009438637,0.004874002095521481,1.54
-0.0419350761945293,-0.0824109126725421,9.713754226758756,0.012955164707436887,0.006094167794318908,0.00032345665026492645,1.55
-0.10663238248040925,0.10811152519729822,9.961894346358541,-0.0217164088330285,0.020766643586364843,-0.007962231568183783,1.56
-0.04201014415720392,-0.043335202082573965,9.798986815341639,-0.015171010655029174,-0.008453984099579029,-0.008707136728218183,1.57
-0.07683043587194843,0.05436299144826454,9.7109752441537,0.004828103238410993,-0.014231484647549341,0.009099191039892946,1.58
0.14765480615911308,-0.07883492761434138,9.704381691061556,0.009988064348228643,0.02926577034904493,-0.013092103724648979,1.59
0.13905298440993452,-0.034167551738891924,9.928359931680431,-0.0027313170427025737,0.0007750352278608018,-0.008081029131168942,1.6
0.16376541275001516,0.00434734605868216,9.672720500096059,0.008411294085639238,0.008757170108879386,-0.0011514606024723296,1.61
0.007298429381905354,0.13463536676359295,9.781738158615955,-0.002775012209506919,-0.000482385336597428,-0.010484028140105803,1.62
0.14328743692732773,-0.01455824717177169,9.855976010854153,-0.0060440532952646155,-0.012983994202481848,-3.1600896155864545e-05,1.6300000000000001
-0.03205216398756774,-0.04827201592556734,9.683537040953073,-0.006551369188367596,-0.003486377002025182,-0.009476939639001251,1.6400000000000001
-0.041945900408764475,-0.09064915959310486,9.662739042599517,0.004272162587822147,-0.003923314024487745,-0.010363674283179204,1.6500000000000001
-0.08290591032686083,-0.0030348526664712282,9.864560473931236,0.021843457836810333,0.003252452422255761,0.0035361844203760174,1.6600000000000001
0.007167262860377135,-0.07737137313987283,9.837421366580092,-0.00032417828286594995,0.0018569028570037777,0.010100157179990727,1.67
-0.07069293883213067,-0.07835186495493482,9.874478655433348,0.011739145208998167,-0.005812962485257012,-0.016390173933078164,1.68
0.12990498737046677,0.014666949346686733,9.644436575229525,-0.0019898779924537734,0.002848593411095599,-0.00028580939380182436,1.69
-0.11311583066189415,-0.04563857724109157,9.869666813206845,0.010068166462112168,-0.0019043554433722644,0.004562178012336528,1.7
0.016555210777516496,-0.09805614920803268,9.811237015305524,-0.01794390297402309,-0.004888957260539851,-0.0022081884892787896,1.71
-0.07713659525150547,0.03305877667372621,9.666439871375006,0.0075818180696142195,0.007985055575927038,-0.01996097994819609,1.72
0.01672133544170695,0.06944713204445359,9.782505367275236,0.001818311204523945,0.007630070821622952,0.002966162640142043,1.73
-0.07650829538327401,0.03797574009694502,9.81608396356809,0.006383593040829548,0.0004418046361962491,0.004035044978226963,1.74
-0.014133440521801375,-0.13817998129388132,9.760447911769113,-0.00931791478403758,-0.01151468194292467,0.004338508907970106,1.75
0.021090156064786134,-0.025567972168556576,9.800493704255086,-0.005878659555123908,-0.010423349151868684,-0.02421577883404589,1.76
-0.09041846960872121,0.05567584733361414,9.715616690961932,0.010631950967865606,-0.0025110663266205485,-0.00975671551811586,1.77
0.0978851581624921,-0.07631925802129642,9.710641105805287,-0.0026379799476807303,0.0030777361083482516,-0.004608212872734863,1.78
-0.012798126469967792,-0.05058720719959595,9.813458277052737,-0.006814740807784452,0.00803798878750001,-0.01648571976880713,1.79
0.048901062813002986,0.14456491812118122,9.990741769097562,-0.01174282614765872,0.011202826007606623,-0.0039055449887682465,1.8
0.09727192297719334,-0.01856303560877412,9.877443570315371,-0.00694253136950031,0.00552261770104087,0.0029204963577688452,1.81
-0.1604466456602535,-0.01915675835310861,9.745733834602303,0.008024879152741988,-0.004889943185826067,0.017330502127734928,1.82
0.16073548385479897,-0.045303564369902065,9.777681863930225,-0.013474502740757748,0.0014817505010714127,0.005117550936188623,1.83
-0.007240652548862161,-0.08208293560968333,9.688948949685075,-0.0026682446208569637,0.00634750396932659,0.01777586824256917,1.84
0.016688143149824412,0.05814168132127583,9.826535960122897,0.005913289382218222,-0.006058872132858771,0.0026468591301319487,1.85
0.023172102729115976,-0.0037886332055372105,9.729209832614712,0.0040063438821643475,-0.008044836547230094,-0.0015712279575715654,1.86
0.15595383456920528,-0.03738476314132654,9.787500768699536,-0.0039789770461831275,0.008217509785431856,0.005429223598021302,1.87
0.08421552210621598,-0.05915814213398828,9.774994244327745,0.0064075641907531235,0.0024805019261361374,-0.011898001167595875,1.8800000000000001
-0.08031833591288712,-0.04244711451644032,9.780895901482086,-0.0020226955504836466,0.00032333253077902513,0.00030223133155899947,1.8900000000000001
0.19749042369836445,-0.06305117565184608,9.648390540474459,-0.002362282881753534,-0.010709767466719174,-0.0095908432290169,1.9000000000000001
0.0668683172619015,-0.07298900654876526,9.610253177916125,0.011325471464593437,-0.006842642500754748,-0.01705852815756336,1.9100000000000001
0.04731904973166845,0.023647431108364852,9.63348666271266,-0.013867109614755489,0.00020730997472609216,-0.012517147794306457,1.92
-0.031107168701487588,-0.026281736712507903,9.901354013122512,-0.020376383981496386,0.010683968938543462,0.00930263702668435,1.93
0.17030197391414292,0.01221274941112755,9.804029083276927,0.010360459618823044,-0.011042552507849548,-0.0007939834313691643,1.94
-0.05791763641790303,-0.09264382968984795,9.876680296439783,-0.007116958169860633,0.000792834679263939,-0.0011944925891668912,1.95
-0.15937867513947954,-0.11239407572249356,9.76498990652468,0.01761601792524208,-0.009931266976412348,0.008732477539212842,1.96
0.05020443922984881,0.007887986229966906,9.85023496372014,0.008131610814279802,-0.0004663583528801566,-0.014185201008106347,1.97
-0.018793591967570508,0.007963578907547654,9.880146079664394,0.015221128936202264,0.011948372817525267,-0.006415127111087223,1.98
-0.03571779480462763,0.005540720380455464,9.85687249542954,0.0024083693570721497,-0.003557277668441308,-0.014116585038658218,1.99
0.0361939991276008,0.010287485235066087,9.80262127769158,-0.007921257967878874,-0.005254232354166309,-0.017166064311153157,2.0
-0.1108176647571779,-0.17068757478248647,9.958409738056167,-0.0012811538250862042,-0.012012610713138817,-0.007995425922653891,2.0100000000000002
0.11171965481393052,0.2226213995364859,9.85712097870752,-0.0014633925695225153,0.015027387841264743,-0.003674437157566756,2.02
0.1437662729853185,-0.030914409727884746,9.783184653851457,0.0007226628380521965,0.00811828405386077,-0.008589027577150951,2.0300000000000002
-0.054128169517631865,0.18417777566079044,9.790305716593505,0.004956725674542624,-0.0002962445844131094,-0.009935975022062997,2.04
-0.03900159295737608,0.008581810205148364,9.812192608618897,0.0008040807032305424,-0.0017413406599897114,0.0018455976216571396,2.05
0.05541590254857004,0.2118057989694568,9.90236470015044,-0.012858865494316083,-0.003121724206616839,-0.0017502538039916376,2.06
0.06253513456266004,0.033848137937849326,9.892936573901833,-0.0061542453890777084,0.002064728703868899,0.011452187497927781,2.07
0.04749885401131196,-0.003972935605878004,9.847773913313883,0.0004574216508495492,-0.002225796373279645,-0.011259141624256485,2.08
0.11249695271106407,-0.1736137977897694,9.905384265937336,-0.0017419593117478946,-0.005819527378698492,-0.011024062717835785,2.09
-0.04373977887741559,-0.0012061324030628157,9.751348260649605,0.013780024544751536,-0.0036590375038048724,-0.011459837641304206,2.1
-0.11951551800083936,0.14258645564906566,9.894040458571002,0.027563089267124218,-0.006299341180823477,0.021709859602679495,2.11
0.15740460139702214,0.010971569813920026,9.964166806135255,-0.01669984394684053,0.0060046919656800216,-0.0045837625402992575,2.12
0.18499904718596427,-0.07934537923578064,9.852209577725544,0.013766708780608879,0.020136621770090197,-0.00122172287330087,2.13
0.09818064259295999,0.11974137845011168,9.626034159191821,0.012311787585033592,0.01706707690726807,0.013139582255547051,2.14
0.034896657515343946,-0.027369452142112206,9.77630980333016,-0.009120588570800739,-0.01121116861911199,-0.016157392281678857,2.15
-0.0009636662103208521,0.08384041340134672,9.763472174880945,-0.019869931291770636,-0.008833588341790176,-0.010670889643980209,2.16
0.11906840450654183,-0.014015113869008878,9.862326968688581,-0.004798820386786043,-0.002116587588738227,0.01093846093519077,2.17
-0.04877421805431354,-0.035949031325961445,9.739291057204314,0.016211688397045145,0.0008382857345557234,0.0003007965321629774,2.18
0.06600669704376934,0.002558306543752895,9.974762893672857,-0.021224657513347688,-0.0006028937656906215,0.008567665505592459,2.19
0.1444473580833909,0.04899771231670638,9.729528731740723,0.01017994326278664,-0.00769144190392685,-0.00690056528392952,2.2
0.22002956335006393,-0.0744662089606845,9.681543231711808,-0.006702253098221274,0.012402575316525388,0.005298923719093945,2.21
0.02603963764686114,-0.11473263306159179,9.906883144497689,0.00046362658927392525,0.011737318224373794,0.01563639308024818,2.22
-0.015781866298355953,-0.042875299427975355,9.79307935399141,0.022576089068453483,0.004450719825905822,-0.008557492304933544,2.23
0.0743446141362201,-0.04469430462535512,9.952818399347567,-0.006973841103882157,-0.01103558871061205,0.0016859363243905711,2.24
0.12463765789489673,-0.1370105258619359,9.932791702296194,0.005834823319862368,-0.008769458939493987,-0.006189514166492643,2.25
0.13988363883858204,0.03714928714853625,9.811805312128902,-0.008765674605779513,-0.004818635213086118,-0.0014624484659568602,2.2600000000000002
0.050184312474892405,-0.029257683495901767,9.963443106070745,0.005147593308831814,-0.013637530781866405,-0.019730939597178875,2.27
0.08295043523689015,0.05151556197194275,9.630802345308442,-0.011767176103408248,0.006171708784785917,0.005834322754588185,2.2800000000000002
-0.03433608967535372,0.08080771426775363,9.81346151775559,-0.013007272800497743,0.0010792331327712178,0.01622106429335625,2.29
-0.13860358371675166,0.027842768429050077,9.798727193033386,-0.0190660436425715,0.013457087953867715,0.009375192512524104,2.3000000000000003
0.014536906801829683,0.0033460357521033165,9.777477174652262,1.3635031776175059e-05,0.00014044479808695133,0.009974604814519603,2.31
-0.11011436371685857,0.09161229331714031,9.708458837090268,0.003913873907361166,0.005453124990684427,-0.007349264930615023,2.32
-0.06812857749461429,0.14352494438314503,9.717001705498129,0.003816581370312643,0.011336277810388054,0.004185951725226166,2.33
0.11005514336241254,0.07435550966998969,9.842321297254104,-0.017703779441253155,-0.00931889928354934,-0.015860575879654195,2.34
0.14132792071341818,-0.11584403936224669,9.946570017837658,0.0024389408527194464,-0.006018350992655638,0.007607506156134045,2.35
0.005887359804659784,-0.040518361580378075,9.804508315213745,0.010668334458594742,-0.005586185333287892,0.0020069337881139728,2.36
-0.18922263351335922,0.0891851473390039,9.86915529701144,-0.0018388960009657804,-0.015862155556568742,0.012705108345785157,2.37
0.09115607668156306,-0.06639476447927832,9.84044644058545,0.018405890068791203,-0.010439130365167552,-0.010098356496761624,2.38
-0.06021486132822749,0.14127016806834813,9.610329602636552,-0.0053257772772022215,0.005092977303142306,-0.013166057727181314,2.39
-0.022504554602920404,-0.06645337910410236,9.845494647393231,0.002728856540073227,-0.0007591341112008849,0.008658629727874092,2.4
-0.1377607736544526,0.07405004070813546,9.847734079508097,-0.0030213441372578345,0.005298158942493219,-0.004731888132290986,2.41
0.03893075170295748,-0.08355422633965925,9.955756102097128,0.006603709287034841,-0.0017567048018948244,0.0043129007103971705,2.42
0.07419749336495655,0.12970213926435764,9.725232264700786,0.006685892034165365,0.005686521721837851,-0.007935265398484546,2.43
-0.2163518791235812,-0.0014800457992189934,9.589749015727012,-0.005582600528593148,0.0085900071185958,0.004206527263561393,2.44
0.1595426373631838,-0.03767615783675502,9.762300792893832,-0.0036551586497072476,-0.01414782196036008,-0.009352819638974772,2.45
-0.0689094624322683,0.05551370391161417,9.896621598288075,-0.0014785913119239808,-0.0211246784744582,0.004930605090869245,2.46
0.01539824035671379,0.043483579908777666,9.911348220971915,0.008174238949287527,-0.0058073736436588495,0.0025813842158239927,2.47
0.11867488674270595,-0.0018072979025216002,9.751615699690309,-0.0029726965478030164,0.003230987085126621,-0.011674642086857114,2.48
-0.08951373730625918,-0.056449525150010144,9.95814773838033,0.0006173920885235351,-7.658769317725762e-05,-0.00871614103804339,2.49
0.0632632920233889,0.3148413831137492,9.676356255407912,-0.005788910158694826,0.011993550613154847,-0.013583759668236673,2.5
0.1086011840643874,0.04793579378774126,9.798308520389648,0.011352785178237956,-0.02314841886435687,-0.0012734938999870568,2.5100000000000002
-0.08566706201035762,-0.011665387027836677,9.874442448455717,0.01586782905757741,-0.006804188638682413,-0.008327588832779911,2.52
-0.00827017480884047,-0.09624556150392284,9.822040611098267,-0.012998936691507555,-0.0017848748503465487,-0.004956092525552228,2.5300000000000002
0.052438528665310305,0.08191282494451813,9.939280739283678,0.009538949918297077,0.01798952764403989,0.019307713123596654,2.54
-0.06391599210263647,-0.09371593085836499,9.895359294886196,-0.013232445282747482,-0.0010502700122850277,-0.0003625333740570695,2.5500000000000003
-0.012277506912762007,0.13528434307323065,9.910225080840371,2.082920792191383e-05,0.0019997602842096217,-0.011764383409228859,2.56
-0.012768560847164141,0.1543252769357537,9.80669879895677,-0.003928515303379147,-0.008299006676883481,0.0017276375909614189,2.57
-0.008396349603515058,0.003611980199503389,9.866301233720078,-0.00832690682318794,-0.007639094086384812,-0.02772593046229197,2.58
-0.04584596645208437,-0.011283679089697914,9.84353690464714,0.009482248623891796,0.004174229958863172,0.005614460551090959,2.59
-0.0014483561396937494,0.19651373800648028,9.887968443717597,-0.00967111306037227,-0.01669230579088877,0.010141957851739342,2.6
0.015544139564499721,-0.06784476172931718,9.937878886508932,-0.0036517580309084236,0.007329044348873178,0.010244177857094184,2.61
0.16945797028298462,-0.19370259614939545,9.847316203628134,-0.007055142452344927,-0.0020931152760835132,0.0017079010268069928,2.62
0.11162697072441495,0.026849512457424948,9.784402310739797,0.0002684954498629643,-0.009755826896810614,0.0032092455895131643,2.63
0.019986285535277058,-0.09024828291077824,9.755860609385852,-0.02117362104764147,0.009968106594039492,0.00874358264966814,2.64
-0.08779590547068983,-0.006900650048900201,9.786648321847485,-0.01076157884687761,0.009924771921437876,0.02274098237813273,2.65
0.009161366078790815,-0.09438393811641171,9.76721712984059,0.008307351146851065,-0.003912964491364243,0.012299406593563057,2.66
-0.005601802444152763,-0.013330749800945785,9.830254530964897,0.010565417905608054,-0.01621151311168795,0.0026717006317957676,2.67
0.1367108994251422,-0.05000524917356552,9.716170139914626,-0.0050499871683131236,-0.00146213974016246,-0.017636332110537865,2.68
0.11791484129255547,0.03889768160508511,9.740698958413976,-0.00846972985000782,-0.009624173627058493,0.0076616377578558196,2.69
-0.026510405174736774,0.04350646356738813,9.80916679408782,-0.004517786285958371,0.008041561681300014,0.006180371434917656,2.7
-0.004412490031552081,-0.008685163343239401,9.795861518962194,0.010746284039252737,0.016404325539778563,-0.020762222548691166,2.71
-0.07694271994437883,-0.1379716173202929,9.811226693962876,-0.003195413437396979,-0.0017319786655238777,0.001319246704778596,2.72
-0.10146220092789138,0.09121445933683653,10.018349937600291,0.0028432822393371893,0.010342846817511154,-0.011443244304508436,2.73
-0.1387555034003191,0.035108790826256654,9.88237686739579,-0.008794707937351194,0.0026819381866651044,0.005252905944444711,2.74
-0.09556944202578527,-0.06368168550074024,9.586377992406437,-0.005497505611465648,0.004907245927511304,0.0010249478089021334,2.75
0.00024790184698522504,0.05975486907972874,9.741966489742483,-0.013812280194340894,-0.02319058695251815,-0.019231335811223653,2.7600000000000002
-0.07057093776768174,-0.07569399863031867,9.836237944927072,-0.009577038288002644,-0.023788434824467283,-0.011358741385634308,2.77
-0.020677624615466125,-0.02360280154188432,9.735806157439537,-0.012488345346460586,-0.02474454986692226,0.0011780274851553307,2.7800000000000002
-0.13114536744327876,-0.2647989419809846,9.658989822804584,-0.00346284178571128,0.00884512800661773,-0.008422812879498694,2.79
0.051491921330206095,0.001240076219830595,9.766068978421437,0.007228527957328944,0.012365555210771737,0.021114835879100832,2.8000000000000003
-0.07812052489167842,0.07690402139675008,9.966319924429616,0.003963169449529336,0.0011529277733673866,-0.010653278488974172,2.81
-0.1520511165975239,0.20079504129074968,9.72171434688512,-0.014317986235175717,-0.009156459870929204,-0.010006001759044456,2.82
-0.07857410435611048,0.053945331205867336,9.742682889539633,0.008926908977834339,0.005821128166807664,-0.0005479693861212013,2.83
0.06746239768670739,-0.012746522446610795,9.767798106955924,0.004839762053100379,-0.004224207951209546,0.010064477464967858,2.84
-0.0871535638575169,0.16666952395391754,9.724355938455846,-0.0076215480961108,-0.0023945622531605106,0.000361848813580127,2.85
0.12180256104721598,0.008155041846032076,9.753692699585248,0.0003970376232732347,0.013633563364876625,-0.00509859639695026,2.86
0.06382883964806152,-0.01980565691346236,9.754188099991108,0.009795181501546358,0.010825532700828207,0.016351131013310167,2.87
-0.0712582804027747,0.09460153219421408,9.867585790856461,0.007392172241716665,0.006227176556845564,0.0006785215645328657,2.88
0.090980788041785,0.040261635009708426,9.693705964950006,-0.006847796529125916,-0.004610943827545815,0.002211739589204494,2.89
-0.06254410301730609,0.08514963976109513,9.87050016098236,0.010928328957090663,-0.006429627961084131,-0.0073395984935747905,2.9
0.015286579733357293,0.03433477377654914,9.903749338044921,0.019694559420638764,-0.007446513048462169,-0.016126797332372756,2.91
0.09520818703276646,-0.06288503981124442,9.660010435367779,0.007716090035189329,0.01455156930988076,-0.01044452089111616,2.92
0.11945499292730842,-0.14244369412499722,9.98158784870035,-0.009396457933300606,-0.011588296258037836,-0.0023570181979439804,2.93
0.06055373410141919,0.010757093727563262,9.889177483637418,0.005904493585120555,0.006781687910817767,-0.01289781553167599,2.94
0.15573331269759688,0.08850143201646288,9.605498501470521,0.02503586488292198,0.01865405582720694,0.008567855663086696,2.95
0.019033704115613646,0.052137264959920875,9.83631960301808,0.0072356573353642185,0.010174663227418073,-0.008210070600664015,2.96
-0.04315184120234182,0.0759743824035905,9.976397534825637,0.012874099310559096,0.012466023258298722,0.005371467652459422,2.97
-0.1847112671866227,0.08729924162614454,10.004446967135003,0.013537487738948029,-0.0077569602203407485,0.010296037611978223,2.98
-0.07140498352751057,-0.18538356604281514,9.859593870304236,0.002027564707448732,0.014010475290192838,-0.003297552533449828,2.99
0.03940235424771416,-0.03699159659088472,9.68471558637946,0.0009838945312899013,0.0022775830339901828,-0.008678627261224377,3.0
0.2751524337124546,-0.27721984991833776,9.922697646466828,0.005515663513494315,-0.020273204445931316,0.0038962278758066776,3.0100000000000002
0.014195742345253781,-0.012113538437578427,9.873388644042828,-0.011028672934496194,-0.0089723137860732,-0.001822482741282529,3.02
0.05543043535703749,-0.022923940416145643,9.75251861933222,0.013790071109556332,0.007253055049571978,0.001996554172986511,3.0300000000000002
-0.13808064892057928,-0.0028123624160259035,9.86294055055471,0.0015536047904559128,0.006655962608590668,0.004246488937685851,3.04
-0.14815733533034164,-0.07363529637294512,9.645078227048726,0.006711223562457325,-0.006249902422780035,-0.009157242318321433,3.0500000000000003
0.15196780750919522,0.1127755599148021,9.799299799135609,0.008158690675263282,-0.002499779319348094,-0.001924718346042292,3.06
0.0001444661338198217,-0.08572816953379825,9.755341771050206,-0.005952302722824799,-0.017717074604105387,0.003490171411451124,3.0700000000000003
0.00728034416228,0.009268756527885042,9.658612318956363,0.011234219994139623,-0.004733204971940478,0.007563679020595271,3.08
-0.013574927291813518,0.08883349738043411,9.930637131289975,0.012980009471091989,-0.005335077392211616,-0.014781148468922659,3.09
-0.04819093294286477,0.09725214771420182,9.650371802942567,0.014257090874449709,-0.0026812247219058743,0.0023506725288097823,3.1
-0.088076330438572,-0.01985199095847345,9.930092922247786,-0.0046034328471049905,-0.009693275276455778,-0.0027073106417284006,3.11
-0.13544201266355108,0.12429359516248176,9.994231210449298,0.010415067520272997,0.01708604481137796,-0.008349531859815875,3.12
-0.08007000713853346,-0.1365405369304984,9.67126553620699,-0.0032466941186986014,-0.008454392173806665,-0.004669671596693649,3.13
-0.02496515072758574,0.12304246473666841,9.710897851527509,-0.011749888950808066,0.02027280701934748,-0.007465036262755952,3.14
0.09105098183764342,0.060069925349606174,9.959245471267051,-0.009123751081438489,0.0027240970292140023,0.003445048852862324,3.15
0.022712666829889403,-0.00722545209646577,9.869146501384726,-0.024024266154625166,0.006173199732010487,0.00917406498383483,3.16
-0.08108692301213771,0.13988736516788508,9.937322394092895,-0.008095839122919226,0.01958077570149746,-0.008581042636473656,3.17
-0.002735031326246158,0.12974891255745277,9.767504830960856,0.010033074444600476,-0.02111144335843789,0.010273524825131438,3.18
0.2297451213726045,0.26680618220750874,9.862076184190705,-0.002085937916946769,-0.0021110765822291485,-0.0008699366184813155,3.19
-0.03082030291422922,0.07699411603885185,9.809125418804825,0.0088791061265321,0.001011525692215815,0.009220819518165876,3.2
0.02689005401196346,-0.13761436652217354,9.692949891880389,0.003143642665429068,-0.0018370375943680226,0.015029781298476022,3.21
0.019868844423454813,0.027506753520118967,9.756606107261488,-0.013270826923037736,-0.006538679876494032,0.015557026016989467,3.22
-0.05655603815625851,-0.02185781234794989,9.832790202990358,-0.024709553629888994,-0.008045762714588418,-0.006591292671818332,3.23
-0.1614830361910647,-0.023312024617565687,9.744235562901103,0.006519088288404508,-0.0016167458592746531,0.010967265894693122,3.24
0.08818474410029564,-0.03437376344705642,9.640023467954666,0.011585703526510305,0.012719119389683576,0.014050212161376177,3.25
-0.0011839955650459286,0.014917507575545857,9.82280198509683,-0.01625862272543399,-0.013867421682493327,0.0034035130433106658,3.2600000000000002
-0.024848977570391697,-0.03988575399281999,9.788593098579591,0.017214177203999783,0.0015139527957013022,0.006744413470679227,3.27
-0.07655769601031115,0.07298342940901535,9.790212774082214,0.0006355577103187389,-0.010249986321296476,0.027220557464098565,3.2800000000000002
0.05528208230135148,0.016082614126021688,9.818831536114216,0.008324720715188886,0.0014193150025340242,-0.005538530685743923,3.29
-0.061864988319546135,0.028089613529455368,9.852365342161708,0.01902319716816408,0.010118302219777863,-0.002458396131973861,3.3000000000000003
0.09238656626970115,-0.007233466002598251,9.744541154141075,-0.0028733832951856786,-0.004463851562956134,-0.006904457846881865,3.31
-0.004728835570973106,-0.02224983688166582,9.641348376075328,-0.0005966150746654595,-0.007826245432972254,0.005486774362848232,3.3200000000000003
0.10888346069572152,-0.06287934967429529,9.849870943037951,-4.193289101922796e-06,-0.009036692173348303,-0.003908879995934304,3.33
-0.046664681181010866,-0.056852958493916195,9.760348131154792,-0.014639357398744795,-0.008483935225427989,-0.012321521401732016,3.34
-0.059885824310721474,0.002771164815807935,9.860755735507142,0.022894410568067847,0.01078835368451235,0.007258697382589562,3.35
0.09934299757703105,-0.199756542107938,9.979269798456668,-0.014543921374618803,-0.0035924408808029433,-0.01251681007720219,3.36
-0.04254975017994356,0.1309732351226314,9.910494172812562,0.0023867924663255992,0.008158305352468049,-0.009693162691524163,3.37
-0.10090278318480977,0.12110189462811566,9.938733987547428,-0.012476916274001855,-0.009045964147183071,0.0046069732667165806,3.38
-0.19640646521478833,0.14299581762985755,9.90750706896569,-0.012244205473741577,-0.005041552841486386,-0.0010019133833046364,3.39
0.16608418498564959,0.03776164295749751,9.807658161329094,-0.005029989841944602,-0.011449565770052387,-0.0052794348660545574,3.4
0.15855758549682838,0.013788119163366284,9.917370298802753,0.00019129698705592103,-0.010818629216106075,-0.004313974182761065,3.41
0.15336804537202733,-0.16840261466696996,9.770576120166877,0.007077736476012108,-0.006400997119455978,0.01429274675536226,3.42
0.06123966449446953,0.01040488597520795,9.613658570127688,-0.015220197136444668,-0.016560957573184865,-0.0013518213240289398,3.43
0.06238340574716464,-0.07178905471753202,9.929953928031477,-0.006402320796959034,-0.006349620317298647,0.0012293753913573335,3.44
-0.12433830586464856,-0.00825451367951981,9.718192112395924,-0.012226178000064512,-0.00041481601518135436,0.0014690152839350894,3.45
0.1351511790247781,-0.01461360788704334,9.64088674139993,0.023454405582277186,0.023422086225877266,-0.013696167045699552,3.46
-0.07548975688244532,0.13092932016718048,9.817888305121688,-0.0006989007060528795,0.0027301001752312584,0.016939097895565757,3.47
0.011538537905515001,0.0063210225077822,9.703792724608531,0.005159987008370764,0.008398232919378188,0.004297950158334888,3.48
0.07887339902687146,-0.26017427686509315,9.756899032789239,0.0019370416961325897,-0.011799016168624813,0.0006292902153687141,3.49
-0.07349917779279945,-0.11675548150856614,9.884549158705438,-0.0012150375192218207,-0.0019210540363271526,0.006313510140901583,3.5
-0.17702568935751567,-0.022166726633748045,9.852498606247655,0.009680081809268343,0.010119843787828302,0.01678577200027445,3.5100000000000002
0.037268864183652016,-0.0347982172243873,9.684753733920862,-0.018015222057011684,-0.012418997863906583,0.002075650687441423,3.52
-0.2086386204502042,-0.12988610670526943,9.832122749771782,0.011410947826367921,-0.003979057326304511,0.0059481464588484224,3.5300000000000002
0.16911031906696153,0.13892236192261306,9.82903455220263,0.004784064419882188,-0.004026760982702659,0.009507942395119187,3.54
0.02880811577633808,-0.013723374120660213,9.898106073412656,-0.009366377030538784,-0.0005121817964899654,0.0070620562710627345,3.5500000000000003
-0.013696260703741192,0.007051828654214475,9.810193319389857,-0.0025367532891744705,-0.009950294566567661,0.011372750206653365,3.56
0.039491235569310654,-0.07456557812431931,9.748325453513958,-0.005373643946532546,0.02315932574445155,-0.0055909350733682256,3.5700000000000003
0.0758449405325275,0.209200442856364,9.874336756921888,0.0025053529574767365,-0.012400256009519493,0.012941532720717821,3.58
-0.005525814197845554,-0.0633033751339969,9.68538078350718,-0.01469819484998646,-0.013905363105166267,-0.007817542001814828,3.59
0.013857308008348383,0.05372991229000543,9.74501328318046,9.052513343545319e-05,-0.0027350011680573947,0.0034929677807126087,3.6
0.063849540396905,-0.18265235208582237,9.859201427177199,0.005989155566842108,-0.0010364268482365847,0.012786898620901517,3.61
0.040219514544947765,-0.10722388450923018,9.756903616452417,0.004226273235023082,0.0030299145572806143,0.02239417707789905,3.62
-0.026507117175242845,0.025155729154415708,9.875170863255633,-0.006804323461103524,-0.006274785131645065,0.0034988972600014812,3.63
0.10605442618949523,-0.13581387054013197,9.835037210143835,0.015058210702372532,-0.009865904258203164,0.00025667647022595475,3.64
0.2500604445974484,0.09997936084579277,9.750753634819583,-0.005381469331115386,0.003989112923319012,0.009272887270874688,3.65
-0.005527545473587061,-0.019169869525368467,9.766575081958406,-0.01274513380295059,0.007255768249533451,-0.0005315612587535703,3.66
-0.05947053270839514,-0.01846800746365358,9.579177005270537,-0.00878898098284786,0.009162867368748922,0.012813647896050781,3.67
0.033085294670852985,0.14131831405818923,9.705304714736696,-0.007777595145206404,0.0018057505563582655,-0.005448934077423124,3.68
0.08753224956006621,0.10378027505401453,9.93277075386455,-0.01451746764859125,0.004919447083916971,0.0037692561279041303,3.69
0.12127422926485194,0.020089735563849583,9.778116627103596,0.00011144744802814176,0.0026666738991568436,0.00040230832011404696,3.7
0.08356427234085796,0.000975896166755971,10.028205938222568,-0.014323099049862712,-0.008444289236051348,-0.009369817858605857,3.71
-0.05727662338736096,-0.03356293643237536,9.679304254711996,0.008778123426026959,0.0032237899333764754,-0.0141386378234349,3.72
0.09784628418882187,-0.042565126449892875,9.69116420150188,0.00692999596555381,0.0057466452693951,-0.0028077769319759345,3.73
-0.17693640582923215,0.06302549749639895,9.896183080539842,-0.011519013601827069,-0.008516779584795384,-0.013440854008026408,3.74
-0.04195885990003731,-0.16184415690634602,9.755762529355653,0.0006235438123446328,0.014636600393929361,-0.006203422941095643,3.75
0.015727746893748704,-0.048869123889062234,9.841339161294933,-0.0065597242657263076,0.0015553513898089978,0.01017154443186782,3.7600000000000002
-0.08848911072442302,-0.007199323999547933,9.804639585926287,0.010259813853703571,0.0009086775019073395,-4.4397111996941935e-05,3.77
-0.23919273443678427,0.07546842646995211,9.791782590098293,0.010954330868397217,-0.018353858982211108,-0.00030471725408916234,3.7800000000000002
-0.12008875897597192,0.01715082600480694,9.791872270638407,0.004888232801947096,-0.004425927188511119,-0.005522011880483284,3.79
-0.026336390764602452,0.11307850769587985,9.851454333005812,0.004479637361851021,-0.0007841295875673334,-0.0006037649838928179,3.8000000000000003
-0.01415415700527082,0.1140459953492379,9.793445944029177,0.008385983783134873,0.007248915212511686,0.007535401665227323,3.81
-0.07276864979071301,0.052592196774946136,9.90436873705772,-0.009443557156558837,-0.001213238401729726,0.009838451874451756,3.8200000000000003
-0.003983288927657474,0.053516510929365636,9.705972996082847,0.01355384556919291,0.0010351040664674264,0.022924709337797493,3.83
-0.03346786124149714,0.044873434340185314,9.634881833501687,0.003672317054191737,-0.009340696434389058,-0.010459634108978244,3.84
0.08012846508230723,0.029453013789042717,9.535540414610999,-0.003679737060998534,-0.0010498704702349094,-0.012916051046015523,3.85
0.0002865029811972889,0.03441834946280015,9.830839889336602,-0.008778392436957118,0.013702840413314193,0.004368528105414724,3.86
-0.057870322217641545,0.07611017584647384,9.765958231778441,-0.004583189320014041,0.01634563806243229,-0.005622901618953736,3.87
-0.06474022945546136,0.17535215884267707,9.806179437787243,0.004352106407907895,0.01862910623149741,0.007518095152897808,3.88
-0.09031743024612822,-0.006962645628242833,9.778823077092712,0.00890091825533823,0.009181703381383683,-0.003980144063873704,3.89
0.012843762093173115,0.0962129524145042,9.698840163634255,0.011275706274620241,-0.009575070240293781,0.002194043893421052,3.9
-0.009052836556884535,-0.1976360836507178,9.942252586660482,-0.01398240275392862,0.01229608170329867,-0.0038982007887928623,3.91
-0.2676064741577615,0.16496720185644942,9.942412465297853,0.006456627146804632,-0.006575617108407693,0.00897896152141567,3.92
-0.028468267554876442,0.057334023401230894,9.73174912124483,-0.012054198239147513,-0.0010580350537563426,0.0026231401250036224,3.93
-0.010014335858808678,-0.07078481685606859,9.790153074370318,0.013461632756031888,0.019494981668754047,-0.0024392590346895195,3.94
0.12282312679146717,0.06564434467133462,9.977373223006596,-0.00785015890104927,-0.006954503759505141,0.018153845303528045,3.95
-0.1169471868995523,0.158539930755331,9.760720123982034,-0.01645782951451504,-0.015946349763335713,-0.0022575902679787168,3.96
-0.006040941327294857,-0.037464255935588796,9.887291686016573,-0.0026361979377443,0.009825072429089228,-0.0104274934578349,3.97
-0.2636714952533311,0.0015641039456015878,9.739017642719121,-0.014187114157729221,0.0024441560978266863,0.00578453350874906,3.98
-0.02003535134219296,-0.09324634157289087,9.875035980456953,0.00977994725885348,-0.027959535265490915,0.0008484636609117381,3.99
0.014937211090909487,0.009663334877483946,9.864466448109722,0.010177903100714765,0.020337535904202945,0.0017540395591708635,4.0
0.08321139368250113,0.03635780002894845,9.666568510993773,-0.01656761904734179,-0.004562194542453005,0.009040543799405177,4.01
-0.044613850075114786,0.03097324705139387,9.685604911988902,0.010123918556313229,0.01934341393012089,-0.013981165294745104,4.0200000000000005
0.028951647054470182,-0.04086316913065446,9.72532017259169,-0.008782035888042604,0.0030833907186825394,-0.021467117629071008,4.03
-0.02242547300029274,-0.051326320584797525,9.801123317443427,-0.025172212561054855,-0.004233906510607472,0.0015659967059747546,4.04
-0.0356179166440292,0.012507628316828546,9.792131330260126,-0.005479159607483976,0.009233147557546765,0.000728523657463071,4.05
0.12763693737416335,-0.025444362079866174,9.837573614024206,-0.016095200586701167,0.007987949292197167,-0.0026435226322320906,4.0600000000000005
-0.17632346304829938,-0.0982508219459137,9.865453362444873,-0.005150619878898481,-0.001381211425811409,0.00203320974094884,4.07
0.08952317787802848,-0.07300512131296927,9.847462464604465,0.005912400961639144,0.005730234123783967,-0.006008019041766794,4.08
0.09692534609487077,0.03217644095371671,9.755799454749013,0.008132350114913884,0.0021587507697642763,-0.004683967564478533,4.09
-0.05750228470794904,0.059123756172255654,9.948780630313687,0.0018548663258316452,-0.0052818540018130765,0.0015663194264350978,4.1
-0.0769746704327945,-0.07067362807194712,9.85286445482789,0.004010238870174159,0.018858172489221465,0.01514556804361707,4.11
0.08279250715359299,-0.05169572587962356,9.640648990727579,0.004329769810979177,-0.008242752683567936,-0.010941782430613339,4.12
0.08252006733117942,-0.01567497288066105,9.603385069837056,0.009140299051919274,0.0003216627208532797,0.005519982968956665,4.13
0.09457803270504869,-0.12316731314020864,9.761372600178019,0.019782703776076948,-0.002195147663698485,-0.008901840339029478,4.14
0.11016701512593721,0.14813724064152226,9.71677739449909,-0.0048012063688269374,-0.009341413211661263,-0.028249497603470935,4.15
-0.18125389849291404,0.031650922371460576,9.774393051316197,-0.010080974868963317,-0.007912035080117463,-0.005191985924245397,4.16
0.12833667747093852,0.08231343527402459,9.724069532265728,-0.00012745168364131201,-0.01723616100038136,-0.0020444828732864456,4.17
0.014998529470974995,-0.23428398265370765,9.80835952584185,0.004698638204709996,0.018843922736370162,-0.015010569967324227,4.18
0.012598884996147584,0.05935937440844763,9.97600793990141,0.010417887569334183,-0.007229366171754506,0.01343183207533772,4.19
0.129543054224813,-0.16793327257602478,9.829901363002747,0.0012389832510830351,-0.013949549076336262,-0.0025542313051473762,4.2
0.04789499816168915,-0.04952003211382056,9.815929427681553,-0.008799609936412977,0.023723687619225525,-0.009153981504827139,4.21
-0.15585836362132977,0.11503387512703428,9.641817644044533,0.0066119451457448365,0.0013034241954922709,-0.009995568684339673,4.22
0.04357408616575451,0.14193639690852217,9.837960319223276,-0.0016510724545013083,-0.01201816704845068,-0.01538320565723399,4.23
-0.10658933256737801,-0.10747565584920982,9.810985448998647,0.012057773888434646,-0.0013008368372463036,-0.012490620352539323,4.24
9.270705914233019e-05,-0.08076099855423807,9.77499202792039,8.868524881973608e-05,0.01628758620143612,-0.00041199957219259254,4.25
0.11912185156438282,0.11490557127614494,9.697880283645006,-0.019418910456765026,0.010415083113328656,0.01986216139227496,4.26
0.01681945420892836,0.023021990965738457,9.648537369916477,0.002480998945434772,-0.008298215541396694,0.013143410705013134,4.2700000000000005
0.16887632997651017,-0.015569399020435658,9.846531252653628,0.002349029634316003,0.010436500688250163,0.009016495247973237,4.28
-0.08062022621655335,-0.11824318656467357,9.67535308638905,-0.017149081954786847,0.004729959358256955,-0.0016870020257270734,4.29
0.1422346136184553,-0.00875477222409505,9.654664757610862,0.0019317697136302407,0.004033425171523373,0.0069917075289224265,4.3
0.06278194244767953,-0.019691855994638185,9.632576835114548,-0.0012326160343898642,-0.0064556066628980915,-0.014002131627826596,4.3100000000000005
0.13241729994258583,-0.24907276129854075,9.859614946899319,-0.0019762114128113657,-0.0023815142149613004,-0.005452076569650398,4.32
0.15690106560852438,0.09569750006305335,9.964512505556216,-0.010292424490408804,-0.0015477237043978321,-0.002703459703328402,4.33
-0.09398005252143082,-0.14296425787217135,9.87820077381511,-0.011433363345068481,-0.008206439600889289,-0.01575361887541572,4.34
-0.14621472230871874,0.18413049384590308,10.014505895629727,0.013036907331818899,-0.0003080713145717774,-0.013089448787253582,4.3500000000000005
0.012209065233833173,0.08772005028654811,9.648753545423112,-0.008639890615075422,-0.014832241215642878,-0.00802181866589822,4.36
0.0237459700779832,-0.10770574272967207,9.950585349105172,0.0013521545446887812,0.002612911127951616,-0.0008427753993371826,4.37
0.08253561970340847,0.10247770217485655,10.055772012854407,0.012186830181589647,-0.0024692053336329966,0.005088494984751076,4.38
0.0842354752455147,0.06828118345330735,9.863482336368751,0.004887462089941591,0.008167006159460071,0.0006219580431430647,4.39
-0.16758562024828072,-0.04071264930484255,10.025812677261749,-0.006659238613093956,0.0029645339861287725,-0.0077853486665436615,4.4
0.0055477228343132476,0.05795292533937148,9.865455227672802,0.012211387434396995,-0.0005565893850192746,-0.0002680733282190957,4.41
0.12141386550270933,0.09901315087529317,9.964611685306162,-0.00110434163664231,-0.004329299135978687,0.0007810564190829663,4.42
0.08057237270809212,0.027871854956355965,9.800198093223722,-0.02021901171968859,0.019460443440278644,-0.012960029285325931,4.43
-0.0035095207790254573,-0.0936754064634524,9.63203368308284,0.004057956559350816,-0.011812117304400125,-0.0022005066068855467,4.44
-0.09384195552465724,0.14702238276661955,9.90681831924658,-0.018600180213159522,0.0002505022484080278,0.011037158409257381,4.45
0.019915325521397794,-0.005233113762746275,9.587003160511333,-0.012597890159961019,0.003199437789263869,0.025245645687023015,4.46
0.055972874457124025,-0.027788463933172608,9.719866430900785,-0.001922017255950449,0.0008436754809069317,0.01962106402973437,4.47
-0.0524431071941321,-0.07318487138317775,9.780049012800266,-0.003822574303987495,0.012376402095538837,-0.013474844616786538,4.48
0.06565965700057666,-0.11818935912731421,9.813651196698187,0.013528099209597681,-0.010676140738773323,0.012533073505650789,4.49
-0.06452992917969703,-0.013252410613892728,9.873708507893454,-0.019986302352298015,0.0026402709514706034,-0.012454639246207355,4.5
-0.07450100920900597,0.07869367087602808,9.818824866324338,-0.0032152755130761225,-0.000993723180799672,-0.011287092964542958,4.51
0.01766902310364168,-0.16403884783624534,9.728640471010172,0.005923836923806367,-0.01602274034728081,0.01814860604441433,4.5200000000000005
0.07789413823968522,-0.008823885313291827,9.653690668638797,0.008478721761170777,-0.012703844682158303,0.011699548066476073,4.53
0.10782481591019699,-0.02780674820859885,9.814339502929576,-0.0007547585393945455,0.005632610764274898,-0.006592625109595624,4.54
-0.10829090571988652,-0.016532905727200963,9.797298268915792,0.00169325209617907,-0.0009021859305905957,-0.00994545899089009,4.55
0.08608088669053743,0.015773836118494224,9.715677295886008,0.01423276533283069,0.00754455770964211,0.0036419035244175603,4.5600000000000005
0.08285459154056482,-0.14514582411045768,9.764814936578164,0.009810974496063612,-0.007717767619518634,0.008902728150987757,4.57
0.032551171555919044,0.12714972019179213,9.65662520979952,0.012628797368100143,0.0016881458160692964,0.0008655843116777336,4.58
0.15032287006518383,0.00839796322220653,9.951360179987114,-0.010193020727592162,-0.01652027107564629,0.011445396814147116,4.59
0.05938583997729635,-0.1518411843041936,9.730098708072,0.04390360704985013,-0.012715560934963059,-0.006939474952938642,4.6000000000000005
-0.02687433785813896,0.05472279209972475,9.87930895700653,0.0037641457905218364,0.01596003429291716,0.0032804414374096097,4.61
0.11705642040081013,0.1866091866809804,9.642748726465351,0.010276648378044817,0.03159757881411114,0.005311459663278819,4.62
0.16174747856590382,-0.06774506685165912,9.734435078910005,-0.004881246780820124,-0.011797108901097671,0.011563466348260117,4.63
-0.02044060800259011,-0.007189970357716469,9.989668978202445,0.00028848531307521734,0.008319363860786968,0.0010232560969530482,4.64
0.12853576459038143,0.03433667730741141,9.88811721308778,0.012464408808929852,-0.009786316573861057,-0.0010331981527697978,4.65
0.016921773333258196,-0.18320394196086487,9.825038811648156,-0.005446290732253757,0.0008003300019778316,-0.008614269670200847,4.66
0.1356133612400949,-0.17226727593189442,9.840891719319947,-0.004044784375592859,0.003375614756055733,0.004347447979821208,4.67
0.0706053616422239,0.022983113689287002,9.80262327657916,0.019075356147915265,-0.008000386670667185,-0.013340906116568366,4.68
-0.06873347709487168,0.054187107702552396,9.792124594319233,0.0019342010428376021,-0.0059208673715708425,0.011317804489275685,4.69
0.011841771541303558,-0.06963168853665512,9.760122639779167,0.016889009267786057,0.0075009867726140295,0.004411667625139064,4.7
-0.04862065295434583,0.040627853791577,9.78736043984302,0.007214734341442458,-0.008052981178081014,0.01946980936401377,4.71
-0.13496907867208618,-0.14950468461486974,9.738559456435071,-0.003792788203170238,0.013630687912281864,0.008800632488326134,4.72
-0.1108606738672287,0.021728770831633947,9.803380085089458,0.016119225928122413,-0.01616487627694491,0.011203374554713335,4.73
-0.06899031786459316,0.08902611794133514,9.804278865219027,0.002504822350723839,0.009734879068804318,-0.0031397092485055105,4.74
-0.054462119312617886,0.038662047316038034,9.826544134894677,0.004740840230867355,0.0067868337578433,-0.002354863069565388,4.75
-0.1529827099957611,-0.06081791609155798,9.674548905675218,-0.008999646843295237,-0.004354097112165779,0.021184330547795522,4.76
0.031827173059467716,-0.17802064305227722,9.692579539715188,0.013158045405164421,0.008200248433169547,0.0009340557182071832,4.7700000000000005
-0.03645116162221009,0.13405422051843388,9.893935317046267,0.0047668143592793175,0.019238687070673513,0.002211078048647179,4.78
0.18613184272418215,0.234532120339254,9.742782066242777,-0.0006622120149460426,0.004448908183566428,0.0071381740040230195,4.79
-0.046969413499961206,-0.025523816278528535,9.815732819021685,-0.014954520501802236,-0.0058535969441543415,-0.0002739935622842843,4.8
-0.15603661372736663,-0.03710667652545473,10.056768978178168,-0.005199696206860929,-0.01741571669238704,0.002976523573547798,4.8100000000000005
0.18376816567609702,0.23780855616583738,9.62597204215487,0.0028763700374102104,0.011282795087120372,0.013059101282548566,4.82
-0.04531549410172387,0.15899138749561534,9.765099335333346,0.0048046569978496155,-0.021683367150849096,-0.009605153934467906,4.83
-0.0716418611044408,0.11512225166203277,9.791621588407551,0.003112404774329056,-0.002582905365582777,-0.018220912595649487,4.84
-0.04324037694474692,0.024187854292680736,9.81738737893276,-0.008044315590170213,-0.007452738503872477,0.005227762249115626,4.8500000000000005
-0.10434683702949013,0.0146988836432968,9.842668523353021,0.005288963755365241,-9.205502328741997e-06,-0.012361403148085537,4.86
-0.004095331859965666,0.034846211055633146,9.987922322294912,-0.017129858067209788,0.0173088957376525,0.014601350298800095,4.87
0.16700587086318414,-0.008953035146725198,9.714861889755152,-0.0015248377681599296,0.008664832055083794,-0.004780384489802741,4.88
-0.024706048494664054,0.16270206831018555,9.798180435699528,-0.00017632440293469099,-0.0015255787929525887,0.005266968312999174,4.89
-0.15945793739118275,0.02930394750267178,9.77336321666378,0.007588860260707151,0.012949297714850734,0.011732504610832762,4.9
-0.057853807555391414,-0.17545385548746714,9.90706432551679,-0.0025598177666752296,-0.005539413167363725,-0.003165496038610747,4.91
-0.0003173920659488012,0.06550380428645701,9.885749051557918,0.01506181238793103,0.010295459997933102,0.011323826647854505,4.92
0.06484331833280339,-0.1805761551587827,9.607904211303842,0.00011404631832377166,0.0008023954453661697,-0.008313214643889882,4.93
-0.04963039057628355,0.14276102119178713,9.670272000400711,0.01041745595262652,0.00014615314253720575,-0.005587271803938636,4.94
0.2161587351340835,0.069746521061405,9.916461261415128,-0.002925871999736064,0.0038275457548834005,0.005235784949700638,4.95
0.2126820910306198,0.07559788547960705,9.767994343313777,0.011619528576748524,0.008476864033528096,0.0036811262912847245,4.96
0.18184863132401438,0.15002655438417523,9.77838034029824,0.0004213376675923996,-0.01071361619350084,0.005112815137635187,4.97
0.09920720063910253,0.11532369724396388,9.817805465348405,-0.014319077866118204,0.0026720760514429014,-0.010724598638317458,4.98
0.05284239729770257,-0.12041455004678592,9.891690738113866,-0.019444452519321805,-0.008199861990978172,0.0030732776323238974,4.99
-0.017965061753254474,0.11934407658385678,9.834095276615823,0.0010053478561260006,0.0018798194565050467,-0.0034164197004935503,5.0
-0.22875411867977902,0.11829074999925981,9.844545059537895,-0.015122814942652033,0.00521390091911009,0.007090727397638499,5.01
0.11034605161801317,0.1429785748131076,9.76327529987194,0.01847448059164426,-0.0007320166414910582,0.006500849289593345,5.0200000000000005
-0.07337283185631323,0.06834797113491933,9.894049290624022,0.0033664797234980617,0.01024232506580408,0.025284790264673118,5.03
-0.11907665856241677,-0.3135007787038094,9.686904379173122,-0.0010125914975116191,-0.004291810571811068,-0.012092761088976407,5.04
0.08210300864331839,-0.16302925968020995,9.839636751069019,-0.019055001250229926,-0.01346263328473656,0.004112644374817291,5.05
0.050607618766484265,0.03257958605078313,9.857990527330193,0.004222659383597394,0.0003592745415682354,0.021229639376297217,5.0600000000000005
0.014614119969941686,0.12074435893197599,9.786196152512499,0.00029547984110317834,0.0006842647492825699,-0.010501891417306085,5.07
0.0008563508832720858,0.07299103284262108,9.796677841966018,-0.006510261681645642,-0.012983058213813195,-0.0003391782299730452,5.08
-0.10246192318913204,-0.04993516742634267,9.875004558831296,0.008283024487851428,-0.013048266519054545,-0.006364034157390654,5.09
0.13208273784504335,0.006733166480412838,9.710189899295893,0.014082407850145591,0.005476937015104167,-0.012810463883642681,5.1000000000000005
-0.02183218093418179,0.007299741383249524,9.95352718743528,0.012013296049017928,3.345756045311105e-05,-0.012840497911059923,5.11
-0.0024017714452024036,-0.1078175960855603,9.692336293357176,-0.006110412865378797,-0.003654815361799093,0.011167566813139245,5.12
-0.02968672264446119,-0.09806054179783474,9.896489869036088,-0.018628195789279458,-0.0014879066667960086,0.001181135849259847,5.13
0.13899326798163664,0.0657286100783238,9.812600628909397,0.007479179859910139,-0.023476911236530937,-0.004702156228442725,5.14
-0.08716888973214096,-0.010795646168297333,9.82064966374973,0.006817819237610853,0.009294442532757212,-0.010346468266148316,5.15
0.03163483876557654,0.05257110806887808,9.693708402978878,0.00996312981513813,0.005535670993569735,-0.014839068511027018,5.16
0.019281079006983948,0.03318814800430227,9.916300483848739,0.0037430411423755535,0.0011739075480376375,-0.004382898743506523,5.17
0.1708075386258674,-0.1726831833190511,9.774774474613501,-0.0005749759546630381,0.011558422802796214,0.006934098412174746,5.18
0.11418139174883718,0.16791571603711922,9.746988959773999,-0.01425777784748211,-0.022179460306428474,-0.010636337399770475,5.19
-0.18790050629111893,-0.0028920415097070315,9.681260910340448,-0.007265214571464932,-0.009231518790226833,-0.017474947593657326,5.2
0.1026830507470779,-0.14368211109145243,9.969768396113816,0.008864760654362914,-0.009117532935470012,0.009283497269392716,5.21
0.10796987216396269,-0.14991107823014074,9.91062100382392,-0.0007568724649627023,-0.0048876501452774935,0.013547004991373181,5.22
-0.15845937645663688,0.09740140568675135,9.823872243164312,-0.01101677304943779,-0.0034339152018622206,-0.022439182321220753,5.23
-0.20068460268232535,-0.10484748158001762,9.67425105162677,0.021575566306586344,-0.011766147306838764,-0.003432334200280416,5.24
0.007991526052169988,-0.12564045776303875,9.816361055788944,-0.0013710442587267174,-0.020215605738219487,-0.014284990351400625,5.25
-0.017645534958694312,-0.03172945698028037,9.998904616270027,-0.001420529059387674,-0.011146075587485904,0.0028805255493279548,5.26
0.03980683124999345,0.06429428698454043,9.7105030525124,-0.008679451715973731,-0.006576631695556845,-0.016697906736259864,5.2700000000000005
0.09743225125807649,0.07470547082527605,9.758352509385086,0.011690307451593876,-0.002858392637857189,0.005645203106337034,5.28
0.10631150014016313,-0.21965809943697867,9.903007247425752,-0.008309394746518603,0.022320790216731248,-0.0029744553328556744,5.29
0.02797096952623423,-0.024086751475393728,9.702169634625056,0.009349230160736785,-0.013828501005366717,0.011351481589542765,5.3
-0.22256484988431058,-0.017120183353163173,9.83236720318291,-0.004527004586695742,-0.016144688748590926,-0.0014415355664682342,5.3100000000000005
-0.10290221667812736,0.12211206429507854,9.829338894793802,0.005665914623042695,-0.0031294932787960163,0.005672041789489775,5.32
-0.1015818952452276,0.08545220931490732,9.834852332044797,0.009725346887576217,-0.007634144435893191,0.0006328013132963201,5.33
-0.020604659876996643,0.11300573460072212,9.756338554500875,0.005811939710744942,-0.006246857910521719,-0.008522466618707474,5.34
-0.020335533232830383,-0.06473096860401131,9.830850733102725,0.016923518779547866,-0.006257178279923245,0.004147982662785473,5.3500000000000005
-0.0255264781512006,-0.07651258733116773,9.92545835925205,0.0009008864641987197,0.005214444670115529,0.002382835361511059,5.36
-0.008325220853543541,-0.009344092950150594,9.70625481736165,-0.0033679838730502256,-0.0023312423932451945,-0.014790274199631064,5.37
-0.03147362223757949,0.01311669308916992,9.64946965765934,-0.00680751320934912,0.00041615359685142294,0.02200469500087568,5.38
0.003913875041997166,-0.0022096214496439286,9.738205504193711,0.00806377873022016,-0.016656008714669854,0.008049012649614152,5.39
-0.13070330033726624,-0.12642065638509192,9.881013237083716,0.018614786981873997,0.0004157963061524939,0.009805520257402561,5.4
0.26585766553413026,0.19949921673922755,9.716056475509108,-0.013164864541601564,0.0040784791039055555,0.0041210708460237555,5.41
0.17987436661649117,-0.2306560786471581,9.770573528920423,0.006603970586542873,0.009573897388881064,0.026047811526087466,5.42
0.008970042840450125,-0.043459394732498595,9.643047237643545,0.001114576396120819,0.0021606028066337725,-0.0023752014284058875,5.43
-0.04975054037012232,-0.05176089316820212,9.92723450664163,0.007016084018956861,-0.010180667070803617,-0.007195523787995126,5.44
0.0451144818167947,0.04400422163284716,9.843510812467693,-0.014445479047936733,-0.003325752313636202,6.383085439754327e-05,5.45
0.01157237956614087,-0.0644133132654835,9.831510813251825,0.007298530749718684,0.008191164710374515,0.0026130719589016293,5.46
-0.04825449534074182,0.019912625815260727,9.73964086592069,0.007242421122876827,0.0009099546705646173,0.0002904446927962037,5.47
0.18629668314910178,-0.11041327556364795,9.979262321692776,0.008171605787781528,0.003909076281754327,0.010210803187784428,5.48
-0.12567717519556476,-0.07223261273675163,9.762738804549107,0.0024772325390354346,-0.006667732439021348,0.0004448728074155057,5.49
-0.05125798041666044,0.05541717840542672,9.727958900514057,0.019165456344126777,0.005291855347691641,-0.004363485240159345,5.5
0.008730204498160891,0.011515141059393977,9.666498561257162,-0.0018406857164086415,-0.015211123208110435,0.0018626419220922426,5.51
-0.022527944654158027,-0.053307003166212945,9.910882660369317,0.0014194234540724688,0.004540666555443034,0.0007745102268804709,5.5200000000000005
0.025406137530001812,0.02854972165013103,9.912958291832291,-0.016890967288118362,0.018245663160808757,-0.009750365120937209,5.53
0.13384205130673896,-0.10047817042632637,9.860523032311427,0.002609368857818605,0.0068670232729643845,-0.004836367914045586,5.54
-0.008403486639006157,0.042168798298619393,9.844426996505435,0.009310143747447491,0.010804299467384142,0.0026359439984837457,5.55
-0.19659045874336156,0.033366782496035204,9.885937499449374,0.008237465562887116,0.007465142824496547,0.009671679459355176,5.5600000000000005
-0.01804101565033747,0.018435192310763845,9.766151635237845,-0.016863754701243933,0.00241483503800729,0.009305955380770222,5.57
-0.03630247333921921,-0.1304080600992788,9.806033373240345,-0.004289950480528097,-0.007758843980769643,0.008944234583008309,5.58
-0.2433496171432942,-0.055541105501818594,9.935040772550842,0.01580291291902425,-0.006083910786972688,0.006454486363055837,5.59
-0.00866835454238027,0.08806986232050408,9.858838653699706,-0.004874118209002716,-0.011371143130110844,0.02163729716580953,5.6000000000000005
-0.1400779017444089,0.018375769326074026,9.864923592895666,0.014021944986883514,0.014670061805743893,0.005606426496706008,5.61
-0.08439402316056041,0.09601792215509292,9.885249730314912,0.004766510721859364,-0.012821943574237122,-0.0029669532778555012,5.62
-0.050065628087295005,0.05442638179154649,9.885351064686402,0.007836754544126768,0.010389639076495412,0.003251714358477048,5.63
0.1365017511983726,0.10414739183272237,9.829283779547666,-0.006771522663864694,-0.01894622473831734,0.017674706596748732,5.64
0.064306790759652,0.13103493258414736,9.797583748729327,-0.0055377435001798085,-0.005342938609376775,0.0005427832182222743,5.65
0.18648724797956442,-0.2342911511628771,9.88205730094412,0.003547223359774496,0.011474787443186694,0.0017355366429843175,5.66
0.047793067081877236,-0.16283189703585413,9.882959522046287,0.006817444008455281,-0.02081333023519147,-0.012087471362997893,5.67
-0.07470144407076974,-0.02640837171290274,9.901253547838992,-0.012050074535084457,0.0027199262007479596,0.013189126773750975,5.68
0.12486563740816425,-0.055426836387531514,9.85121295071908,-0.001147498561548458,-0.013821216668677494,-0.014582477661365894,5.69
-0.008308279265417405,-0.12067912312157113,9.882169448192355,0.004574002723047931,-0.007486413658033183,0.004265317393967208,5.7
-0.10211925117085988,-0.10734834062828796,9.699183176469594,-0.006015249485684219,0.002959954566252456,-0.007716387633215597,5.71
0.04792818901922361,0.048947939288521355,9.69183567242634,0.01011246959209672,0.01667514600651128,-0.015201028978145495,5.72
0.09239282557102095,-0.002131896385613719,9.805788442121822,-0.008488521356037155,0.01236307590485899,-0.012338753990093317,5.73
-0.043391161244106635,-0.12669275208569028,9.826653269080582,-0.007277942147920673,0.009937986191608156,-0.0015971082753708477,5.74
0.16036029574836502,0.10795337060326585,9.763706559593597,-0.012172900317694252,0.008901129344746902,0.0015803552116907536,5.75
-0.21212085881676246,-0.005668759333588036,9.684402995693778,0.011604207517309135,0.0019129743641622557,0.0022581653760816527,5.76
0.031203943432546767,-0.22514564075176594,9.74353230925948,-0.00809700835728928,0.0034944834865664803,-0.009723057607086767,5.7700000000000005
0.038291028545770024,0.011394739496062118,9.663599094095659,0.0108187042917155,-0.00653772812378681,-0.011106791416416566,5.78
0.0735116889512527,-0.04724190790767974,9.80859718934405,-0.0058065500009106385,-0.0170803053459453,0.004894884310493564,5.79
-0.041104214736619786,0.05098818609623534,9.90872264550547,-0.0020562938307453547,-0.0009041574970712594,0.0038632451925246156,5.8
0.06302982489378571,0.05375126444289829,9.725066546943578,-0.019448986439946473,-0.02270779878709093,-0.0009542038350181806,5.8100000000000005
-0.024880431182685264,-0.04004123343086603,9.910847307186291,0.0022179328926536777,0.004462682758485286,0.004753949417213562,5.82
0.17027837959708125,0.026726111700561696,9.872028240682363,-0.0033841441718132997,-0.00923088086932044,0.009710019420729212,5.83
0.07845729420279962,-0.17268958239119714,9.762641977604439,-0.0012904888445878801,0.009730223320624369,0.0004993465956561535,5.84
0.016860577335962454,0.09495803960407866,10.11878273051234,-0.003556907629325592,-0.01766463438522233,0.00872615777919509,5.8500000000000005
-0.1306854266958342,0.016375097703929878,9.848044814029205,0.007848590045323536,-0.006256781619314179,0.014934877913595641,5.86
-0.02719021470775164,0.003084183763133372,9.84410934091418,-0.011496530015549452,0.007827234920371665,-0.01576993437596719,5.87
-0.09877938062249558,-0.16042455535943867,9.728488325532561,-0.001321071350892336,-0.006681142794049624,0.012212463267495609,5.88
-0.042497704950567386,0.030018154737798664,9.959361873853437,-0.0014600164245514597,-0.008171155173687411,-0.0058467382697326075,5.89
0.07799058352780686,0.01364325521808037,9.875723587249,-0.022595594226662893,0.015462508875600722,-0.002326048128117448,5.9
-0.04055687492736436,-0.05800134424055958,9.927693991444098,-0.00388094979543791,-0.00831074638617833,0.004422223045417721,5.91
-0.1366286151514412,0.007932568292873962,9.856243282937246,0.0216576278691055,0.0034348341665883853,-0.005194781777187745,5.92
0.0051179178486780615,-0.12684403867499225,9.677980860914984,0.01199823708619961,0.0015374093489665948,0.005632335500677234,5.93
0.1610409144884442,0.029394210745113693,9.69928501925117,0.015485476697597061,-0.0004537538226062413,0.0021554116615931786,5.94
0.04837017203206041,-0.07564481523922052,9.58270162112653,-0.013458760252383494,0.006713994344837964,-0.01762101233652501,5.95
0.025700595992394742,0.11852534517726349,9.647979113354285,-0.020296824535670208,-0.01517803718688944,-0.004516636493046283,5.96
-0.09124986525833689,0.039017476564844146,9.943597524383929,0.004666729175974406,0.012791078283727629,-0.0017583956025449283,5.97
-0.00018099842885280188,-0.029112384486707554,9.97898469920433,0.00710433884033588,-0.015180519460465502,0.0020405966495631853,5.98
0.06908060081672715,-0.07324617286185546,9.837173788465048,0.014280551185398312,0.023360215698756362,0.0013159227391434717,5.99
-0.14372877805773407,0.040893702830717485,9.916285654181339,0.00349537105684058,0.018213675773966778,0.0019573555916215023,6.0
-0.1182969875520351,-0.141073571827762,9.85078517359166,0.0012323908739393396,0.008740694777502485,-0.005012705715750575,6.01
0.05029009863280333,0.03914894443794383,9.831206260273085,0.004023158891026982,-0.010268291641268938,-0.00678277500916401,6.0200000000000005
0.21063199449838865,-0.04741499017113268,9.95076859196775,0.009356737461992734,0.010821113547089665,0.0027678969179720813,6.03
-0.02198638178783093,-0.0215335856434107,9.686451028856178,-0.0031057904407141286,-0.013352671631027607,0.008916498410619502,6.04
-0.12927757880079013,0.036811835634871684,9.661379445878136,0.02125992822638398,0.014936949407775473,0.00288489808481605,6.05
0.039544838835647605,0.03177378107374995,9.906167608631177,-0.002711449004177555,0.01684977004012361,0.012331481594163541,6.0600000000000005
0.01709818275764324,-0.10303410503843054,9.83670407359272,0.007126313654635282,0.0016180762277290697,-0.00046148585746705047,6.07
-0.04900381076002228,0.04974636428700152,9.96620737547522,0.01435882607919904,0.007551858809628021,-0.011049607245405244,6.08
-0.009884837057884698,-0.24972766777223399,9.913456221708133,0.019356775457584924,-0.011005242533832688,0.014686745019120886,6.09
0.08783877388139129,0.13102396803860292,9.670179529071113,0.009462116146738203,-0.017518777174341523,0.005233878260942528,6.1000000000000005
-0.01094550360103971,0.12272084541092927,9.90570504339149,0.007275275198938315,0.005682874726947432,0.0037281033063465575,6.11
0.049371204674842205,0.16276671900882186,9.80487526410014,0.013059041675823821,-0.007486002824500529,-0.013859316408931406,6.12
0.018190736206616688,0.08346486698585784,9.85321375103735,-0.013880895328769552,0.014851348267592362,0.002368296035356794,6.13
0.019666133056758607,-0.03283429602545097,9.973575285017839,-0.01786385568672637,0.003192054835137245,-0.0014052356178953548,6.140000000000001
0.12054579162220512,-0.004817290415551928,9.64191092222369,0.003038069694912836,-0.02370296686390936,0.012064821655405619,6.15
0.022946859794386324,0.16729757200443335,9.845043306285744,-0.004973838795916627,-0.013023020743232604,0.007839867894761307,6.16
0.018283737928205684,-0.1027996821048337,9.961071380039426,0.004214026337679967,-0.023414191605541413,0.0033143688148192184,6.17
0.08225071190563248,-0.05760143236824479,9.773694365492638,0.001999338565406949,0.0008844216591096707,0.008991355163786388,6.18
0.05368304548527031,0.016544172921634504,9.723144927451854,0.000622708666542289,-0.0021570969444935878,0.008925947297261278,6.19
-0.00027030558248509134,0.1041254030666039,9.958119867335203,0.006370009061236482,0.010281391601877713,-0.009369441798079027,6.2
-0.2039752297598313,0.029329691904315554,9.775890854369324,0.011399323803329734,-0.005874030126942987,0.00946784755741978,6.21
0.08491813369200925,-0.011527776376120572,9.74499257868151,-0.006138919436667012,0.020356888837098682,0.021398734831499035,6.22
0.013718311027050085,0.12349195019212147,9.969714326884484,0.01096212758508662,0.006882724339504126,0.018545782926317558,6.23
-0.04737489039489128,-0.027515167272201765,9.786296334324827,-0.017594933926912935,-0.00983072292017967,0.008897274419945924,6.24
-0.13005830057838266,-0.11900521218482013,9.833666658605136,-0.01266917432576412,-0.001998075243324792,0.001406233571429823,6.25
-0.24316232546181396,-0.04092044981839546,9.860920889248645,-0.0030024817796939825,-0.0015152336236655373,0.0017897337954247395,6.26
0.11907332920361287,0.0011392106647266887,9.762859256850993,0.009518627977884758,-0.017839946257057832,0.0034707065144173096,6.2700000000000005
-0.0771092027044111,0.07850494903981951,9.936665750729768,-0.003949742942633225,-0.003157499118335724,-0.004808140428028814,6.28
0.0012289890579285333,0.07184552010541106,9.892309600414789,0.0023957959415409165,0.00014975843946183018,0.008493805152618533,6.29
-0.051427029986966015,0.1333771140167249,9.769674951320559,0.001125671561151118,-0.015646802179301693,-0.007032410130219272,6.3
0.0688962524972853,0.046949538909011254,9.756245274207828,0.010950238572577235,-0.00018835342772230535,-0.012508295855896492,6.3100000000000005
-0.04644665083398327,0.017120139269703943,9.819226576509415,-0.0006469496324208795,-0.0013536581345019478,0.011238187814544331,6.32
0.026825823689959633,-0.17935446949980033,9.7722705699518,-0.0011069992385153151,-0.005873689695083378,0.015190579405639,6.33
0.04341996352999159,0.19635446752434327,9.832354672222461,-0.0004124001650731972,0.006019677780632567,0.005023274998748848,6.34
0.03168869378234395,0.12647166624033254,9.76118144045716,0.028093349485128517,0.011877515980473442,-0.013269085170453778,6.3500000000000005
0.01503857127006477,0.035490454578598334,9.750194704104596,-0.005074730050927257,0.00603283308646108,0.0017464102489134657,6.36
-0.07059600131918062,-0.0600453151831607,9.734738764629746,0.014585182959888846,-0.028029308982988305,0.00497284432963331,6.37
0.08681159366373914,-0.0369057086448857,9.946648386608128,0.004291409737824058,-0.005237334676900211,-0.001851129116535526,6.38
-0.030753102296418977,0.05633449671002314,9.865333476860314,-0.001590796274402926,-0.003445385464730521,-0.010653616889407835,6.390000000000001
-0.02370750367090464,0.0659188973353965,9.815953635643593,-0.0070876986129165456,0.00677443218753917,0.004497385290304968,6.4
0.08718041968093428,-0.02055622205584338,9.778451974887792,-0.007692036939699347,0.0074497386142645325,0.004563618252509302,6.41
-0.09389195128809165,0.15897770505280062,9.685746598711589,0.0025866723563087385,0.0031530430700477136,-0.002613740823592472,6.42
0.014862146075022939,-0.02918337377327403,9.780656427328921,0.0042016876525103825,0.0011185120948626755,0.004425546778199055,6.43
0.05496837572628519,-0.13095141476683214,9.836319315974173,0.010483102623593886,-0.0005248838845906193,0.012737639636723854,6.44
-0.16526370640440124,-0.03388557302440581,9.836382442144975,-0.019051546907098153,-0.002706206236121182,-0.007882814744633787,6.45
0.037904572767435224,0.10257474602401216,9.800861184148207,-0.004787234654549485,0.020895649534404304,0.0064831634377257134,6.46
0.07287884820815226,-0.06737190680163123,9.809858486984838,0.010388631245363041,0.00806361045453005,0.003848063331781608,6.47
0.01339184802235522,-0.004884463387338733,9.91269477082088,-0.016258879947135627,-0.016428398815671694,0.0005111832514254833,6.48
0.10637989516846365,0.023056925994452193,9.932969030160983,-0.000264004455015969,-0.017248580010000018,0.01611542642587965,6.49
-0.030295493926492764,0.008732019358599663,9.77356134036742,-0.0001294196065045543,-0.0022012138862105434,-0.0031566863531445133,6.5
0.03771581728622889,-0.08954694709117732,9.761952227531658,-0.0002934448101434042,-0.00676790772808074,0.00394115987380368,6.51
0.12521193804522357,0.05462243239784875,9.8881144367259,-0.023883507112610242,-0.004636379502613531,-0.00044326508302738855,6.5200000000000005
0.11589416500167271,-0.059719201729636275,9.862452696658256,0.031124353852732222,0.0019911813711684305,-0.015679244573922443,6.53
0.09537112352156937,0.021501948136250667,9.883098448643675,0.012836164484421852,0.004895268586081079,-0.004249171544950425,6.54
0.09158909977400141,-0.017540450673072784,9.867791424166754,-0.006735811303234547,-0.004773464532927696,0.0014602617655829978,6.55
-0.0827945836959787,-0.08172356441679068,9.782496245995366,0.007189762885527377,-0.013326417737618794,0.009320421002889481,6.5600000000000005
0.10669256031761315,-0.12412313626721519,9.691377982476332,0.0012370274479516692,0.005078386880379917,-0.00308048373456866,6.57
0.015831577210494142,-0.15385804379161594,9.815411970974555,-0.011506546804946739,-0.007457441068199706,-0.005994112171984783,6.58
-0.14687722693275118,0.060217000709912816,9.726903853324107,-0.005693884916651254,-0.0049028620849106705,-0.004269782293850032,6.59
0.07531896975394807,-0.02668076888800527,9.83992180655144,0.00111194335184704,-0.010407575465188775,0.0009388902874543541,6.6000000000000005
0.07649159338990733,0.0053998770753008575,9.73152520733476,0.014859289777029674,0.0031058895596862935,0.013920693551346196,6.61
-0.0004763846533155149,0.02004664742452275,9.815286197856606,0.003091637321855308,-0.0009337937131249887,0.0053726115531372255,6.62
-0.07243890374448955,-0.03331244715099133,9.645823652321782,0.003898629587880842,0.025439165805725507,-0.006879759935896475,6.63
-0.17348152930453808,0.15716554033791852,9.758261254115595,-0.01191142449986554,-0.007896843700429592,0.01665506874554057,6.640000000000001
-0.018961977487590265,-0.05652235468315756,9.786380529147483,0.010729590064305598,-0.0042173641358980015,-0.007601911807183495,6.65
0.004471380263446866,0.005168158698368509,9.952627442845932,0.003785987536908361,0.020742434365098084,-0.0022487256197692073,6.66
-0.10841076296637064,0.015096697591273418,9.820899895021114,-0.011665689042388532,0.0004506277834493996,-0.0015950253060327945,6.67
0.08450169536978218,0.06693517896713327,9.856052814455024,0.020134105014100897,-0.001702011475049208,-0.004027775365723281,6.68
0.11912431751614204,-0.013578025622497745,9.795700255429585,-0.001909054861071588,-0.0004192850582015359,-0.006028152345335659,6.69
-0.10332953720101634,0.013127764410454275,9.759639178071051,0.014215585296786744,0.0029259314293868426,0.009297676874283168,6.7
0.03768562640276686,-0.046976871898492624,9.939321266470857,0.011206186078328285,0.010252872990338236,-0.0031752795304262095,6.71
0.041592167436573964,0.10792808795245988,9.78803336134837,0.0066082507649894776,0.009912231056000951,0.020445371321365435,6.72
-0.12392393836801126,0.017737920184382056,9.852821818947449,0.012475609511993247,0.010539646940483056,-0.016067352032668257,6.73
0.027880866878032252,-0.05565050189848652,9.758381998661351,-0.0032832064468184216,0.002384147282260598,0.011226695303079246,6.74
-0.21894655205083266,0.004046679531191141,9.828481925891325,-0.01999342099783463,-0.003930291322223893,0.005317595880925356,6.75
0.015583106393247587,-0.08527477568645715,10.116655432457048,-0.00913928002241242,0.009845561241806583,0.004968416985288088,6.76
0.04076631370787029,0.06690192747400629,9.700952414567311,0.006465055005522849,0.000924770201873715,-0.00873656669429069,6.7700000000000005
0.01962871269929503,-0.08533324741450765,9.791022075106442,0.002616745382962683,-0.0035517629836377563,0.004715787421337559,6.78
-0.03171869883932608,-0.023342986495232115,9.765834839248411,0.0006240177410402295,-0.0038975316392986016,0.0028918316744502813,6.79
-0.03151229540189376,-0.10385620849401844,9.65251216597168,0.006634792505140581,0.015437089845454506,0.011271137847010266,6.8
0.07004115677662369,-0.036520465284820024,9.756328021568201,-0.01738632828855764,0.004081619808473455,0.006995373244886892,6.8100000000000005
-0.23737342658158467,0.02108621333886848,9.915528919955145,-0.004228057777247807,-0.004701494212485864,-0.003373477586595538,6.82
-0.2174489973915156,0.09281055970092722,9.678464462809407,0.004772618517496675,-0.01262453075956598,0.0038655846074363053,6.83
0.09302475513379202,0.014932411399150206,9.65518865273499,-0.005178598182340664,-0.008945437607149283,-0.0005857413867142053,6.84
0.0513654256354561,-0.12985171510010807,9.763404752802499,-0.004098425267659227,0.0003029582946644308,0.013879227548943952,6.8500000000000005
-0.18215726247435376,-0.20510634127801108,9.731604166856016,-0.0005133317231215659,0.005869635236633795,0.00014247596171620817,6.86
0.021644372581020536,0.015076468705490044,9.668027981058872,0.0121073671326583,0.009591717630495052,-0.003566097183355695,6.87
-0.010130326710549536,0.05496310386660086,9.811034116427212,0.006477676569009131,0.00010444669013904306,-0.01763450194813525,6.88
0.06318509234120323,0.05258747808538448,9.76517704949452,-0.010233282779433969,0.012694218102757207,0.006171607535908895,6.890000000000001
-0.008390412774659751,-0.029361022060617484,9.781535113749383,0.002657221892344002,-0.013358347114318388,-0.00989739717316548,6.9
-0.22285218857169187,0.06991942612110111,9.848263529524747,0.0036298880108053965,0.010889724158734805,0.0021037025972422247,6.91
0.11631760397591871,0.024822072507400286,9.672815400874846,0.0032324701823416074,-0.0014933027941546329,0.005541918754642532,6.92
-0.036753117774652753,-0.056207453743293515,9.859466624354956,0.007058016720497769,0.005515715400039536,0.0051766500771462534,6.93
0.09249045831688135,0.12763118069103907,9.801079416367514,-0.00680891120773044,-0.01663360669425496,0.00016955089889063874,6.94
-0.07069452200324289,0.043730774878992115,9.594576073697155,0.005968118679690446,0.014476876040050135,-0.004212119037951,6.95
0.0048549350323703125,0.042351023724638975,9.663258235005888,-0.01793909663738324,-0.007266541622663623,-0.010552790189652652,6.96
0.0805697211542522,0.10747531882056637,9.831581340045329,0.008231676858343497,0.0057206479293640915,0.004879118331894063,6.97
-0.040000990811093116,-0.08080345260072055,9.600906945871058,-0.006892265737142027,0.010313324794037808,0.005685824775194719,6.98
0.019535768553912508,-0.07909579701164361,9.890506758301305,0.009512677685475177,0.012192124733617513,-0.002996803539186586,6.99
0.019325213429225097,0.0292561782436222,9.88612542802669,0.002838865824282239,0.013028543851632457,-0.006020852464894548,7.0
0.19018411077572417,-0.07608683707113148,9.834399152295328,0.019562521140249006,0.006724283740767842,0.002997941222427331,7.01
-0.06575426080737184,0.11462612166371365,9.920199914610182,0.01909543463986061,-0.01209439330101349,0.0015016141934269327,7.0200000000000005
-0.07444078386076695,0.008464832927368814,9.805469898928862,0.00046405543583398186,-0.002617553055355627,-0.010956931518888087,7.03
0.09723614949214365,-0.03384080384672114,9.746556156677725,0.0022473297979171743,0.0016399781653761462,0.01944291198105766,7.04
0.04764012669327139,0.12583243141041534,9.724924477478439,0.0069239631029091924,-0.001904731840623717,-0.0017877862262301147,7.05
0.20083248364552442,0.10459378907248276,9.859483914028711,-0.011449803740053081,-0.003761152021496158,-0.0022803141647069437,7.0600000000000005
0.25951382739829615,0.008901872588234626,9.706086321902523,9.834504678408009e-07,-0.012769699923783332,-0.0024305383438040884,7.07
-0.016473964402321534,0.009639944771992351,9.682536893446283,-0.010941040636606567,-0.002682227310118925,-0.021842059255084846,7.08
0.004867131057202785,0.05347282368105552,9.754395575780519,-0.01323568495983078,0.01848463710697793,-0.009933127750606107,7.09
0.013930517566826712,0.0703091546571029,9.734157925675909,-0.005667824846870671,0.007559248512605148,-0.004004276544544838,7.1000000000000005
0.016728793700305524,-0.13917328278366692,9.859632490187185,-0.0022380829811011423,0.010680607312843917,-0.010452193844783953,7.11
-0.1278727505126632,0.035343084570086974,9.943624997780791,0.0007743629630357509,-0.009659134994653786,0.00974512102268291,7.12
0.19656408401211817,0.038567834586958866,9.84292652380779,-0.0010897209505511666,-0.006198719131961635,-0.0005453990303072536,7.13
-0.02649522505974329,0.1416506880155831,9.750062864195355,-0.005706859665555207,-0.009820502040650823,-0.005627253319490293,7.140000000000001
-0.00470828258740787,-0.14237994255312647,9.77301020789487,-0.010424513182722592,0.0034428581268854575,0.0054296440898863275,7.15
0.007544055571549477,0.07945480984434543,9.927522487822076,0.016388691593032308,0.00820291788712408,-0.008408432651635808,7.16
-0.3087254357089951,0.08541905956053439,9.73671655785915,0.0028653611373654696,0.023556947709435914,-0.00811911810648056,7.17
-0.008481266448293341,-0.08066799033159251,9.617484175012216,-0.00212666086517203,0.0013998183195024455,0.004588377199286384,7.18
0.08344457173953967,-0.0795155996536,9.811835448583532,0.002637356738394066,0.004967798611846686,0.014226527331899335,7.19
-0.13595735527022726,-0.00854682229268907,9.605950696019578,0.003616412269081214,-0.013086941866137514,0.0073644031071019665,7.2
0.04361399826138763,0.02103289820381006,9.759949236523505,-0.002386031496578801,-0.017620879300987092,-0.014095161084847804,7.21
-0.10021072264987736,-0.11873514638823901,9.70878232557866,-4.521098792712399e-05,-0.00048586620600787585,-0.008504633799304386,7.22
0.1118917954943398,-0.17174860523565846,9.71008599132562,-0.004230491232987487,0.008782787011746505,-0.012001145820571227,7.23
0.04675525877291325,-0.07355406360607569,9.784771757640797,0.010903245614393816,0.006952437115307475,-0.0015339692896283133,7.24
0.015146721884511858,0.06831534200073204,9.961271516038876,-0.007503575643907381,0.006074016019088171,-0.0031880435358058517,7.25
-0.24524215661737375,-0.018188594335015896,9.863251108491188,0.006062752872786477,0.01825743523331563,0.005840207462309098,7.26
0.12532609716599338,-0.03145169909432547,9.80822894627206,-0.011885909295604728,-0.0047065268883096575,0.00999692076726429,7.2700000000000005
0.019090023223561438,0.035405404781216475,9.889368432960461,0.0069056619811666475,0.0016836243816632335,-0.00025708155335275044,7.28
0.08132229881502419,0.036668972837661455,9.805936168429994,0.02298539941741842,-0.017152445813313464,-0.0014763849655419722,7.29
0.16838590484350677,-0.07013085461786776,9.768744210219467,0.0032893788464525378,-0.00748203996368253,-0.006996252421525133,7.3
0.13918125284544336,-0.12650422834906963,9.827747482365455,0.0016308347230692786,-0.010629962822015915,-0.012709822295044533,7.3100000000000005
-0.03541531917797742,-0.010746411599760829,9.781559905061837,0.0040826233030629485,-0.015015560082619138,0.005068820130035986,7.32
-0.23271167716466487,0.07987146336261702,9.752722919392276,0.0017593039187945518,0.0012212308799355396,7.446790538141493e-05,7.33
0.25348486977948076,-0.10034926386164966,9.822749512964277,-0.003875703506852837,3.7802703143434182e-06,0.015641583769607236,7.34
-0.07358776400985444,-0.1429674354245883,9.938900923815954,0.011027267998758422,0.0193329555153592,0.005027691255496755,7.3500000000000005
0.03681398452583006,-0.0023766974278423406,9.902266783095783,-0.017549139863351236,0.007021460677162619,-0.00025560205984312667,7.36
0.05759645820318041,-0.08250950891192838,9.64325337003765,-0.010588131305713164,0.02270426495129834,-0.006916140551787078,7.37
-0.1603247143045896,0.1144713831593232,9.833990234397653,-0.005953434692323863,-0.004741213553405818,-0.01257171909244214,7.38
-0.03032347632250968,0.02126921688280317,9.989811192058195,0.010359412001639805,-0.0006487990526095222,0.0022445003378506172,7.390000000000001
-0.21225888414319544,0.02137169301365945,9.921715381525821,0.0028439280498880975,-0.00034284271454410487,-0.00018057218911394314,7.4
-0.08437610606614826,0.056915358695819145,9.891704176917253,0.012635568888574119,-0.02081459311400402,0.0017954402376902407,7.41
0.03323401974202613,0.0591162569712839,9.803930336395393,0.00179396134028094,0.0016866651022294803,-0.00036896301110157716,7.42
0.1636700308165491,0.05632666406676116,9.702110742881633,0.012341597074236169,0.0019603772416136563,0.0006248104114067415,7.43
0.09675013597888171,0.07395832141049763,9.905937505599574,0.00039298089074383066,0.002100709493418953,0.010263933153955128,7.44
-0.1373901180206954,0.010959295064085158,9.83742663793013,-0.0001317676141746617,0.003179637908855927,0.009668862082034765,7.45
-0.017231939817196104,0.06481251839407152,9.73353407617066,0.025411266554100493,-0.003768183341619713,-0.009305339626724663,7.46
-0.05284007667316873,0.04759170983515824,9.853432632738784,-0.0035443728556533278,-0.0109267558351639,-0.00652218891867475,7.47
0.15301595440627896,0.12160711949830119,9.840814334244184,0.008951782674747062,-0.005518697958688624,-0.014430936806361818,7.48
-0.09906321054881298,-0.07413830979003506,9.889157952865693,-0.005410577893222953,0.002763031674786514,0.009589227552341267,7.49
0.05424374412666899,-0.10383121422849184,10.048509595552602,-0.005531887957678569,0.0011857295172624765,0.0038515964708135436,7.5
-0.14978012765645995,0.12802063284755325,9.802520879915182,0.007930832054540277,0.00013240365727461612,-0.0026232135284635113,7.51
-0.06209647204930546,0.11278318556064651,9.980201011261357,0.012695665410508837,-0.006255915825966406,-0.019740826855074136,7.5200000000000005
0.06525565925083661,-0.04336194214221043,9.984454022234159,-0.009723929236709717,-0.009932227328542844,0.011292601786229957,7.53
0.06421669730842748,-0.03855426936928467,9.856905902454338,0.00969101938816672,0.027430563389521174,0.015961043715488593,7.54
0.01823500679792032,-0.018211847487816582,9.761179111613249,-0.007082139542096871,-0.002793194951902256,0.00550254950786695,7.55
0.00802799559434318,-0.010805731441658323,9.838535430767404,0.0012356050020687775,-0.015938647737694555,0.0012158645097987465,7.5600000000000005
0.13694401844803364,0.036117546388449655,9.652169104526866,0.006565968864496683,-0.00425790475456451,-0.006262111624586377,7.57
0.034432907379348364,0.1029551888814547,9.87589360152812,-0.011469507570643871,-0.004344004690537073,0.0019973399803398842,7.58
-0.17011077875129343,-0.011406322939221612,9.60031005351469,0.004988309281791335,0.009485239504565274,-0.008457181124528469,7.59
0.06992650622295224,0.08744935593678603,9.942987260448309,0.0009513994854737722,0.0031729415331975953,-0.0012852384027394294,7.6000000000000005
-0.000617895056999202,-0.06879333587470156,9.872468013224719,0.0025183751472340732,0.01160234947895061,0.001798663576443903,7.61
0.027646775138670143,0.2934157724714274,9.815819554305516,-0.007036745797900229,0.004185223783689059,0.0032228714513724793,7.62
0.055964905958042155,-0.11986326443394611,9.878224826780245,-0.0259584715875318,0.0025298280771024117,0.003647049306189823,7.63
0.1157639469754864,-0.15981465441577106,9.87093808400749,-0.010043242531510663,0.01019923793627119,-0.003907270603452567,7.640000000000001
-0.04576914667942272,0.06865557233234866,9.611846496935428,-0.01123889864598829,-0.003735912279563747,0.011043842480915571,7.65
-0.23616190669573492,0.051049010405844454,9.877903006616492,-0.002865980456897954,0.00041603736611769916,8.286798236646867e-05,7.66
-0.054219569435467165,0.04031649705778218,9.872122640053098,-0.004289473972996526,-0.0029209200821900456,-0.0031185859852895714,7.67
0.04104292887892663,0.06072068959254859,9.744497601295556,-0.004670346717965911,-0.007617650347270988,0.002544182572708295,7.68
-0.14351386780626754,-0.03264225517329552,9.918884709570222,-0.008116181678777614,-0.002883795199663082,0.005936768329217325,7.69
-0.08626257568845927,0.00033371950766951505,9.85578663366388,0.014927389129415226,-0.0015717799580942959,0.014069232247584867,7.7
-0.1369825617949336,0.018355504825552572,9.611802942718672,-0.0069886727816143804,-0.01128170886842974,0.00928539072177174,7.71
0.16868790762512717,0.02488552346334098,9.907760844357123,-0.013417332882017602,-0.009773479484389867,-0.011711968091599086,7.72
-0.18694896498195443,0.024988552962903213,9.841558830686596,-0.011178905481328561,-0.019107946362026392,-0.011408997620970293,7.73
-0.01206427453334824,0.09085440292214948,9.83958293719172,-0.0016714508626001986,-0.00012525071986857063,0.007266990234664423,7.74
-0.027975408048463397,0.029695399947870682,9.697595196508917,-0.0021213191589298246,0.005338803818391797,-0.0003254309754732116,7.75
0.10299439515419428,-0.07391146077096582,9.867961813884396,-0.015670754181841016,0.008167467708677392,0.00620761498877593,7.76
-0.0047345153215537245,-0.1078570140674898,9.97856728395964,0.008098971225292217,-0.0027656136242582546,-0.0123348557886115,7.7700000000000005
0.11739412111420747,0.03473252144997901,9.76021038227391,-0.007277159992026045,-0.010772576027495073,0.006553174499617186,7.78
0.025635513148438538,-0.0987226939873822,9.81494925100583,-0.0005473098987228822,0.015959664015267067,-0.008407695041209662,7.79
-0.19612237433734528,0.06718099624862565,9.677633383366853,-0.01229658233181398,-0.003347019875528171,0.0069657610750869904,7.8
-0.1348767914386446,-0.09621240056082697,9.858513338430537,0.0006423844347231083,-0.013927622186771071,-0.0004292426319615989,7.8100000000000005
0.2357949705165504,0.008855045786438673,9.696794619688186,0.008947556583000216,0.0025258717545574355,0.02556756520497755,7.82
0.03460195313514802,0.053544735875464336,9.889865043067273,0.008959235593545513,0.01772620799244404,0.0005526307805552542,7.83
0.01449219784076605,0.020250612882098833,9.841406723304521,0.012386375460179731,0.00969732872212252,-0.007789080882577296,7.84
-0.062106960845353824,0.01300895101203719,10.000042342866122,-0.021234787756087205,-0.0026811421428021447,0.008971810896607198,7.8500000000000005
0.19835646166085075,0.022072120084195686,9.8608767378211,-0.018290448401309615,-0.01582309158756973,0.01375363362805975,7.86
0.06271924529171416,0.003699081794080135,9.688179679053105,0.014457252925433995,0.01458272723025096,-6.582975642442338e-05,7.87
-0.040434846681141896,-0.19994041436831356,9.860859424193954,-0.002061287882690973,-0.006383829746042113,-0.015172882165328049,7.88
0.13300216517604915,-0.025501887033425943,9.70856005389748,0.025726956882661214,0.009176883933461803,0.00966748065394121,7.890000000000001
0.11970815813754879,0.10229071408983115,9.80455071232131,-0.005445282533775174,0.010035494406445473,-0.0011560703763592547,7.9
0.08628182600291576,-0.01030567562739488,9.655739117540127,0.005599785174370098,0.00860547322585216,0.01182823891779551,7.91
-0.1747659147519507,0.2465188817750995,9.728079986243229,-0.0004967256534284441,-0.007333411610653428,-0.00434507539128407,7.92
0.013799423834711853,0.06053910309424555,9.906700468740615,0.010194175527859563,-0.0058363731200583805,0.008812522386196951,7.930000000000001
0.028377318635115525,0.051023448101197015,9.960909643461221,0.00248136120622196,0.004303699073313289,-0.004352713922104445,7.94
0.10078659815019866,0.061807063556046475,9.925125706518607,0.0008599572466054849,-0.004179316645517671,-0.005987207506872691,7.95
-0.008195626458202415,-0.0048042403464200615,9.781365690870409,0.003411499728139203,0.007306883968935274,-0.024345716589502873,7.96
0.031185584259625095,0.004638408787789893,9.767294899125071,0.008197306839173779,-0.018891219074184198,-0.00035031363864224916,7.97
0.12817425338508573,0.06212056075344086,9.842176053638637,-0.018120765949794546,-0.00759340849476567,0.022101222740926522,7.98
-0.03567339738543634,-0.1544213021371594,9.75950255518691,-0.016571449262857342,0.006604641500323437,-0.0025147289839921004,7.99
-0.02582731373009105,-0.08729877717881397,9.906487417959212,0.001101019577825704,0.008123578667510203,0.015434064632781606,8.0
0.21058367620161744,-0.006818482385266012,9.939195170654946,0.016394025822660616,-0.013400184507435797,-0.0024074759844195342,8.01
-0.09471964623457627,0.017835911463833325,9.69070824666508,0.0008100640837033957,-0.01706691515953949,-0.0025157941124902532,8.02
-0.013830207848584703,-0.08393380948579572,9.837160544501167,0.000697146799749673,0.00043527074630891096,-0.007541768938694134,8.03
-0.009217578435947546,0.024327680291092404,9.64661171909985,0.01070089017108389,0.013837121651918825,0.006984931855723957,8.040000000000001
0.1906181140963128,0.044633885194452536,9.946623137191638,0.01659516015652072,0.002867457873417134,-0.00027160419407560763,8.05
-0.1061350954119035,-0.09719186119728263,9.862577970307663,0.00019405954897230252,-0.006773487975925381,0.008830199729476778,8.06
-0.04894808863133566,-0.045260794159115436,9.87495757786073,-0.021584205849897824,-0.002758387036864263,0.010951259900973547,8.07
0.0011177174485065009,0.08791838407447564,9.731593518129863,0.0019784804699270555,0.004671996638575181,0.0188542143757461,8.08
0.20970709501523818,-0.08213430336500849,9.796517584277705,0.009227078282443362,0.0018314993145200032,0.00841217783410903,8.09
-0.13937873362968398,0.08715745757121238,9.77865418933222,0.008421348689870113,-0.011513918437309305,-0.006139597681410885,8.1
0.001972683569162252,-0.18899450053122138,9.869446906151037,-0.022659009758680054,0.0121567449980139,-0.001625183048575417,8.11
0.04808785650653471,0.1245597687458334,9.61160322267479,-0.0011067295112330755,-0.007915066041863506,0.009610552184918342,8.120000000000001
0.050938562798014786,-0.15425714424359438,9.918612617286538,-0.003179169305263304,-0.005984155400239951,-0.006413508440875353,8.13
-0.016688999549770694,-0.12526480527636635,9.87624562602571,0.0037336057909092713,-0.02743904054398898,-0.005136933126698991,8.14
-0.16287614873250011,-0.005226572587956908,9.927838761102274,0.009892174041800587,0.006753023111872884,0.004323151614444672,8.15
-0.012386694261777327,0.06826172697084909,9.608366018772045,-0.0028273867673506924,-0.022203638192616934,0.007205801745892255,8.16
0.011043544261751135,0.23803359799869864,10.139747931511165,-0.011673533708814049,-0.00584696163695571,-0.0010277500814199788,8.17
0.059505563461607285,-0.0720630581847893,9.791436551273272,-0.017718252312450045,0.0037559810142616386,0.006923851626331622,8.18
0.12035606238470271,0.040128103401604394,9.678308282293601,0.002923885440316754,-0.0020104052967736255,0.011393155765190574,8.19
0.006366932221396249,-0.14558144226512182,9.692326688675047,0.017230829134416682,-0.002256177166314221,-0.007429294430578757,8.2
-0.00645807056767961,-0.06276148433798552,9.671772228570536,0.005004263781604874,0.008154514140329453,-0.01374038503257256,8.21
0.05519283748987872,-0.027694993678753985,9.888253966230845,-0.0054958347952833555,-0.0004931479287361115,0.00044497160940187494,8.22
0.07821639139743146,0.033872876893465395,9.897687512271448,-0.017716961273020373,-0.0033582588234834366,-0.015330750705439593,8.23
-0.009691838804180465,-0.06289877533362324,9.808780930057495,0.003798154322499356,-0.007681631687296447,-0.011152046016060513,8.24
-0.03805069104515238,-0.07314812068739894,9.950133552307118,0.0136267885310214,0.008349332031965069,-0.01076932324963245,8.25
0.1225032891152495,0.17012590956012244,9.89786528660294,-0.0012663101720196829,0.00298406259589355,-0.01404994072787833,8.26
0.03037670757022076,0.061048838668155116,9.930648023078357,-0.0063114042883783555,0.012922242596337313,-0.01584458445947707,8.27
-0.027720439131830945,0.02381605288990395,9.93768035784111,-0.0020696379543892686,0.004573916968927011,-0.011825522985346101,8.28
0.09486003398417414,0.16816913186662363,9.645029616077991,-0.008673941826039575,0.012257034552204378,0.0017187774181639385,8.290000000000001
-0.049892963525816306,0.17518193601314638,9.86120950936902,0.0035655441761164607,0.006230561433771367,0.000947786852383227,8.3
0.05713076854136341,0.03875509743980693,9.614181692369053,0.004078028851147303,0.007497273992751075,0.017434803491980407,8.31
-0.08954596327750351,-0.08934409039071413,9.838210037813262,-0.014832351313109855,-0.015134342153180417,0.014016208846022234,8.32
0.062181504279251336,0.05569103699084789,9.78475182115463,0.013368917581214217,0.0019993912017158273,-0.010420701545138205,8.33
-0.10064517434152716,-0.05876674345293066,9.82548531949767,0.0031118285186073303,-0.003913808569123405,0.014233750919043124,8.34
0.03567506156978831,-0.1319243198728259,9.742712649700387,0.002377684062534586,-0.00010998857327902601,-0.003539936426526858,8.35
0.0004942059850981038,-0.09652439591446144,9.69375942927827,-0.006551112384960282,-0.0048797619457043966,0.006114031979058388,8.36
0.0633536522997846,-0.050752854331738984,9.772345081995205,0.008919541318177208,0.026236549591944002,-0.009969365228780233,8.370000000000001
-0.037647702654346894,0.09253300230239704,9.889993409339118,-0.003109724321591906,-0.008823387147170021,0.002268466446835409,8.38
0.11079426740738321,-0.08639100318773371,9.70878094437176,2.26261923322644e-05,0.0005629058966523173,0.004105967396615899,8.39
-0.08984848236428292,0.026331230322772337,9.8062424006835,-0.001274900126071679,-0.005571019726876363,-0.006086211212076375,8.4
-0.02701430078468598,0.07313950424779907,9.920672423896654,-0.005331963656851299,-0.003694234987870383,-0.019622266514242818,8.41
-0.1124456833648132,-0.002296590963060126,9.723845598137794,-9.247831053425813e-05,0.010212213210547586,0.00519394958243848,8.42
-0.18206024496830853,0.07375626714924752,9.997417558549287,0.016103097512058195,0.0022069569839763313,0.0033443871096994664,8.43
0.09956316020820646,0.18733308875683918,9.768835090248077,0.009118105603386585,0.014682498733808422,-0.0020634031837143676,8.44
-0.1686310001367708,0.05486570874301299,9.621867923171289,0.005226450569118566,-0.009419078919961986,0.009147431165525443,8.45
-0.23668876890297305,0.05216094790171275,9.757539556804337,0.00252688657969365,-0.025085703491740642,-0.0034466636321382215,8.46
-0.07126404416031895,0.09430635417249605,9.853392730766778,0.0016137755959213396,-0.0037271776757213976,-0.011635782139464002,8.47
0.07212767823334465,-0.26935973955554227,9.96091322257465,0.007830368507220114,0.018798503061528856,0.008302947992025068,8.48
0.20425745839342163,-0.021179990286334386,9.776792005149643,0.013969257327350628,0.0011438771079278793,0.019961326534054965,8.49
-0.2100707229379511,-0.06986063747324493,9.784234620855255,0.006923882747125194,-0.01517805445475801,-0.0036545918059356407,8.5
0.03296396247339272,0.04422799982359013,9.7951124955063,-0.006909134064337697,0.003095874597630024,0.008137843241049143,8.51
0.1641463975072926,0.11430229151329219,9.690994603953397,-0.0036945046454513785,-0.02167309001856081,0.00047064206305588,8.52
0.00982636111567353,0.10193600271473946,9.863714943509713,-0.00019718332654497801,0.010511900410594315,0.009790791191955283,8.53
0.052214325295712787,-0.07874014982810647,9.824253293366684,0.0314280491442751,0.022302044709850546,-0.00905791213293658,8.540000000000001
0.20440290671958494,0.02305710962700355,9.83887079131719,-0.010785086190608414,0.014077706200387317,-0.00723030462851425,8.55
0.09881786311908759,0.11350627752221494,10.014941877569608,0.015504990254821207,0.016706447299399036,-0.001223397769305998,8.56
0.10571251125137533,-0.08511706576483513,9.733504442342193,0.0037405076915240486,0.018250584603211235,0.008869110546456248,8.57
-0.08819653395716902,0.02641025660780713,9.840976920565323,-0.008818080957582249,-0.0026378208717658157,0.0026869834775682037,8.58
-0.0008882388455916182,-0.06043793763881792,9.766673348605293,-0.0009954839542777978,0.003876280225207959,-0.03230779582957448,8.59
0.03357313339871781,0.007004085360107097,9.759052825276399,0.0028824457250550754,0.001971461491067907,0.0062520599841678764,8.6
0.07356386965954935,0.2087198875333497,9.62571397731781,0.013164262969353299,-0.008471068696689047,-0.003999418255993718,8.61
0.043171087417038734,0.07958783275938944,9.69621508490381,-0.012696785446531744,0.002945285060099279,-0.006253014647810325,8.620000000000001
0.01906134626531493,0.10508100433584298,9.812998056887388,-0.012515353180955504,-0.014271146801954331,-0.00024138110442612415,8.63
-0.02615586395543917,-0.19493435428706737,9.836749674762162,0.006626387385596898,-0.0011244394120473312,0.002839989481559339,8.64
-0.13297829882794773,0.05182635891508378,9.722994946780096,0.004065093707460504,-0.006274000638568211,-0.015007215634377036,8.65
-0.05088448290271076,0.051447198170268965,9.810248873208852,0.002680542219127054,-0.00934487871605485,0.01447391604132427,8.66
0.10867870593386995,-0.2168542000176914,9.631097855426024,0.005613067403310688,-0.01021523987390852,0.007250440341874425,8.67
-0.02449379300909238,-0.10030851280627875,9.810885225620284,0.0016309701456613383,0.014224124135204477,0.004534452317470723,8.68
-0.09236449753202808,0.19248487973036166,9.816319493342487,0.005937964054435796,-0.009726948338145105,0.0016829673440503727,8.69
-0.014654868992779423,-0.009969671717934114,9.650654920335066,-0.005945438437594826,-0.0012432080047052657,0.01137257833512595,8.700000000000001
0.013015696709724623,0.1703326187379651,9.745091166402107,-0.005520640074527511,0.0053882609857359,-0.0005671430228132894,8.71
0.12593213492368027,-0.2765971966863593,9.76983904517065,-0.007306121646648595,-0.014580848287378155,-0.0008228188801638124,8.72
-0.2198648448336667,-0.07035831957515787,9.85586372918898,0.00954851774327029,0.011183356893336681,-0.004586903809070386,8.73
-0.013203388837864672,-0.051079465170421515,9.806978048971379,-0.009219773506032578,0.009136404743692891,-0.0050607990087009206,8.74
0.012717499827545088,-0.04220057818248741,10.11949838468115,-0.0008850801568123781,-0.0016353370854450843,-0.0037078123242017904,8.75
-0.060644454382496354,-0.06202048177953878,9.722158028617491,0.002109535282848729,0.008366159869260044,-0.009778331243887734,8.76
-0.007792699527137206,-0.16030367302380194,9.711103635283282,0.0011253299510339944,0.0021883685864463333,0.0011840564715267694,8.77
-0.25084593280134454,-0.15671554162699847,9.806291313913427,-0.005052646800533696,-0.00187658176817123,0.008878521652111875,8.78
-0.1519058825170773,-0.05541521581034416,9.902475142893572,0.004748635124976961,-0.01842366284261222,0.01868520059826958,8.790000000000001
0.1535579390516467,-0.03230008695633912,9.786610450943856,0.012645601549273635,0.012649759810454398,-0.010500849305790599,8.8
0.07823146015887288,0.13166260551502204,9.944534493585577,-0.0019928647847831968,0.003830655767100441,-0.01641376349009252,8.81
-0.15277427347589434,0.05800531165153664,9.784769475999669,-0.01687912656507387,-0.010060276703181142,-0.004920477300957868,8.82
-0.16927519683115905,0.003298984586504853,9.916961820350252,-0.015258340451485154,-0.011338360530565675,0.0022224589589140203,8.83
-0.05521580971294801,0.07368482757321775,9.833106470196356,-0.00914020790977083,0.001837736275460319,0.014733896461912184,8.84
-0.01954852327893688,0.03013551494262964,9.826010848142175,0.017229052400158814,-0.0007723495809914391,-0.003820509741797095,8.85
-0.16011183801510703,0.009321833583787353,9.695198030007727,-0.0023587281766000705,0.005811113924217875,-0.00036683217350681947,8.86
-0.08726081461379732,-0.0854133650506079,9.791253357332062,-0.0030537218120473414,0.014497215928419998,0.000891174666513965,8.870000000000001
-0.09662895864814974,0.025961332084599626,9.723597387111596,-0.004390908740007093,0.004909936803073822,-0.003163031078547663,8.88
0.022851636402803924,-0.0234461786578192,9.894441451758352,-0.016246650950069212,-0.011872152725374136,-0.00513486467335291,8.89
-0.012894149657972864,0.1400007953937399,9.93990128091086,0.009155793326822714,0.01750126700704874,0.01297390312808897,8.9
-0.014838844187734391,-0.03264836135840733,9.677151214534772,0.008623194510854719,0.012795262742312297,-0.007102126893707,8.91
-0.059339434499899514,0.021460902062777468,9.737860467615265,0.01488025341596834,0.008621972833265278,-0.007183643199520948,8.92
0.10357590155095037,0.0792823559269487,9.843806854068955,0.005401436614556567,-0.005237175528760859,-0.004563758082147505,8.93
-0.18708714179631336,-0.0802648297620352,9.879595082137845,-0.012535848790995976,-0.00887855694796402,-0.012674921118008423,8.94
-0.11018888550014992,0.06647715641213157,9.874954283770219,0.02875391092592364,0.0002012817674762492,-0.005909830003732768,8.950000000000001
-0.020480167796997368,-0.31811514761204446,9.885932531884432,-0.0056065515225897115,-0.0035009568232603457,-0.0019551656913579627,8.96
-0.03907774392612117,0.05972031962290436,9.801870127787735,0.010095049999175711,-0.005073327625867402,0.022491077988741545,8.97
-0.1419174589634105,0.07078148372718063,9.933666946494748,0.0194965067562932,-0.015104874956320862,-0.024392909666855624,8.98
0.033392784296446494,-0.13470632281243358,9.72003161407902,0.01905312099736633,-0.0002447264729651586,-0.0005301168929530847,8.99
-0.064559273097224,-0.2458434211582958,9.754953344342756,0.01093000932365371,-0.01407950482368528,0.010952177951143723,9.0
-0.10904332200296157,0.004560660893557533,9.842574613025432,0.006160429230579121,-0.010948294798510665,0.012132374740840134,9.01
0.025649842906243114,-0.02052189312093386,9.798169827286108,-0.001744543072517247,0.008800602976917064,-0.008521314922300925,9.02
0.056403246938481415,0.050773559073216214,9.754909444106742,-0.002124751534033554,-0.005237187052721145,0.0028113560191817743,9.03
0.06924657559894018,0.20456328163121631,9.73568510865409,0.007831981698781106,0.0019181781629994427,0.003991319838337568,9.040000000000001
0.17965172787368933,-0.003464326839324611,9.691555404623847,0.005066695468492381,-0.02269029876589642,-0.010754495124091143,9.05
0.013854782713206552,-0.01821850237393535,10.020869897605571,-0.01855787504370932,-0.010646690306180333,0.011072602392292637,9.06
-0.06777635508859829,-0.10267431379571011,9.843589943637122,0.0029270998383956366,0.0024366650005162634,0.005183014307954581,9.07
-0.06326480459182503,0.010143187517705944,9.908358745785769,-9.5307359700036e-05,-0.009050426186028507,0.0061751404239827135,9.08
-0.04917527276882768,0.13341540662972487,9.787381632288383,0.006682582503507086,-0.009976076597811015,-0.01408701301821207,9.09
0.09528947551040487,-0.030841042738135285,9.917571516296325,-0.0011250796173317777,-0.006163718511772866,-0.004884306340402399,9.1
-0.2047012203391416,0.17591935741502718,9.860209603980735,0.00088224264390562,0.012597582473761818,0.0019332266306745067,9.11
0.13359171763006303,0.0720071989700957,9.852910347348585,-0.00846072699440191,0.002593444983204999,0.0029613856924120153,9.120000000000001
-0.061291494930228965,-0.08408160748528348,9.886675886108636,0.009473374873932015,0.0032016761201031445,-0.00019479359767665653,9.13
-0.03890911929538902,-0.16005899553061814,9.72500097021018,-0.0014200489065065002,-0.0028390634539009136,0.009885945719260616,9.14
-0.09027556338854756,-0.07287183722591434,9.675693406865717,0.006340522771041205,-0.004135485476356327,0.000755213566468475,9.15
0.10656543359817248,-0.04677270341295828,9.59168051159029,-0.011162334059830198,0.017263566679689687,-0.007071600530924134,9.16
