ax,ay,az,gx,gy,gz,timestamp
0.04184695897552581,0.010246446882316854,9.746284527226251,-0.0285038572357891,0.004069272145572017,0.008024035483603179,0.0
-0.04513835899955825,0.07508998689517944,9.86263672314353,-0.0166550938236491,-0.013755115394762272,-0.008568415901034781,0.01
-0.07182460182048678,0.04587197883506551,9.88817636774127,-0.005000243884575475,-0.005847033108702171,-0.020077310261317965,0.02
-0.10908080228929987,-0.11082170335844288,9.805214148591194,0.008088856184805402,0.00024318434724973263,-0.003986242949882171,0.03
0.025090897438418275,-0.2909391370599886,9.808661638217151,0.010818806271228974,-0.004177994284633655,0.005413868688623522,0.04
0.1340320391583643,0.09392344552348778,9.825864403610364,0.003461431160179188,-0.008379266685492144,-0.014615638939006704,0.05
0.19685593429233425,0.009342002736019274,9.916047639533899,0.003656875624084099,-0.0014736513343295522,0.012109634821083674,0.06
-0.009677592605663978,-0.05092892226097863,9.803430553648193,0.005421718625199743,-0.019361422471152436,-0.0003676369909252375,0.07
-0.07826106800179072,-0.13165009660022536,9.664548329245518,0.005226360839940614,0.007518487193325424,0.011055290021517688,0.08
0.08706508876295584,0.0748988756557879,9.816856217425432,0.00011602889791832832,-0.00706336105508788,0.013992666617085352,0.09
-0.024270794658944973,0.056966720885836875,9.69048534079978,0.0019953201206688817,-0.0031823728169597127,0.006443656780659918,0.1
-0.030559520508959326,-0.10363313338945297,9.871844810063825,-0.005318094617629301,-0.014917481129791821,-0.005237681411654087,0.11
-0.1174427118659893,0.059932370685631634,9.900096472533143,0.025294418084400718,-0.01572615420747781,0.012781652635011284,0.12
-0.02953588468052841,0.15700779765572306,9.739369686321497,0.010449795155502475,-0.01022685698517075,-0.01868361899655527,0.13
-0.0029505522953960066,-0.025391556191477288,9.846824616913386,0.0021405867336067312,-0.0009359345195598713,-0.013066827432586232,0.14
5.849289150905956e-05,-0.15223817899817926,9.895023085221386,-0.01542506081593204,-0.0063636484099415525,-0.008479339236821756,0.15
0.05523665000189165,0.047018135142617046,9.778399471924537,-0.003345736232085242,0.004351739958063363,0.013769837566008952,0.16
-0.14631186910681823,-0.13917311818290784,9.809988267884604,0.0008928169160306626,0.0053389852730972385,-0.01229692369186124,0.17
-0.07130398766233095,-0.10241434723045868,9.52518467638891,-0.009063059777564596,-0.012549527817458432,0.018621281446075725,0.18
-0.14566830881519052,-0.0016106626471820732,9.870752677789788,0.008932776537716135,0.009246005539279512,0.015313097829428607,0.19
-0.011683348547792165,-0.03523286339039155,10.038380837720762,-0.013552550919424415,-0.006692446883544271,0.004072595896074635,0.2
0.1386297764139223,-0.06786063883903486,9.696292736220721,-0.02047626160620611,0.009477281647543691,-0.003020800674709125,0.21
-0.058591372413354076,0.08419064940251206,9.988064888909767,0.004728892913657582,0.011796782612990782,0.001726571696791471,0.22
-0.06145782228290421,-0.01841698541996199,9.838270109197026,-0.019326462430144752,-0.011114929072403381,0.0015323472012943908,0.23
-0.12339652911301678,0.018472316968580624,9.936468135244557,0.0048438928644083355,-0.0031645395453775934,0.009726590735824683,0.24
0.12527646451227223,0.21913415914888998,9.736204333047871,-0.016510800955011503,0.01216271141097021,-0.01401366432452414,0.25
0.02450927138029604,-0.030647712057891487,9.995380196708835,0.004037962749916212,-0.017410316808324063,0.006919957920085088,0.26
-0.08288432135316015,0.055582808414197764,9.935069570614587,0.00325602752429433,0.0024324379377375573,0.0005855521718634927,0.27
-0.0005158044653083922,-0.06575204319054039,9.662491952498653,-0.0023904174824748085,0.009756819616720331,-0.0016707422173239978,0.28
-0.07527174573402637,0.03561376984957198,9.933424652553798,0.0020467274619655742,0.007181046444326005,-0.007352105865102856,0.29
-0.06218490504520605,0.1528438169775181,9.789800468627593,0.0026448949507183674,0.0018556113326797148,-0.003393519941546213,0.3
-0.037583925454607495,-0.30557756729999286,9.746155291936319,-0.0069141837658043825,-0.009845887298263162,0.008356893611226943,0.31
-0.04525173024130614,-0.06308113808784314,9.708536549583084,-0.007884457243588614,0.009317772627866028,-0.0006466835107907099,0.32
0.1865306556468359,-0.14261647821678547,9.76040148609412,0.005601994259773451,-0.007135825748444208,0.014453581796872174,0.33
-0.08550446855042489,0.021249860951525142,9.768941342421485,-0.008560768644744823,-0.014734500845992479,0.005671825413615887,0.34
0.2262287965561941,-0.0004256506868281427,9.765268743599734,-0.0018858260241309197,-0.0006831459738619422,0.0017034320529435165,0.35000000000000003
-0.10301183780914883,0.06693034880390421,9.742888547558005,0.002898575895295321,-0.0010643393839654058,-0.028562190191684395,0.36
0.01427639389685223,0.18640873804728908,9.787585315682135,-0.01663553078737973,0.0040163529346457175,0.009445928733097981,0.37
0.056472369967048824,-0.16047139854943598,9.838782019482872,-0.00537489738494405,-0.003184023326483675,0.010730899799511069,0.38
0.17047370107749651,-0.13970220468358183,9.937641085117633,-0.00934913167360805,0.006107055728317137,-0.003071549338477478,0.39
-0.17682615991386144,-0.057679536083789666,9.905383004369405,-0.005345452017666188,-0.003961213863397768,0.01267676784350689,0.4
0.08929601612334258,0.1716765206648872,9.809155210761107,-0.0263234390867412,-0.005858457335822867,0.003183021025534218,0.41000000000000003
0.02561305922853004,-0.12218469433998772,10.024675825204204,-0.003351170273107473,0.0037851541419980732,0.0011910161591909567,0.42
0.004499880993242983,-0.00114395519975993,9.622051304864316,0.0026585911878129077,0.009514692189364543,0.005948723926891273,0.43
0.06282329312787134,0.1616039446913577,9.792071946340048,-0.005651664795603881,-0.007352987726110919,0.019275890996832752,0.44
-0.011714766126816338,0.0009157181759639167,9.694154320709508,0.00890512005989985,-0.020016276043553296,0.010085866489314517,0.45
-0.022898871624488962,-0.03999075389724269,9.826545163925966,0.0028455958020192663,-0.009038955136106004,0.008467663378757229,0.46
-0.0262269379083673,-0.037027734558974366,9.952892083522942,0.0017302703849516805,-0.004099549391903057,0.007425984489646533,0.47000000000000003
-0.09624715320728841,-0.0649266740011241,9.762615884810689,0.008089797388579624,-0.004074709002379276,-0.004654987704459867,0.48
0.025318691472155215,-0.2239311784314284,9.8185091030278,0.008109782197710904,0.011012516555248654,-0.004283073300336997,0.49
-0.017205569039419142,0.10485157374946981,9.884986481223113,0.0035098044066482026,0.0006882813303833302,0.02025762558478081,0.5
-0.0962079765732623,0.12141465763408213,9.811445357915556,-0.014819107682207984,0.0013394659230950123,0.001572239294158053,0.51
0.04832957933250697,0.1765938238961564,9.697535572918083,-0.002577832642448394,0.005737244810906739,0.009906467893055963,0.52
0.1575104389097307,0.018600017317627185,9.933058540429972,0.0037392258980208084,-0.00871010595774324,0.008816437267897449,0.53
0.050054772899614845,0.01441669526684597,9.794086154129078,-0.005007489961481443,0.010184689617733823,-0.038490543471017706,0.54
0.03194680472473601,-0.09455438953521056,9.875377574726866,0.0017684276841023051,-0.0032433726855649984,-0.012052331077453331,0.55
-0.0692735279635719,-0.025314108888802617,9.769972255854215,-0.004505721667678409,0.014080412610244395,0.0017375666922318771,0.56
-0.17665268454682712,0.06703945163229529,9.532572370692742,-0.025699941828643692,0.0005602090978714194,-0.00463543657292567,0.5700000000000001
-0.05659958641906341,0.16072358589215352,9.729178001629434,0.01281775877894179,-0.015303196227971239,-0.0020461697602949767,0.58
0.23346434544784228,-0.02995716829679841,9.650701516020362,0.001531083570018613,-0.006446447353222323,0.019761585862253274,0.59
0.04256299732951028,-0.11833108949528,9.650888119618063,-0.00558893705094194,-0.0047196784551834835,-0.0176253536483404,0.6
0.04206782610575065,0.017433575102055062,9.970132196940108,0.010964549272541034,-0.014106786718253422,-0.01651177773765829,0.61
-0.17081297579315644,0.1597329979940878,9.702218587291894,0.011824873424296625,0.020641743953353452,-0.007303128701402423,0.62
0.006488690709061203,0.30730630184799035,9.832893033930047,0.008374899848290361,-0.004863641309992845,-0.0032765183621126497,0.63
-0.07520422846331999,-0.05778174757514307,9.769696079430663,0.024208909129725592,0.0056181130555663615,0.017535071720730246,0.64
-0.02363558659733648,0.086690335161061,9.811553855713806,0.0057248706730971734,-0.00927251390300942,-0.016546421716563328,0.65
-0.035736128042727314,0.002365329649305811,9.753765825086685,0.009048050835652199,-0.01309127061822354,0.004155258450429636,0.66
0.07786312683230157,0.06288644480577754,9.788763452687927,-0.00030147598253053636,0.014392423025410765,0.0203939150705673,0.67
-0.04333661524368007,0.09206238694525823,9.811280052947241,0.00839242390621084,-0.0064615650963948815,-0.006332091799598336,0.68
-0.02758242575971879,0.04512820068868528,9.876138561265092,0.00538735552556478,-0.009987806119252143,0.02225257185347315,0.6900000000000001
0.000804540356598721,-0.006174954985144906,9.683253160381964,0.0040475291342522,0.004121130743146091,0.00937631202419662,0.7000000000000001
-0.19443707283821515,-0.1674136120509145,9.85616023689313,0.028533170908987653,0.004381468752242488,0.02224520411490057,0.71
0.029092740094372127,0.11377646745537673,9.729324197687458,0.013670579075180057,0.009913231421998318,0.0022180690494935733,0.72
-0.06149911589324909,0.19589734483621027,9.657767825475375,-0.0017477338604980814,-0.006614372274904779,0.005527509670828974,0.73
0.012226411003887667,-0.03102918538098967,9.88418333907438,0.018057005825721312,-0.005869866903779876,-0.007973275286647794,0.74
-0.25031380004340115,-0.09627128214501479,9.571096868236058,0.012487047620702891,-0.0029380725545361977,-0.019227484052259634,0.75
0.06895933509917557,-0.04077571829363642,9.776231849140524,-0.01101484228999003,0.008881703261973945,-0.018414221852292696,0.76
0.035493338679740485,0.07794118591825196,9.846459518182403,-0.014315404112704606,0.008378252614295995,-0.004172195017160239,0.77
0.1431849999470167,-0.1801653945029512,9.843433441917572,0.020598464142121815,0.019000111635569143,0.009769107392687798,0.78
-0.0005460832935412674,0.024720472815202323,9.837807076036011,-0.012739138005029928,0.010387859168278531,0.007954826436590252,0.79
0.13609188168700154,0.022892072109647565,9.754628341903617,0.013904682922989598,-0.014719031719279428,-0.01677148302712966,0.8
0.04897063713782718,0.030314411689368367,9.669635022331992,-0.007284218243342593,-0.0026610626404302462,-0.011957967999738223,0.81
0.013255022477420593,0.011687354779688592,9.76859340173182,0.010978873468357768,0.0038443270539182213,-0.0052753890558380045,0.8200000000000001
-0.029808909779523846,-0.0006931525320656135,9.807227453569963,0.008407927452347448,-0.003943579910369518,-0.01199231563478605,0.8300000000000001
0.032464277438800794,-0.19144861183001444,9.767848778633681,-0.00457647869346505,0.008237773145419375,0.005731292103217412,0.84
-0.04215902306042741,-0.2524310140233057,10.001276352379813,0.0027693932230969326,-0.01694143129418755,-0.0038475382683231065,0.85
-0.2235706495185797,0.03561769159246168,9.724548874693323,0.012184731549044184,0.020402057520837985,0.0036121359659293567,0.86
-0.13730557697165227,-0.06107936296076582,9.873489770029519,0.0004028254521346937,-0.008221590902375824,0.010243384204824776,0.87
0.06581336819206972,-0.04986477794167908,9.783052308029394,0.009505363630321178,-0.006605996091479644,0.0022289195512161237,0.88
-0.04052467242752049,-0.07634733237490358,9.83747000231062,-0.02172825805405961,0.02741436528658285,-0.0005450765646032402,0.89
-0.041653083907234545,0.171858088898583,9.883136195873087,-0.0005114559246492545,0.0054412577288762325,-0.005330446805064586,0.9
0.03727401026270175,-0.07808235339048931,9.94398461747664,0.012902990541299945,-0.015919753433567083,-0.014033397764705491,0.91
0.07790805311816767,-0.10668791294090543,9.742667443706718,-0.004561561493074929,-0.019849715052643338,-0.003925091757318861,0.92
-0.004171289018379032,0.06548862044175653,9.999401003317006,0.0032307608086839515,-0.0006585125291538667,0.007930977159658448,0.93
-0.16920935482849692,0.09776704445486378,9.945759981389422,-0.0007226651179222874,0.0022489430758158837,-0.013730397190324284,0.9400000000000001
-0.004061200162256211,0.005699995682030813,9.664116929390902,-0.010222635122105908,-0.0019721473984310478,-0.0014986082617478183,0.9500000000000001
5.561865771926606e-05,-0.05492845915021605,9.834900998227326,0.013875297999352883,-0.00612969878749428,0.010402633929983486,0.96
0.03634411517687052,-0.17105554014866217,9.877553132720719,-0.0032905114036540163,0.005443272344107272,0.006395863487959904,0.97
0.14189573371880318,0.02603112370457113,9.828775655744337,0.01675407965981338,-0.014563937281129478,-0.012362570373856137,0.98
-0.19008771536454588,-0.07268357711303366,9.72661968765241,3.024074710067431e-05,-0.004012300973137575,0.004745915264517751,0.99
0.05934800978228533,0.19189096531953126,9.932498169597775,-0.0013374977927322217,-0.009526041061413248,-0.0016539158216491486,1.0
-0.07514153727794239,0.07001892914123345,9.968681010749403,-0.005616795460905715,0.012552495459167534,-0.011798943913627775,1.01
0.1048618226913193,-0.020073349346397196,9.903027227153311,0.0015599444514137703,0.00018581305482434055,-0.004915909584411159,1.02
0.054753812904948455,0.08672334709261426,9.818945186878116,-0.0037413347960615303,0.0008845042520831061,0.0015649403206200385,1.03
0.13470881835695925,-0.02383055072515851,9.82389478233792,0.017682474300736252,-0.005121450789485602,-0.01834675362356928,1.04
0.09271391580943694,-0.050782329155546785,9.692165557143419,0.0038451509211936677,0.008382493909851567,0.0037364068702430875,1.05
0.03909026422329825,-0.07692255692858546,9.917232347130858,-0.003129019334043046,-0.0063767073420076086,-0.003520734537651044,1.06
0.11045125501559366,0.003981157222832802,9.816101868798974,-0.004851343710288759,-0.005297222925300283,-0.004546730439912958,1.07
-0.06971616253782154,-0.012636504763959819,9.701333349797583,0.004124776008206709,-0.0008967072527602077,0.012271180012590827,1.08
-0.017153714282201773,-0.08076430066776429,9.962663164250463,-0.000523707601203451,0.010217833185726168,-0.0045089086894360714,1.09
0.08154174110341807,-0.0873766793812167,9.80913925753223,-0.014282731309682778,0.006652192289015956,0.012561254340217822,1.1
-0.04261193190623206,0.25579032954381303,9.785843737031863,0.005638376428000766,-0.005411470806796624,0.01912595161683714,1.11
-0.0346886708716339,0.1912268287609411,9.765586776049034,0.0006996281127992052,0.00669105375249276,0.0018929636943758482,1.12
0.12165609023190356,-0.030345733240567038,9.89898102116426,-0.007211159656163766,-0.011285542004916327,-0.00786305015772573,1.1300000000000001
0.039135993948367774,0.04843752044054064,9.759590069104386,-0.006696149541547661,0.01180144038550401,-0.005329588300841315,1.1400000000000001
0.1693698838787553,0.019870255504977938,9.783023666500762,0.014475152772897456,0.028257671164937066,0.00823767078637886,1.1500000000000001
0.060798359939664814,0.10461195873206888,9.891297750926503,0.01948579649400202,0.0059305357106357245,0.005938928311243794,1.16
-0.05060957309775602,0.014194785643824013,9.935070774993205,-0.016361691872592767,0.0031743997975729106,-0.0033627744349199267,1.17
-0.05877876561444047,0.15305633222192905,9.787060178987149,-0.004492650252284589,-0.017151560585373822,0.012051835720567061,1.18
0.08105556787414792,-0.020434463120919663,9.806796781706344,0.018228664650315647,0.010220645465327582,0.005638514857405566,1.19
0.057321764755664834,0.037990272767819355,9.80942087850851,-0.007833132744720145,-0.00819613909318918,-0.0023444951423569568,1.2
-0.15820778872460844,0.04170865975641592,9.939084757097122,-0.011635735473872581,-5.1425298167298926e-05,-0.009680838078375732,1.21
-0.03204651852530841,0.06055998355693914,9.752828378525262,-0.014160596361673262,-0.009487467041705864,0.005008839377515555,1.22
-0.11296955694507921,0.009018116253817664,9.732051500535528,0.0038128949355836993,-0.0026260322692484616,0.016049687613105122,1.23
-0.11044414202531248,0.10268606410697356,9.725342862260138,-0.002029631077994211,-0.005990751895119162,0.0010018937441415108,1.24
-0.03327115732415661,-0.020125407689285623,9.720497575415237,-0.002191189533159174,0.008199111314356997,0.005567410570098237,1.25
-0.09415095723880669,-0.07854114771057787,9.732732379029201,-0.012484467098922116,-0.006622918061272093,-0.011413200634396322,1.26
-0.13078666685070528,-0.0028574857164528782,9.749536950052676,0.004507747763517792,-0.003795822219522006,0.0006571639566063618,1.27
0.08673851080652542,0.03717270845838568,9.805657874435616,-0.015997506946156786,-0.008887729470806207,-0.01626502938172796,1.28
-0.04754087117786223,0.016656644707972696,9.920791799477328,0.004276088026318255,-0.002486045893158963,0.007359080826039385,1.29
-0.0655640653632636,-0.11138722814639708,10.101712486885306,-0.002044999287163776,0.008193169454079116,0.010383607724813235,1.3
0.1490573805410296,0.02297468026560709,9.843908420251328,-0.00752932079329735,-0.012166116634332192,0.018675897287644964,1.31
-0.14752273846875338,0.07840929862703441,9.708951785279819,0.003726156869175832,-0.009513267698105616,0.0027476841213543352,1.32
-0.053738597656098785,0.006301707169799953,9.850765724503436,0.006430699681663007,-0.0032564923853946725,-0.013163935607738628,1.33
0.09211231140794832,-0.03262749687193275,9.763862594204612,0.00031483152087591907,-0.0007420667803164876,-0.002115419781828242,1.34
-0.0903562695839527,0.07190255999920453,9.812767746177908,-0.015305309805746735,0.003767477010458225,-0.005461582356566407,1.35
0.12308020305300678,0.016070406012547733,9.590913002895565,0.005476515276301281,-0.005733026047860597,-0.003372703759283316,1.36
0.025990706438544273,-0.07129000869841966,9.808269300426105,-0.0015608396287570291,-0.008264466998632475,0.01686564315855868,1.37
0.03502708155362757,-0.10257995850523981,9.83645366989966,0.0012451337528567828,-0.00939972774230167,-0.0029667278429165826,1.3800000000000001
0.12624798088770503,-0.04278678071681688,9.906204819770187,0.004783577543013075,0.0011426574720249684,0.011814259035817223,1.3900000000000001
-0.17845959394868963,0.02874856215251419,9.900804970100861,-0.004474993268882277,-0.021247018005829888,-0.00478155669014079,1.4000000000000001
0.03649172783392138,-0.03863913157050849,9.75747177962397,-0.0027182364115575165,-0.001892842539897695,-0.004132154825608052,1.41
0.17220861139199725,-0.12315185176742385,9.797662203864247,0.0044894825761464755,0.0031263339215317036,-0.005197198555785781,1.42
0.0908346136373473,0.02986253413408793,9.672189522123448,0.009968267476101512,-0.011334871657173933,0.007975569458752056,1.43
-0.011613979793943508,-0.027105131226199366,9.887232141317341,-0.0033308386215395187,-0.0022178406727437795,-0.0006007550140734147,1.44
-0.08512046803478235,0.183698256826399,9.747486740945998,-0.009568014037103521,0.01525274771580578,0.008444522967199535,1.45
-0.14229689272683824,0.0006439331806184814,9.760457767889763,0.0002950323671540643,-0.004673639398578484,0.016184226955649306,1.46
-0.1909860140800312,0.05585179956467391,9.929492285172406,0.010677969644894215,0.0010810600543295378,0.0016594541241360932,1.47
0.007186020881309631,-0.12998907167037974,9.781380148012952,-0.003896315557576472,-0.025700854786054658,0.006254850961530412,1.48
-0.03701002477184819,-0.01092656273517708,9.770533503646485,-0.007309418275884164,0.008422394600576784,-0.006835956036093926,1.49
0.11217615102978357,-0.02359590931204646,9.703099608545251,-0.00801728868949508,0.004321240510339081,-0.004943383071329925,1.5
0.0794235003366275,0.10736937062583388,9.777235653097303,0.00886723041693495,0.0035016093280164492,-0.009760134865585723,1.51
0.07674384630603266,-0.11435729126123846,9.566040981761253,0.004381694492201272,0.014089749242960636,-0.008819660891287957,1.52
0.021645097372075622,-0.01262413005710044,9.884638499077191,-0.0007700725815795087,-0.01042873786120316,-0.004889014607643149,1.53
-0.05104604248534631,-0.015060810663018308,10.009197990706436,0.002877609411556213,0.005576400063810589,-0.0018491256401325388,1.54
-0.1179724411930331,-0.024107321033771563,9.82929060220332,-0.00903128335649941,0.0034056865375732817,-0.002768252979069267,1.55
0.08714252037514619,-0.02101099776689679,9.7492042027829,0.007911691225256708,-0.004840570577983196,0.007968175139566417,1.56
0.008402567443187415,-0.022398302837564204,9.764718562639452,0.0031105930381929952,0.0169962902682903,-0.013291096569226493,1.57
-0.11893479057487229,-0.10966927548303346,9.702614349749176,-0.012186835926369271,-0.001989881839541122,0.006306653072356561,1.58
-0.003738812383509758,0.07520721250707957,9.893893916430363,-0.0025461311612813417,-0.00036908556889214943,-0.004633996221996791,1.59
-0.22964079323178718,-0.08184080191289804,9.893816452374343,0.016272324443703134,-0.004890896410217269,6.825165418245538e-05,1.6
0.13621390531335203,-0.05515780732501453,9.98404406232623,-0.005322655736565754,0.004509086445964864,0.00881990500256614,1.61
-0.11519243998657902,0.17507782580792197,9.744990406739534,0.011231941984707531,0.007581958324678735,0.00873519715264352,1.62
-0.0503102720044806,0.19149883734069909,9.84272225663829,-0.000802102234256153,0.0034944639763046757,0.01236875168322205,1.6300000000000001
-0.21085894760305457,-0.039567476999871815,9.733527996438479,-0.00849853210232075,-0.002962408997097563,-0.005115831514395911,1.6400000000000001
-0.033163234811803714,-0.12091538465484437,9.609101201218042,-0.012401641480782549,-0.0015101590059882226,0.01783109046035939,1.6500000000000001
-0.07579027392426135,0.010853676643766456,9.604918475942132,0.002659883269293567,0.014082904785574009,0.014378366525235867,1.6600000000000001
-0.023007419087920054,0.0050166676373234916,9.62996638800487,-0.005751682104593227,-0.009186598622673103,-0.006793520895445755,1.67
-0.09828093146649831,0.17686150911337864,9.745023410940393,0.013055837238261661,-0.0142697269720262,-0.0120429101661064,1.68
-0.12599642269801456,0.15507229571991668,9.949217973887642,0.004892886175605846,-0.0007051888919791181,0.002874201257826337,1.69
-0.12512343699714581,0.049847555938670046,9.855519371067123,0.0059002428698769795,-0.0072245391668692704,0.0014197034290595076,1.7
-0.07579500704398084,0.0826731043174121,9.893120698846726,0.0024906452940034636,-0.005025112021029989,0.006691685606253216,1.71
0.04221946596950875,-0.11432234984272885,9.8581504738024,-0.01475465491696177,-0.009846355408541787,-0.008340878188605315,1.72
0.012877376704619182,-0.08834663275425493,9.609651592767694,-0.01293604353519526,0.0007603771016974546,-0.0024739724964671136,1.73
-0.16367689140277275,-0.0029739170075783693,9.789798770477145,0.005146334946299275,0.01392228429965741,0.004917707621875668,1.74
0.0924702539061555,0.030892450853467153,9.917772208123935,-0.0017448394011828218,-0.01382898660336683,0.009089649917268116,1.75
-0.08875866007178881,-0.006441504698333241,9.82114925511274,0.013319954942619347,-0.02123683919170679,-0.005121750569571037,1.76
-0.054596720276167944,0.07026446104177142,9.754119878536049,-0.007427554757890392,0.01682288755379724,0.0012611383033531956,1.77
0.03231095727732563,-0.07507151663243859,9.918288547036015,0.010318537272508818,0.00695041759194452,-0.014803709968572384,1.78
0.0598619861618791,0.15214589381991458,9.854783733481195,0.0011658942700176484,0.01961741083080971,0.012936036663055945,1.79
-0.09618955925818327,-0.013994349604375704,9.882909614947854,0.011034065201531367,-0.011214919407800814,0.00135755545346094,1.8
-0.28949160915227984,-0.0678411415313561,9.709904564154414,0.0065763394322244815,-0.006192760374080147,-0.011592971503373248,1.81
0.029787276233573606,-0.04708656598582936,9.874033414139259,-0.0018747733230839046,-0.011784130477201457,0.01817285438960772,1.82
0.06702621013658083,0.05762871201807527,9.769357376453765,-0.002620254243312563,-0.005720265472449313,0.004602231643871037,1.83
-0.1582054590581799,0.009799096952651543,9.644389300773376,0.008298286621222225,-0.007659532064205716,0.0013515726080230012,1.84
-0.13234683478300785,-0.07457329889273598,9.962543269643655,0.013777634957656978,0.009869711753837232,0.008691254401285722,1.85
0.0586185084395193,0.0955809459969228,9.584287755484807,0.009598483889239342,-0.0029718117573872007,-0.016428358612480053,1.86
-0.1555382167854371,-0.16014728644898685,9.896658314050077,-0.006646422970291159,0.01055746540905532,-0.012346526871724812,1.87
0.12959038584024507,-0.07993253936786168,9.835829017967766,0.001691079027667635,-0.0001837471387935126,-0.008843151335325145,1.8800000000000001
0.07669830454472919,-0.06526090817545747,9.959835930194618,0.004216598759382323,-0.0018366247271691717,0.015439316984357288,1.8900000000000001
0.010658548135438126,0.032101671144216505,9.781626390051448,0.0098856154234877,-0.003551260213625492,0.007224983166463279,1.9000000000000001
-0.05005331669369278,0.05424783692314138,9.766626266003685,0.0007020816306178012,0.005530011015983549,-0.0107061056259891,1.9100000000000001
-0.07448814182463806,0.15531747087375272,9.94893388356514,0.010946513813109049,0.005093698082625569,0.00270756283693297,1.92
-0.0443679255688696,-0.02428575730946776,9.644534218109492,-0.0005525348604343947,0.004526739874219915,0.019961966573809577,1.93
0.08240546128887213,0.08488933416248584,9.823869436486689,0.0008465995255859634,-0.010294442330499413,0.0008219366556142338,1.94
0.14362259960098908,0.035147405465175426,9.699215193258064,-0.001453130166044281,0.015074588631370199,0.02332771912819477,1.95
-0.03271855304101501,0.005279996058532549,9.785907224791726,0.019401364337109723,-0.004485533102040294,-0.007920864162399396,1.96
0.0286181390254321,-0.050921173827461676,9.698132122535826,-0.002359308311990429,-0.009885107123125538,0.0067154406103359125,1.97
0.2081796093193769,-0.11862727514471139,9.778649663748615,0.00031938085831150826,-0.005606973004722945,0.0068226633682869995,1.98
-0.1165005508475928,0.04861220003191126,9.900476436236705,0.024563261059700203,0.000503700065949955,-0.010980318000916353,1.99
0.0068002372229313685,-0.040798394770477406,9.879541855569894,-0.012548404852669164,-0.021554958343870383,0.01202729350802638,2.0
0.04892802853812053,-0.037530787713628354,9.753063888035589,0.0023813708373209654,0.0003502326719308061,0.0037080058538740343,2.0100000000000002
-0.08431329343322394,0.021697548523446616,9.787130940365483,0.01746298807227524,0.0033869559626196833,-0.0029653897102703613,2.02
-0.03144746933967868,-0.020390570924724533,9.942422720562144,-0.014080609743561116,0.009122816332930635,-0.005420915893445422,2.0300000000000002
-0.07719827905963236,0.09059938474981657,9.82636808379691,-0.014410619848695419,-0.013301225960389847,-0.02172743995908693,2.04
-0.04100486782314293,0.02641327985040951,9.91929057647895,0.0029626641411101156,-0.008840781073222207,0.003530924771580619,2.05
0.057798964856799466,0.23735197946489306,9.777487659864095,0.006524974404069557,0.00536147103792714,0.007519044901521411,2.06
0.08014033137514302,0.052785568346117806,9.862162463815512,-0.010200270302811834,-0.01280861784423887,0.005262066218549481,2.07
0.0878850006392249,0.11902221648777112,10.051070557167524,-0.009753194568683824,-0.012207325344942834,0.004928177616397188,2.08
-0.011645333293651836,-0.11380855768044705,9.765526843023705,-0.004450438922616078,0.011692314208742513,0.0011068548643175886,2.09
-0.1310636287262892,0.09688860310863823,9.917404336416611,0.008113835713096247,0.007979702082714117,0.005320463472904423,2.1
0.0815946940591874,-0.1866699953452784,9.775247107487596,-0.019909417094129883,-0.007166688209466695,0.013968188992443618,2.11
0.08584536519915166,-0.033036424272452763,9.829868939792162,-0.006862287109246954,-0.0009854289193581528,-0.009469011054817242,2.12
0.12542273943757148,0.18373641070015845,9.889264234830025,0.001025922034926437,-0.005822068341544442,0.022293198926068642,2.13
-0.058619237301703486,0.1452649755844877,9.886771144363221,0.00746694638825828,0.003232322335666224,-0.011496495346426844,2.14
-0.18952145921204633,-0.0012058560224769222,9.800966762520234,-0.000640223903797221,0.010063856487951314,0.01928343384612507,2.15
0.03119164704794193,0.04086613149684992,9.762807756364023,0.023511049586086616,0.00948025128129314,-0.012760383371038573,2.16
0.12223754471051454,0.08664964658092585,9.836554817684574,0.007565411031134205,-0.0191738701586816,-0.010490892624701684,2.17
-0.053979458486106094,-0.026203318545096718,9.688032530100845,-0.0026703595802007977,0.0011735329208247356,0.011830866321684468,2.18
0.05693304343586978,0.07584465529032915,9.88582826260873,0.020443614173191325,0.012677063668117376,-0.03346355100796398,2.19
0.1470236570051758,-0.1294488383810491,9.891629371997979,-0.00587447786115872,-0.009569083242132837,0.0030992771091867197,2.2
-0.03999861725612022,-0.04075245981797493,9.643931465846688,-0.005673119758230974,0.013402459214851592,-0.003968034823450518,2.21
0.14111341276910971,0.0001186677445866771,9.645840830105477,-0.008158921735562206,-0.0075990549625589736,0.00345098812688571,2.22
-0.02650751384716454,0.018911750145092082,9.795340766933856,-0.03188029940245946,-0.005761631688528834,0.004921372408893779,2.23
-0.17275406051890446,-0.19693758458607752,9.730320811431586,0.009427293013840352,0.005909843642187833,0.016402018164796802,2.24
-0.12667983074570696,-0.16665435037097426,9.859809421321728,0.01447271421039212,0.012115069339431375,0.003731918235235861,2.25
0.009297598571283898,-0.08199405020445588,9.689083888015983,0.015919520256529957,0.002226389058444164,-0.000558370845005672,2.2600000000000002
-0.04684372948890442,-0.031945051766747716,9.905803020784354,-0.01978016815428203,-0.0113823969047289,-0.005239775036268597,2.27
0.0927163186193013,0.11129363221021703,9.703640555047038,0.009048584935935185,-0.0027590020864326392,-0.0054837347288534,2.2800000000000002
-0.016940049630300835,0.04304011632063725,9.892733344315387,-0.007243589567956878,-0.017798620979144857,0.004512827559439317,2.29
-0.1164228276700555,0.043905791680412254,9.908507951464312,0.004684056411763273,0.006446441179879133,-0.0016759941433740725,2.3000000000000003
-0.11695452151345782,-0.05250726675272532,9.724366091466562,-0.001792869726480249,-0.0008843954305992697,-0.0012571365354489697,2.31
0.039733702163598,-0.01759297145660315,9.7301479439696,-0.007461708894558529,3.5546418934756136e-05,0.0012364156934794287,2.32
0.046627321796305646,-0.07613248931149036,9.77516351798444,0.013682701820261196,-0.001966747612602348,-0.014217330185583372,2.33
-0.01851449258817484,-0.058789005144654044,9.90870872696953,0.005746889133747933,0.0063112581071621335,-0.026912616351608874,2.34
0.0837305233704311,0.03911183570088764,9.882482512865927,-0.005142595092112834,0.009194823204885553,-0.0005414501382508392,2.35
0.06242155803724319,0.17882495791442976,9.890504818177073,-0.017642522980080257,0.00033088482409714695,0.01768845956916691,2.36
-0.05789223837426837,-0.014527568166496233,9.880662005108704,-0.0015216494579075649,0.0005213858928791774,0.00601859050613513,2.37
-0.05405147346636285,-0.0062096598731477244,9.696785652907034,-0.023198536520393463,0.008865719155230845,-0.007838677051216427,2.38
-0.29138936971178314,-0.10245746734711952,9.93959206650955,0.0016915482556429677,0.018978071757181567,0.012411395751597526,2.39
0.06869469582881825,-0.030513844908370474,10.040504593832711,0.004889260296769064,-0.00519132479463221,-0.0016159221127330045,2.4
0.05911461590935679,-0.0573215011728617,9.858282944368371,-0.008518396727652597,-0.022846508740692936,-0.015453888098233901,2.41
0.08839374261503963,0.004132090565212326,9.714824679167647,0.0006013030601252114,-0.0027840598476854364,-0.023058613796163595,2.42
0.017968592550363646,-0.06731109208372198,9.766342618886613,0.01019685450279765,0.012362752634864235,-0.0020526717840258384,2.43
0.08309742478423843,-0.03343230138038974,9.765036305692718,-0.01260861136276456,-0.003159682352894284,0.00553105421486828,2.44
0.07165195670113068,-0.030780240169238828,9.694280186164438,0.005960665080997794,-0.0013002060349832107,0.005477695484126135,2.45
-0.033579267736297,0.03618453184774331,9.685747356174325,0.013148108906506225,0.002901876611153526,-0.004761504038380053,2.46
-0.10396828852579497,-0.10107138687024264,9.705998135394852,0.0030140931098298976,0.006967343957347002,-0.007756589637035887,2.47
-0.0010555085902927053,-0.1332587473092379,9.880323008815354,0.017516773337201336,0.00025167465920638687,0.003942266557395821,2.48
0.01952009815157035,0.06862834322995963,9.842815328459567,-0.001628096272742956,-0.002306120295395866,0.010136588250300834,2.49
-0.007065357804108702,0.049094180090667544,9.924461161205194,0.005204761816764031,-0.00335262279938272,-0.02110286643800682,2.5
-0.06076604609291872,0.13744517133944095,9.880122883686463,0.007787374908343173,0.00788547978786308,-0.0029732017859810766,2.5100000000000002
0.04835152530490439,-0.07033136112907372,9.794157550781927,0.0066338246415362625,-0.010207237634921533,-0.0010134267783289063,2.52
-0.15388275039703317,0.03708715859001561,9.73854336574688,-0.0029768862818821715,-0.003070115674982599,0.015287369053830146,2.5300000000000002
0.2082687285646269,-0.05572950196024327,9.791393863309962,0.010798381626394815,-0.0008586988023062911,0.012072016352851685,2.54
-0.014056125990026308,-0.023749606446651902,9.83773677178627,0.004459714794324376,-0.005841145925097836,-0.006357870844846373,2.5500000000000003
-0.030131474835739604,-0.0671527661998816,10.001728209513999,-0.007164773555331553,-0.005181109214479811,0.016575044812911652,2.56
0.05980593807749023,0.01664462178300889,9.810753602771765,0.002299898468513248,0.006204689980315323,0.02491707764349067,2.57
0.10683841471874436,-0.0078322529937345,9.784506770456082,-0.01950186990468756,-0.004441826243798155,-0.012812695143771067,2.58
-0.11062542424220925,-0.008901279139531577,9.88718303127091,-0.00257675219529162,0.002664271901648695,0.013894181549656184,2.59
0.06533788245709658,-0.1446077403832328,9.72895843235081,0.0006873005597536106,-0.0019265407991671086,-0.0009034058572530674,2.6
-0.009143993663731606,0.12805860396655286,9.81790102540125,0.012245701181857702,0.0026659368477113055,-0.022204867591309397,2.61
-0.033107645754413266,-0.08809098816439259,9.775048775786235,-0.004554158529466679,-0.007379900447766166,-0.0013443884154805692,2.62
-0.06222300879406306,-0.03434851017583878,9.940096520400648,0.005153338191592855,-0.009812583526865105,0.016664347662190066,2.63
0.08397698695901643,0.03406755648166221,9.706952974840664,0.014614228219656892,-0.006822883966781508,0.029895188894435428,2.64
-0.2106915224883161,-0.06275878000724329,9.867422771107144,0.0021434811721002,-0.0011179038398470046,0.006920419206856966,2.65
0.029788737217864864,0.02728669368541188,9.909265611840295,-0.007951039970506498,0.010129564771449861,0.0024637251143146003,2.66
0.16338849505090677,-0.017954995154052116,9.83193558026644,0.005783862302059516,-0.0029644578900273047,-0.018302953328189236,2.67
-0.2566425581698632,-0.0038645483221643228,9.71093696910519,-0.001994800210800985,0.005251625199991262,0.0016559690642321196,2.68
-0.07490641307493527,0.07708906229239866,9.748211040718198,0.0035523205876470568,-0.009974695145087746,0.004191869004396573,2.69
0.17598779436691944,-1.0985904423850767e-05,9.912224614360602,-9.974117643666604e-05,-0.009033517482965409,-0.0029479976278349025,2.7
0.09143321820525285,0.027016324522588883,9.82197112043009,0.017769105030578283,0.0008199266595336196,0.006645722985200557,2.71
0.14117384546883094,-0.09706576598354404,9.783183463138009,-0.0024705381673426605,0.025280272884219485,0.013388365028979816,2.72
-0.18872454666359922,0.010938318765802433,9.750727319057349,-0.013666397654042584,-0.004376261887304953,0.001997833749944773,2.73
0.025006319495113772,-0.23029671893555514,9.724674117236757,-0.0009497146478105748,-0.00454093141875004,-0.008576092670619824,2.74
-0.18128756358077405,-0.021441738476436597,9.667337889856014,0.007873852109448132,-0.007191614508722643,0.016610236310039016,2.75
0.045983841271594154,-0.06541504339269849,9.800389754074871,-0.006066652439331078,0.005776192350992674,0.007189500030563294,2.7600000000000002
0.12224524902753023,-0.07640680646340686,9.9261352262611,-0.00748837562905298,-0.009661138207753262,-0.00027925105467661957,2.77
-0.10815843269206918,0.02670026297880538,9.93819383273015,-0.0011150114840680783,-0.0083366104774241,0.002871848942895496,2.7800000000000002
-0.20998900913244534,0.011407795927783175,9.75765810815061,0.001983434642863485,0.0024067959774160433,-0.007248017639770152,2.79
0.053838412188537355,0.07649936135125322,9.832101816972274,0.006676154624562067,0.008453406611940101,-0.0024172059211204516,2.8000000000000003
0.11689254292257817,0.13678258098818866,9.914765365042234,-0.004060292709173376,-0.008815472575102493,-0.010694777783655398,2.81
-0.02590873745870762,0.004441397996175551,9.90073158583032,0.02702742957222627,-0.013281376423161071,0.0009464197154463841,2.82
0.07285124756466459,0.004227104394976418,9.796011524682239,0.00019353187520554832,-0.008358103063696665,0.007124711022080342,2.83
-0.024471634072744903,0.021036412668582194,9.683571520392695,0.01187787537889802,-0.004181808016396426,-0.0025961646864225522,2.84
0.0729645615203467,-0.03013200590685879,9.798474538594569,0.00440980680624881,0.00429233542051123,-0.010695273154126718,2.85
0.023925500947319128,0.060673988663339395,9.894698388090855,0.01290367860368804,-0.0072851243121166125,-0.008661313976977622,2.86
0.06816978127773397,-0.007850399871826657,9.88115950499245,0.004360575138133906,0.014582937180689978,0.00938699006843771,2.87
-0.15681670065301503,-0.09327313258312574,9.827213979650521,0.014447869521897236,-0.0014621679009862876,-0.002512123287374965,2.88
-0.2522220674879471,-0.048004404776416924,9.954364676934656,0.010879921338293963,-0.0022832004052022454,0.002646853403563614,2.89
-0.00142758702711108,0.034295541136456734,9.830626647818331,-0.0012463594035896748,0.012651205119115869,0.006407355377026789,2.9
0.06620088916817395,-0.006664256782534642,9.775092076312701,-0.0037254918625477126,0.003468892320842405,-0.0014945714602017496,2.91
-0.12874536340794393,-0.04840903775058571,9.814412791408888,0.0010126969854445287,0.006506115691597184,0.0011925279283811765,2.92
-0.12218423516336435,0.017009072064149484,9.894596029880868,0.0003191605902071878,0.003507322320129376,0.0056579603220400215,2.93
-0.07941264334977706,-0.06342697063667557,9.831926752826645,-0.005660852298368343,0.0058120156199869925,0.013047013262266252,2.94
-0.0793113801743707,0.20993793141790618,10.122534817609496,-0.004330743833576753,0.01488915833719154,0.008288352509945793,2.95
-0.15902725647265684,-0.11638954067309815,9.742791678835463,-0.010875099196285452,0.011556982113182575,-0.00042035725461630764,2.96
-0.030352741408610457,0.10784392502908657,9.86703637472211,-0.009520815756184818,0.015787589620288908,0.008127640240605298,2.97
-0.0065369264468869565,-0.016590985519552855,9.902560903781744,-0.008394007473045178,-0.0024235844944648357,-0.009910577464466616,2.98
-0.11533259535642926,0.006892001094872581,9.854537722417202,0.002348752939333818,0.004175463080651035,0.0012352675474525264,2.99
0.12274111473217897,-0.049557891080251104,9.759650721814966,-0.005543928682885515,-0.004221116544652969,0.0067878700069028295,3.0
-0.047070868830991965,0.023006582274756077,10.00072681594991,0.002706918803866791,0.0023868024457830133,-0.012633603232576947,3.0100000000000002
0.11303959605360703,0.00710442355779678,9.623336627558855,0.010565050768046556,-0.008473810830653088,0.01299037636972109,3.02
-0.11677549230844371,0.013581574714779904,9.807717872987656,0.0016409933993118688,-0.014561838756275028,-0.009307787349710276,3.0300000000000002
0.19870760219358366,-0.14222932119595963,9.73024720437621,0.00569652968064334,0.002142584268297591,0.004255671890507193,3.04
0.043667412319943436,0.12044850572001431,9.954601213635584,0.016253453486420683,0.012086776662406259,0.012892470355270677,3.0500000000000003
-0.06118898292584524,0.21277709895458066,9.67256964125084,0.01302138822734499,0.009424487589418534,-0.007256414530197311,3.06
-0.06098393721792572,-0.0987100445782825,9.963377603399966,0.0004514688774119678,-0.01873329003924149,0.002942179849648594,3.0700000000000003
0.06907931730664156,0.09418503760755027,9.783630218145879,-0.0015878541786040828,0.0010861657230408124,-0.0020196312599617522,3.08
0.16683880976629606,0.03229096609414294,9.914500215757254,-0.0027526653070419167,0.00868743669538859,-0.012678750377908238,3.09
0.02570871399912747,-0.1011035519683573,9.705038923510996,0.010373841785138045,-0.009170085250137917,-0.016246515131428982,3.1
0.020386069497720292,0.06628585666775953,9.770826372607463,0.004246658846003412,-0.004870860029325022,-0.009360304349762327,3.11
-0.06203500108304343,-0.04767904349213382,9.914473529518338,-0.01708703521533457,-7.880949137358796e-05,-0.0038427878394048476,3.12
-0.01981662895727712,-0.1422553348017708,9.74946026921809,0.007419246334598141,-0.004219132227689902,-0.011049509566864069,3.13
0.0554504875314923,-0.05874562356691052,9.853708710704353,-0.009878354658452946,-0.00967319799810719,0.004760085304957943,3.14
-0.024503997480928047,-0.09325081237924009,9.738680483577152,-0.007434650375956095,-0.004845223916725659,0.001966313287435108,3.15
-0.0176887319778755,-0.05009388219852129,9.750778623501196,-0.003745127892714094,-0.0038048408772072095,0.0017177687009559425,3.16
0.052608766486593996,0.07048338562405711,9.777806317332724,-0.002938817687745264,-0.003075061939386073,0.003773150076795552,3.17
0.0694795558368516,0.13844388537726862,9.688680014611343,-0.002897232537850912,-0.002664800690775959,0.00026918887550330344,3.18
-0.17517284928474489,-0.06499202700415659,9.769806399511836,0.004985529981805761,0.0013775516767293747,-0.0006291149129338401,3.19
-0.1999762900504762,0.0505910406347063,9.793960060096666,-0.004537178255269646,0.00994419056171844,-0.01707072563082483,3.2
0.011940949729714536,0.08080694805584536,9.629370954488731,-0.0034785310188945144,-0.004080162876350423,-0.01760042491863309,3.21
-0.035835547133707416,0.03776484662353674,9.894225236763024,-0.0026721225421833263,0.011152630464263251,-0.009450580131653084,3.22
0.04906921583455831,0.060912800027095704,9.872294475241114,-0.003244204997107101,0.001776031336068876,0.00531795549453163,3.23
-0.00933593489824262,-0.10980705219053821,9.76719518103143,-0.008797467839844742,-0.010798602119666613,0.01260817458634499,3.24
-0.14225132767375254,0.06366611899224359,9.866649929586783,0.002024028770572621,-0.017234742981691465,-4.702991623397268e-05,3.25
0.043637532778566704,0.12795437793008432,9.840258001188316,0.0025179457995227884,-0.008161639265591636,-0.0028554392070682896,3.2600000000000002
0.032674889970193084,-0.060578985972521975,9.751094983524938,0.0015847312193026533,-0.0009603809644483312,0.0010282005387346434,3.27
0.03614989178562414,0.03222339682221259,9.784935235429161,0.015560125853445815,0.0034038123516582958,0.004160387358874723,3.2800000000000002
-0.1156353855605752,0.0007630059000922027,9.61414851301532,-0.015814986328505455,0.0024579452903346903,0.021134987273336518,3.29
-0.005299377309220858,-0.18712067396267587,9.9285567675837,0.004863776834327257,-0.005574849362465657,-0.013073244600709395,3.3000000000000003
0.06454178683338438,-0.092290434143721,9.80684079271875,0.008213112460572618,0.016401537010761955,-0.017840764741108347,3.31
0.07574844935717645,0.09531101432526301,9.724917487158795,-0.012058736278627148,0.009413810341239807,0.002917636676724133,3.3200000000000003
-0.0052202285857576415,-0.00675480027669775,9.87547839965578,0.014468233602875729,0.017923476912989934,0.004129217108956815,3.33
0.06700443676443983,0.005411425026928344,9.974817015890588,-0.006476654790440696,-0.010223269316930772,-0.01503261338662693,3.34
-0.009020562330050616,-0.11665616910366486,9.801397966910942,0.005611813277517295,0.008325286166469577,-0.00394415102810018,3.35
0.14582503514707962,0.1376213208262404,9.806336291320434,0.01040223255578347,0.023028163416724576,0.02089555809955666,3.36
0.1493249666183248,0.07215618921846792,9.716587023617446,-0.003505029160523141,0.004745754020881745,-0.0034440790203992717,3.37
-0.048966555032787726,0.10020924606455284,9.7526692239294,0.01639107029048709,-0.002697976151198034,-0.010124263536377501,3.38
0.0018956046012827581,-0.06398124759137712,9.802922096565862,-0.011581121588795748,-0.0012608050093133219,-0.003240188168301217,3.39
0.007542466142919033,-0.07819928794287229,9.879895789002996,-0.00999872934332019,-0.005031940787271519,-0.009479542778735937,3.4
-0.0760036621319683,-0.003648573964587932,9.71264978391566,-0.0019521816776279135,0.00936549187283402,-0.007168822577922412,3.41
-0.07118889047554396,0.08870173920029795,9.739102568926743,0.012124895973831429,0.0034632765919697978,-0.014748039982256784,3.42
0.1906715487740934,-0.05982575859953935,9.991067161823363,-0.011584385321122017,0.0068962464664007765,-0.0026327173090770844,3.43
-0.06286017951117728,0.002954901180648151,9.720909930663984,0.007015910847499101,-0.0003481602144362174,-0.003222763776793193,3.44
0.02386179929777468,0.031843592865689295,9.770924545078202,-0.00408198415146097,-0.007564891041480434,-0.0039322173235082775,3.45
-0.03486555218774741,-0.06951401940113541,9.862898386019912,0.00358989427038996,-0.0024991063426068874,0.00180037657720505,3.46
-0.04795645981304545,0.06378047321991179,9.68859575842364,-0.01260045376590389,0.009969019587399887,0.004301921063921163,3.47
-0.06620261580819843,0.07940853133112706,9.670512301761116,0.01533503021330808,-0.006975574946312235,-0.002816724940211301,3.48
0.21349211221298214,0.22182646872692813,9.78681814215691,0.01731657001710191,0.004364402322717117,-0.01628031199104042,3.49
-0.004355660012034877,0.04046007392781384,9.994498536397044,0.01696685076863153,-0.0066833792354071865,-0.013712802150520344,3.5
0.08421333111019036,0.14078717643527477,9.80035007702959,-0.0011696288662082046,0.010492197720850936,0.0060922991587235385,3.5100000000000002
-0.036217459747960694,-0.04928234917542096,9.839117658311089,0.00986254808130184,-0.005432941933148774,-0.00014325884544664187,3.52
-0.17484112109720254,0.03155448948809241,9.938963378829365,0.007675115179061377,0.002320264365183348,-0.002955731056978952,3.5300000000000002
-0.0616377408583761,0.12990548549990227,9.920992774884995,-0.014206616997069675,-0.0053882621490796406,0.013957027366926203,3.54
0.1269031290612089,0.009166172039721282,9.814540525871042,0.013843196542172054,-0.01357754645893204,0.0057335249874484375,3.5500000000000003
-0.05129902145998483,-0.0725013792851447,9.996156698993435,0.016839991462290087,0.009281849283210342,-0.005343293150369592,3.56
0.0424008248882551,0.016207044569341824,9.825318397074996,0.0010672163622819008,-0.024625779060682,0.009487859174592288,3.5700000000000003
0.00529732140953307,-0.08930932183141627,9.861495835771755,0.005534099401945863,-0.008729245734895339,-0.0037634461100930212,3.58
0.030145901899228507,0.16491307776783679,9.797884158565246,-0.009066912041526005,0.009261185622604917,0.0018307893675745574,3.59
0.12823714186900298,-0.21821215492669502,9.798140683622796,-0.004024721786093413,0.004917174631554236,0.003369907837186545,3.6
-0.014034665162966756,0.12806396867316805,9.75609756045692,0.005510148313655089,-0.0022009793815973627,-0.009229832302654348,3.61
-0.06358880722207348,0.002533555959839964,9.712075519162598,0.0038417054866824707,0.0020790280650435154,0.014659079112733637,3.62
0.025693763890212773,-0.11049362464540582,9.699126327092403,0.0017806680886232216,0.004520799980110364,-0.0015331654318143343,3.63
-0.01862662632518721,0.10703962873137074,9.845093229765018,-0.009684790617594538,-0.008537476476871555,4.3226079099798586e-05,3.64
0.027648451612965464,0.06828313102943988,9.798989616335625,0.006925120153437772,-0.0053247187941364285,-0.006224606683424928,3.65
-0.07691199542032297,0.207363151957224,9.78163503584654,0.005462535698609489,-0.000914316063371905,0.002412168480694888,3.66
-0.06557361412673846,0.08597011438967929,9.67715586667624,-0.015167550651143082,-0.0029054880428584003,0.0057401198232370255,3.67
0.12833119370056642,-0.11025702354492076,9.798357615393408,-0.0015027960546279012,0.0024422310788249214,0.0013808364600442166,3.68
0.1430935529231117,-0.14365539876662045,9.879265283211861,-8.621278622398066e-05,-0.008100216366722373,-0.013224840949974455,3.69
0.1304836331598722,-0.035113640733450115,9.839333609418858,-0.0023996293002964196,0.028668867687126617,-0.003267499906219122,3.7
0.019134267170149946,-0.0347958994583645,9.79967730955748,0.00073267692298249,-0.0036453532823205854,-0.011307548086347386,3.71
-0.08022124203100751,-0.08596460257742589,9.805786747939411,-0.012042825529752435,-0.006160396484668469,0.009313888806229938,3.72
-0.08802849906863568,0.1611398522562358,9.918503578329165,-0.0012026589848278127,-0.01740085438609728,0.00985429363373144,3.73
-0.054864862758957945,0.025732747648966256,9.622957676777322,-0.015236231535983105,0.0018494742790745144,-0.009327967208277776,3.74
-0.0059847706994982305,0.1458398550546298,9.721373159948236,0.008984041589997604,0.003341286565814444,-0.022620068304479442,3.75
0.011200903359491584,-0.1648600544927824,9.806219265100173,-0.008587352673590776,-0.006751426934083922,0.005226335327941617,3.7600000000000002
-0.17859972907491314,0.08535338456574693,9.758925976372938,0.0013354302482389102,0.012416857715154198,0.007208180664865465,3.77
-0.06512814843401109,0.1041940559602914,9.97016478420882,-0.0027853330240949787,-0.002137945551263391,0.015043874978591736,3.7800000000000002
-0.22243965757594616,0.07975506213561687,9.864837452548027,-0.010599901140231583,-0.00058187104407563,-0.004124507330779711,3.79
0.028304391828626735,-0.04434241952122177,9.740730515819818,0.0004086155286116052,-0.006347058306713473,0.012494244463034111,3.8000000000000003
0.035764121481291176,-0.0534045263089859,9.776974484412134,-0.006993632332742447,-0.022540205188115347,-0.01179138269633454,3.81
0.001197153219339033,-0.03836587611432336,9.70229268625811,0.013475848400252633,0.006383908100645413,0.002870296745566825,3.8200000000000003
-0.11300664287340978,-0.10234889235680344,9.750324511550115,0.006589645036153921,0.014701619789474738,-0.006730423434325881,3.83
-0.04450580500003393,0.06878309475305243,9.778489755348211,-0.013187534315338987,0.012687080724098788,-0.016689603116783174,3.84
0.061063164187690734,0.07511750080813319,9.873926843581078,-0.015056539466382881,0.0165977135875674,0.0035585665243585626,3.85
0.12146209248871381,0.17116464808182716,9.78219856742232,-0.002013207608437262,0.013231382646754383,0.0036978288156560664,3.86
-0.17356699890383565,0.02547388305754582,9.594817407486127,0.026388515827610596,-0.0020997203871771135,-0.017103361346020182,3.87
0.02668109792187335,-0.053386703730859644,9.833265763481592,-0.004746287225451029,0.006423360375623245,0.01873745470636191,3.88
-0.09239889555524886,0.0940517707550775,9.642644430045904,-0.01588310526166513,-0.0003878525869567468,-0.00220744611367533,3.89
-0.046998406457782686,0.07478366577044733,9.793485190320485,-0.008235615390588652,-0.016195957733422167,0.005818377726936171,3.9
0.054324882278878765,0.10263066026612473,9.914969330793125,-0.012644212926698345,-0.0157250319034592,0.0038898075923926786,3.91
0.14891795779295539,-0.012930028694718888,9.713147120720048,0.01799420907488211,-0.004920410136843772,0.0003394709344344534,3.92
0.06824029610226039,0.008929501983139123,9.813160773004276,-0.00962926190354001,-0.0029060183136462446,0.009684100062122378,3.93
0.07068082420043956,-0.12257482328970777,9.892850911096804,0.003803138442075907,0.0047947672977643385,-0.004367056640451996,3.94
-0.13349606230481675,0.18045328074614372,9.85998570527061,-0.003054685535683101,-0.007396058836434471,0.009969271069842993,3.95
0.2137523951923953,0.1486737558438756,9.654481571367956,-0.010814429643901882,-0.006374544549449745,-0.011488909240518421,3.96
-0.11798672202150794,-0.04444031452804734,9.736688819072958,0.0036138010211639814,0.015576701675235114,0.004296879936662284,3.97
-0.2910737765679687,-0.09318927368429575,9.842200973638857,0.0035282900262886088,-0.021353754965200977,0.010865892256716794,3.98
-0.05061772810915515,0.07039404259559139,9.897983011568726,-0.004049896516212242,-0.012168390158181025,-0.008704962343797295,3.99
0.008500265694425928,0.03322677204226964,9.859524562558306,0.013784862177998796,-0.002485827990734229,0.006338111412634029,4.0
-0.10299570507810817,0.0532301359965926,9.701743665362946,0.005607859712614184,-0.003126396807643171,0.001049872852287226,4.01
-0.1005304429439792,0.15560226517734987,9.812799152540277,-0.006250219868735691,-0.007835459971501417,-0.0030141155111251955,4.0200000000000005
-0.0006698001071170042,0.0469239218302993,9.83083043342503,0.00887469435603925,-0.023654929445434493,-0.01373786532038847,4.03
0.11981266146552119,-0.046830253657314753,9.80153520741172,0.01685996296801166,-0.006628834974862542,0.009348373140991755,4.04
-0.07820709040643659,0.11729013034295409,9.909579655614271,0.01734243600515995,-0.005386016706276975,-0.013584035190523069,4.05
-0.16513400326557073,0.21923131872228907,9.916114468082476,0.0010080397293776102,0.004817034026745128,-0.011895558854838801,4.0600000000000005
-0.03163873641030967,0.10261095570989781,9.755637941308743,-0.003988050055033455,0.0010698904281184612,-0.0007150771843619043,4.07
-0.17874646523661808,-0.2080985229561767,9.753492842595483,0.015305146587494916,0.019225066522480717,0.007334756381563449,4.08
-0.03766527282479776,0.0375367626260471,10.041312365921772,-0.011441080043038484,-0.004735215434196547,0.0176084305394494,4.09
0.03034170535872037,-0.03377015103391943,9.850009186990842,0.003065793504578906,0.014632268812687787,-0.010433220760595354,4.1
-0.1158936021028846,0.07534424098840012,9.977451869332105,0.011060395525627527,0.0016496239802557039,-0.00298426954166649,4.11
-0.0535499717234251,0.10865280189898628,9.813534152554828,0.015409971761729679,-0.01347924760234724,-0.006249173143909416,4.12
0.2347189877414269,-0.25553530907073224,9.58128206395923,-0.0018508304134941915,-0.0025962701291137873,0.012304918530115248,4.13
-0.007235890255039207,-0.04337823984601632,9.888158675148919,-0.0020267641520296535,0.01028059640713305,-0.006050911193707407,4.14
-0.10077558012680783,-0.05693918141399168,9.811165075747118,0.01346007689614862,0.013482666446911607,0.0010409145949921278,4.15
-0.07973668313718842,-0.20921764738827453,9.741223420834636,0.00902974392022851,0.020047973205317295,-0.0035434965742506958,4.16
0.022283462896354685,0.1376035747923102,9.755193626156107,-0.004279867277571312,0.014669799816645027,0.0010776561983071216,4.17
0.10300916786371955,-0.17969792792203035,9.802412489460231,-0.017114872699340686,-0.00987060072338787,-0.011993520538440603,4.18
0.006117304175780589,0.01830847810873988,9.853963579969806,0.008879946210475222,-0.0031072538524538015,0.012168613196164128,4.19
0.028229597593865598,-0.11180450846845574,9.862668606990752,-0.008027073076289408,0.009382550838061282,0.005496369118256255,4.2
0.03162640453951111,0.09896714940021041,9.686447732629206,0.016333895852812762,0.009614327852547525,-0.0003378363109994329,4.21
-0.03660635168867054,-0.03868142270554284,9.89262856170683,0.006597822594968107,0.0007687182172943941,-0.015397692166698484,4.22
0.07353650186285941,-0.07284573485041039,9.835678499984988,-0.009222266661905764,-0.000799675466522296,0.0033069730859379355,4.23
0.06965178305873497,-0.0211570119018519,9.692058347572749,-0.003432596965986267,0.017352079999400485,0.000578630257412423,4.24
0.005840036571724613,0.01574029101324144,9.928387517412501,0.015663925869721602,0.013161336186609815,0.004708718539683388,4.25
-0.2416897838632549,-0.038625754250944944,9.674722161635055,-0.0014610965169333558,-0.004211784451102718,-0.02064597823935072,4.26
0.0168699416095291,-0.04935427065363365,9.822151577717943,-0.011754146557643442,-0.011697231514578988,-0.005260701510417467,4.2700000000000005
-0.06232655283351322,0.05371083320038172,9.800752939819592,0.01706420072894417,0.009265342431921132,0.011204052630494574,4.28
-0.030848151276419118,-0.12167243372519904,9.807221558098403,-0.004884778771937403,0.009852757678250097,0.00037678947890363223,4.29
-0.07203466155431751,0.18242438318897702,9.869051840700298,-0.0014377522986447901,-0.021732701536501083,0.004371682368940012,4.3
-0.04783009985976961,-0.18619584430075076,9.718344549558859,-0.01772989220109279,-0.0026052406828164227,-0.017276692515068966,4.3100000000000005
0.03988501106402169,0.04210864227501465,9.756832782694449,0.00042156834797432306,-0.012048165454763537,-0.008916807469765689,4.32
-0.06092729116070359,0.2458321891160743,9.866991892498403,0.0048179187931861305,-0.008262378165504887,-0.006581805891870632,4.33
0.09040156940456007,0.0012162415435336413,9.705154820822514,0.0020848977779006554,0.000950063165853115,0.0005640914843960292,4.34
0.026288278924209686,-0.038928051252195686,9.728917223284816,0.015658955413182532,0.0032668071922086523,0.006126410316757582,4.3500000000000005
0.12941327859537508,-0.20220310238074268,9.696040344725569,0.008936946883588884,-0.004109034604924043,-0.00018199286900440897,4.36
0.0958824036324539,0.17158782359898136,9.943922918114742,-0.006570878104348183,0.011617691541643186,-0.02057255748183942,4.37
-0.1399386962010748,0.08913610215567785,9.855277415372678,0.0018686393944546042,0.01989676071090049,0.006953650412628309,4.38
0.011298662513714567,0.02472056345706765,9.818501556582358,0.014496433150604334,0.004493615666495794,-0.010936671479509299,4.39
0.062437485158397046,-0.02929136933059397,9.88964512786925,0.0017085178440442226,0.007318930064492197,0.0035873984866688045,4.4
0.19679688367639467,-0.011176969143776359,9.863375896673958,-0.005870821598055798,-0.011012993298871112,0.013825814093160114,4.41
0.11166588630804988,0.17869584527680543,9.862372286175484,-0.019254016103747346,-0.00048025713073020595,0.0019829681598101242,4.42
0.09284898033940181,-0.16644943381609834,9.734168975466753,0.006522950627610886,0.006498865192945869,-0.005938525525487142,4.43
-0.04240405845386326,-0.002204666430071038,9.715841673285128,-0.009416071440982577,0.006573365263501907,-0.004718430661607483,4.44
-0.08800412431927163,-0.08098854390025105,9.960757056857604,-0.005441030892853602,-0.00943390671842555,0.013011471168398861,4.45
0.1385558761609027,0.2227190542829146,9.87845318631368,0.016784914766396528,0.0010457172222991299,-0.0008611123411639291,4.46
0.03551106573868255,-0.0622098928457952,10.02434688539474,-0.011463001485714736,-0.008374727008976795,-0.007659360144011231,4.47
-0.19066819859372894,-0.004053018148827813,9.786425397657686,0.011118073344354957,-0.010659550194794039,0.008604846359802677,4.48
0.028339530188750118,0.18785055747754958,9.80336827794654,0.016157073886381542,-0.017866779856081864,0.006950039362219572,4.49
-0.017064953719137427,0.0430732397565273,9.87969181870357,-0.00915049331718868,0.0005455029198794449,0.003751962837501988,4.5
-0.09424022359957958,0.08616185092443947,10.035555338175499,0.01611840003940703,-0.01692244292217362,0.006242946278257934,4.51
0.0294322400421686,0.05917445741750667,9.652111559554005,0.007747155533760196,0.0009579151079392519,-0.004907134098849958,4.5200000000000005
-0.1513614150804808,-0.021645927845987446,9.841786675734877,-0.001346788349593535,-0.001722973077087614,-0.012090862216327242,4.53
-0.028181068566915546,-0.07712130031045672,9.901614374181824,-0.014627688551786594,-0.0026370268630270277,0.02568292674389832,4.54
0.13521610786390467,0.010886086384445137,9.876035022025155,-0.0022484156207759447,0.0006367056801461399,0.0013580611493880662,4.55
0.12736230326470635,-0.0232552956282093,9.804917170239719,-0.024726753107005166,0.009673863939637165,0.0026119262488149626,4.5600000000000005
-0.01666329127853108,-0.12734515188808634,9.918090881544403,0.00015807914967198164,-0.0159474112545067,-0.01498648077152563,4.57
0.0052122416452726516,0.12419204931925938,9.825658014287002,-0.007236252826112637,0.015397119463666108,0.013074521582965553,4.58
-0.13885036163443673,-0.14631792070729627,9.859278934951826,0.0041812352283271525,0.0032440597895141234,0.02044103254662282,4.59
-0.12357891120094074,0.026343861595945074,9.955309523875579,0.004391607869897125,-0.014145420687896522,0.022215107377494787,4.6000000000000005
0.0628095077974593,0.1273858994293616,9.71248423200323,0.011701370146987558,-0.005397299049259892,-0.003875382810548395,4.61
0.013197286120202122,-0.05587295958750741,9.915533044907344,-0.001002474379994063,0.015293358053087649,0.006212473306163538,4.62
0.01673313822310767,-0.008807310127685365,9.86935354182933,-0.003345826999393269,0.0026336645863219194,-0.0038072431088413783,4.63
0.0863713342723476,0.036223318652129806,9.943680032861328,0.001867902769031051,-0.020293761825087055,0.009986434051046347,4.64
-0.2321388539892651,-0.1590105247688743,9.707441567920311,-0.017350774655839223,-0.009039851519924477,-0.018603132150016556,4.65
0.05997403963842479,-0.02573963436209131,9.987649463683443,-0.017658823793877686,0.008330197613922154,0.010590823775162978,4.66
0.09989721042885945,0.14523311136149872,9.781897836415814,0.005315787774373923,0.0017423429276878185,0.0021612755776526465,4.67
-0.07924021692540001,0.12246467891754405,9.855966022733202,0.00018420606022667406,-0.006473108279358677,-0.0007436364249550666,4.68
-0.19511413671377112,-0.016353429851901604,9.725848196386144,-0.021227302920384893,-0.014181883642976798,-0.014032434979647858,4.69
0.051393979831533154,-0.18985719590196945,9.915907216311155,0.002676866007359661,-0.008544066002545923,0.007749835789804918,4.7
-0.06415497700720223,-0.03339821657690856,9.723031200986169,0.003034968793622074,0.0033759758796052097,0.012099992014164269,4.71
0.18274225154404344,0.22249623832212256,9.631301016838556,-0.012529660494590316,0.012091126294182915,-0.01418943657616608,4.72
0.10360691129444125,-0.039531813931161786,9.763537086959033,0.00791317894482091,0.012462684757833853,0.01232964550647677,4.73
0.09806981836469184,0.08606746293372147,9.921560659983617,0.008427086218642554,-0.006737075600630293,0.007573658534381731,4.74
0.012099771204833257,0.03709500739295735,9.650942874517272,-0.005561005296176705,0.0045698375580264395,0.00043453153089085893,4.75
0.13186792409506234,0.09702438443962078,9.847529170884098,0.005941536514158069,-0.007903123685202818,-0.006867998065548715,4.76
-0.024358396355421474,0.10424069313916084,9.74085513234213,-0.00023759516988151104,0.0023083498826928814,-0.005472450372651799,4.7700000000000005
-0.11809401953319812,-0.036513494575748213,9.801162498686182,-0.010531003248837332,-0.0041672030767652595,-0.004749055550544644,4.78
0.03315855233598131,-0.006707329639776422,9.936430595207254,0.006201120326337551,-0.004018894523863137,-0.013761156178433646,4.79
-0.12238706734450373,0.11220909242979138,9.670173039454966,-0.0206551485090305,0.0025084294740873926,-0.006823727843782573,4.8
0.1601477644047981,-0.007098916149426641,9.71046443825016,-0.0018355284454898678,-0.0068370574561267775,-0.0011097871827992403,4.8100000000000005
-0.006065560123376309,0.001053880110790238,9.742239216503917,-0.00587008813002593,0.007546580194388899,0.024785421718879035,4.82
-0.14638806077044816,-0.05086495930406994,9.7366750838866,-0.00527349778779613,0.011926790053245644,0.012486958336746724,4.83
-0.1722478314135456,0.14940796001646556,9.95524205044575,-0.0027179213727013584,-0.0054250021664967295,-0.0041494438079974025,4.84
0.1545461749463,-0.1351119518292085,9.805300284653242,-0.004886178530478942,0.0030021072428908597,-0.0015795046528674372,4.8500000000000005
-0.22154060345647328,-0.07156755110906378,9.823693840898239,0.0023838852381897354,-0.003990372824949855,0.00469919574726046,4.86
0.01879422668703082,0.22648055336427123,9.848655977043098,-0.010429834788291896,0.0057215132716472395,-0.019085005202962805,4.87
0.05763264677742927,-0.06272556500822073,9.814802991080388,-0.0026452623747134476,-0.011158988874458417,-0.002134754057660284,4.88
-0.12598240388796828,-0.025215165662590945,9.780399507577298,0.00012233695600795896,-0.006125762350101043,-0.0024388524415850732,4.89
0.03115804444985931,-0.06948843964698824,9.811618806150703,-0.00277504410717146,-0.0024493415333269072,-0.0015825463496649485,4.9
-0.14409923674340003,0.0732044416353466,9.813589188831884,-0.01501529349422699,-0.004800208184925113,-0.002126077224777568,4.91
-0.05678253011437803,-0.03154849569869873,9.718278669289592,-0.03176802751610396,0.009489870329675836,-0.01409483061026285,4.92
-0.052607692126768746,0.09199646226418122,9.87258128097835,0.0025331849170249126,-0.001537072443529869,0.003852194858854419,4.93
0.026411791378399566,-0.07286392507950136,9.818170054240953,0.018843768733144906,0.01550547055388832,-0.004045161480721829,4.94
-0.058410620765492915,0.005009136674659086,9.66328725580501,0.0034834594158254955,-0.011387425832917923,0.01799621376021789,4.95
-0.05938278571778626,0.03677001060929048,9.696458834267188,0.0033946860788711753,0.005207918599954172,-0.006209664694113346,4.96
0.0023362051261319747,-0.09353019366117944,9.981348612799234,0.0022838516809158996,0.01157365454045882,0.014555433575921773,4.97
0.05232299847984317,-0.18109037211938,9.827025217834654,0.002796086329611614,-0.008307655459493858,0.01130199467089356,4.98
0.00822076915503437,-0.05760908771245665,9.927744724913408,0.004362426419842604,-0.005584148778034117,3.652784796682105e-05,4.99
0.06768862598823452,-0.0765598616603772,9.852346110783815,0.011785767608267604,0.0029785369196627864,-0.002958227880498374,5.0
0.1377378744855173,0.06711448455878084,9.5762676349804,-0.007633344159793315,-0.00012940009088263814,0.012079258488517628,5.01
0.28276446659192245,0.12039465228499657,9.922514164218407,-0.003868038419017801,-0.007169680944675797,0.0006584279433615597,5.0200000000000005
-0.11106513487221148,-0.1761183338346584,9.903857676857193,-0.005878466813004345,0.020801419128304244,0.0033567172653501255,5.03
-0.21883222810457764,0.08679100281605968,9.857222976102483,-0.018847573071223672,-0.0016975556035607013,0.005509515578364024,5.04
-0.08329364085807967,0.03546919334307249,9.79041982736877,0.010966709029735853,0.009081640656414714,-0.005677507757117578,5.05
-0.07126235917973249,-0.05554769373131731,9.884800076721204,0.018356680003454532,8.074061425375297e-05,-0.009149786182838906,5.0600000000000005
0.20008025022482925,0.05725547072323947,9.853887183674878,-0.017283915052494467,-0.02240198158393012,0.015463402406072298,5.07
-0.10882301340408525,0.004867712681131968,9.911883310698641,-0.0036101358030555188,0.005287499538599094,0.0005441620324000697,5.08
0.08571270136973919,0.012629938951770543,9.80449619147351,0.015481170452632509,-0.01053920215996489,-0.01091639445128361,5.09
0.06302851461794394,0.24540860631427142,9.971264989902185,0.0034461475904859046,0.01619525917314009,-0.0053233688214877044,5.1000000000000005
0.05924350599325894,0.031262986649862406,9.767911354854409,0.00901355184972112,0.00018914520955794868,-0.017967457565179402,5.11
0.010654761699922383,-0.13862744281172656,10.00545673753009,0.0038949515536753315,-0.0038629471166484078,0.01142271728595895,5.12
-0.1595798174787083,-0.08088540624837362,9.891794192806401,-0.004472755817106481,-0.0021407475797786493,0.012038685696976028,5.13
-0.052431765864841086,0.03626302278512495,9.813105204822337,9.531186579329269e-05,-0.0012916942569392552,-0.011564616642681538,5.14
0.09843020478734743,0.06328129371795879,9.833466390002517,-0.00016065541934707743,0.0034723872238571025,-0.013846172420704907,5.15
0.11121038888930544,-0.020568438193614612,9.696306256396085,-0.001473305846638784,-0.005254865022649685,0.004987698444030078,5.16
-0.10208254207720782,0.05681800581987101,9.913885176490927,-0.0067282578233390355,-0.0017787751984566775,-0.006889715297417643,5.17
-0.04073849964268503,-0.1494202511249609,9.95298130754293,-0.009314162850398268,0.008636755472603569,-0.0016538884705429825,5.18
-0.06015159592983647,0.07646246066784203,9.82117012995215,0.01082905605973411,0.02271114258399148,0.009547593153415784,5.19
0.00594211860657562,0.07279038432482414,9.777370557116434,-0.0010287292435288958,-0.002196238926387824,-0.017597360451819605,5.2
0.010277776490419402,-0.03153218393329168,9.70375372175554,0.021862775684684945,0.028346491583571623,-0.010657982413529424,5.21
0.1004694571319845,-0.021422817942514306,10.011426661551853,-0.00792849661580941,0.004277483195107539,-0.00012115169686596916,5.22
0.014816615654085721,-0.047282276851574406,9.726840311892673,-0.006173822185587042,-0.009538488666256437,0.0008561292280554519,5.23
-0.032181736444736146,-0.07620803012200368,9.767979327907303,-0.004825359145875655,-0.010222259834919393,0.0034474402627342154,5.24
0.008355500593517735,-0.0496870112551822,9.7516151290841,0.009573210289655368,-0.002398739742137959,-0.005138014637740558,5.25
0.012069030256066694,0.06683596917230542,9.762221476928035,0.010264907040610465,0.0069453581864779915,0.007959175740607565,5.26
-0.018062436986517324,0.1763322291935504,9.737368459121411,0.011038385852727022,0.0040826873691996455,-0.01275609721406867,5.2700000000000005
-0.1247394450915491,-0.025005286255580003,9.76276770382863,-0.01065734938371461,-0.003202380786629486,-0.019810171002344088,5.28
-0.07310745457420799,0.13241826449780927,9.917490050542106,-0.0016667807267100147,0.016968220226103524,-0.00042491963767809214,5.29
0.134324809113657,-0.05612987139826158,9.80723318784289,-0.00022814495403472395,0.0073183737653548875,-0.0003488247741960761,5.3
-0.04230745074022241,-0.114871490459177,9.781566208459303,-0.006037174050664326,-0.01538505698915167,-0.0018021907135488983,5.3100000000000005
0.05425671357007742,0.036497272188114945,9.729932718870348,-0.0027596227320793097,0.017349575106638655,0.0008710524149246378,5.32
-0.13451364463006465,0.08397049271661039,9.901420748453443,0.004575276757844556,-0.003968919374982884,0.0139301784708211,5.33
-0.14539914483455707,0.033588327298412476,9.908364953674063,-0.010342998771098214,0.008761034959603078,-0.0019164030746422291,5.34
-0.015144442290377091,-0.048011179772344564,9.700072011487565,0.003581082306970282,0.009168947411652304,0.000618076026931561,5.3500000000000005
-0.16134773172851208,-0.0008225867823332821,9.85544268119236,-0.008290146766834679,0.01199567997795577,-0.007825860001964436,5.36
-0.22488962012217384,0.07392766418409348,9.892475903767066,-0.0016827660536538605,0.020250654024136727,0.010653756841475874,5.37
0.0025893036689501447,0.0005001761435437997,9.760666422756694,0.0031779596865290204,-0.010261686920462545,0.00556282926944654,5.38
-0.0057688429036006905,0.0685688624888199,9.729481806767344,-0.005491992701437537,0.01370141643925393,0.003567569316294503,5.39
-0.003953770890648095,-0.26988630024021115,9.856006728952432,-0.001526178479467683,-0.004323658008008759,-0.007196131029099574,5.4
-0.005038929355868411,0.002121170423713759,9.669412022306686,0.005101602543733021,0.02302076660683555,-0.008414352566304548,5.41
-0.059308261155017895,-0.1488726837283084,9.791443440554803,0.006700408574802315,0.001162142909154914,-0.0011826565530832823,5.42
-0.06210694215540157,-0.13455402236024266,9.939755873522072,-0.006166095807033822,0.0185357827876694,0.0011011319781105869,5.43
-0.08987205856177209,-0.025556276611654834,9.7690900230968,-0.001595971679905654,-0.00466774268300272,-0.006598942580028199,5.44
0.1338830099082522,0.03599414523264192,9.765085928500875,0.005534938019682634,-0.001209990956775024,-0.000970742565463061,5.45
0.2217493156871808,0.06213704626023567,9.703689662000075,0.004584419131755749,0.007461741873401325,-0.009264285983828356,5.46
-0.00483152432689028,0.027713508365469555,9.87837617975281,0.008406534977952143,0.010485808095693293,0.009306220892333402,5.47
0.011078487776692385,-0.0768837512823452,9.646915053759315,0.007867073662721696,-0.009895336520906295,0.01655687871874438,5.48
-0.11556287238483863,-0.049301324757511825,9.770663035766606,-0.010940133467807754,0.009223299787969784,-0.0062399937971665985,5.49
0.019395207185444394,0.0815708310207137,9.758326589958042,0.003432428266562965,0.011294537305324837,-0.010806219462005322,5.5
-0.02627576857562036,-0.018609957706485915,9.796416966693652,0.012258652417869928,0.0233486489937728,-0.0078081020996396,5.51
0.027207334705672423,0.03193465340250182,9.835457186821735,-0.007060107470700274,-0.002494349163858355,-0.005214669674351325,5.5200000000000005
-0.00027361119328727474,0.01879982634370423,9.62234775512628,-0.009971826950701071,-0.006581537788730159,-0.002644414003784341,5.53
0.04746881255967919,0.03899098464044781,9.757738976871423,0.010033223176009562,0.012808299648776951,-0.006354431640514131,5.54
-0.005717854405992954,0.09651881353583473,9.808003928701769,-0.008521965048501192,0.003853159310876066,-0.012621651178509564,5.55
-0.06442689123246602,0.02972361500713637,9.870448009639016,0.016875197581264188,0.0014304855676771774,-0.006244646253296026,5.5600000000000005
0.05956453793348026,0.03746016909201836,9.702807661794552,0.013187467843600873,0.00037420941973856635,0.017093605899921198,5.57
-0.05165550638415735,0.12707369813164357,9.78854740771819,0.007454736538456771,-0.009200810346200634,0.00933467409314366,5.58
-0.08794341645099604,0.06200985333267187,9.80904800246673,0.008787694641742859,0.0012983195411766337,0.006234243102081835,5.59
-0.15674701069352806,0.029338079693089776,9.845060505302314,0.0008444179822113311,0.0016645684838720962,-0.0016086661225182027,5.6000000000000005
0.041727043774052903,-0.029640887256353235,9.901411385954255,0.0028255188674439213,-0.006747658257640165,-0.005424137863759051,5.61
-0.029871732611338794,0.17761435980086387,9.754653796626432,-0.003791484671761315,0.008306889453498093,0.0029657494564794087,5.62
0.0623343452952041,-0.14712902935707622,9.804156529641684,0.002498178951397324,0.00749454208401566,-0.0177596834363278,5.63
0.12469444304777025,-0.07113952964777519,9.769322793197194,-0.002328164698596781,-0.003255461514099442,-0.009419396015547792,5.64
0.014604320562854094,0.09058972953313865,9.9020575604859,-0.019018969134798513,-0.0028751072167500285,-0.005433655574049016,5.65
-0.17466554356150238,-0.0796738794950279,9.850934651555816,0.0011466802960156304,0.006377747515235426,-0.010207640110630854,5.66
0.003908644732251496,-0.003327802197830341,9.703268562489441,0.011217300538691027,-0.0014146545178709625,-0.021880181749947877,5.67
0.01347160513714239,0.06691300437644576,9.808445403454423,0.007272739100189798,0.007077670979715694,0.0015286437318795074,5.68
0.037119728262475525,-0.021369932802331564,9.87235449698831,-0.010965388772552714,0.00539448212308186,-0.010475142297664625,5.69
0.144708589755177,-0.2144307927103153,9.943133479771038,-0.006684664553202291,-0.005122821142068638,0.0010251038555232899,5.7
-0.008097574381545309,0.12796388867156944,9.852693298987658,0.0053853911835364246,-0.004899284251427795,0.007300920258517744,5.71
0.058494472422054446,-0.05961636582589659,9.92033586690893,0.0015680929788929898,0.005824709189214194,-0.007205787836753033,5.72
-0.07201762919838893,0.012964593904002692,9.67336651634809,0.011874980561844073,-0.001386544977669408,0.008811950954511698,5.73
-0.2203440419789797,-0.007753153665186457,9.750182869644492,-0.016720131783191566,0.0018642049152490868,0.006384838904292225,5.74
0.030843465687274054,0.18409611420810612,9.892932014003618,0.00981773522370169,-0.004369083129068025,0.00803221321041256,5.75
0.06952926273756822,0.05131290474236523,9.804153707764014,-0.015872333111543496,0.005904338370413954,-0.008375558044762605,5.76
-0.14517895368077494,-0.019758992503268704,9.659876457573095,0.010185661944217566,0.0036104241405000032,0.004259921788311778,5.7700000000000005
-0.04292332076057546,0.17213749326314712,9.796928615260247,-0.016559265366025724,0.0014099381864102088,-0.015635171223127388,5.78
0.16584123956289418,-0.07165713404523975,9.785535986035795,0.00687018068299912,-0.00032103510415975255,-0.01145912766093593,5.79
-0.01467528071847222,-0.03409113419684472,9.787569859852821,0.003584779000402839,-0.005778453837992657,-0.007074954818093289,5.8
0.041661805756324596,-0.08717107027330721,9.785817107471805,-0.0013532573276555354,-0.010825718652487982,-0.013315062018264934,5.8100000000000005
-0.061310726352024225,0.20731787368125965,9.814129417668696,0.007701641655155986,-0.005257497888924989,0.011558325627377833,5.82
0.08209803992158995,0.04170965386827627,9.836775344747021,0.012407198508862774,0.011758674533424296,-0.010449867154249488,5.83
0.006198540777498712,-0.055965208381879156,9.81048143450707,-0.01453223544050764,-0.025142513326210866,0.01051464913734952,5.84
-0.017872396758604202,-0.023523285988610573,9.78980925898485,-0.01470169375966916,-0.008870677783125584,-0.013322471228129183,5.8500000000000005
-0.068431833046752,-0.12248609458908982,9.760329577919759,0.004156445732357855,0.004475917592847476,-0.004645334282285962,5.86
-0.05801870129435736,0.023824433890401644,9.909691647730128,0.010303467785202955,-0.005525418020761314,0.014675827369184043,5.87
-0.09868081019978417,-0.07258046068265205,9.71044317129548,-0.015338199949670093,0.006387535234998307,-0.0055521833143660085,5.88
0.026998559091160248,0.11360503355243022,9.876240384127078,0.009091745843701869,-0.008111213772197973,0.009010504507703397,5.89
-0.19994959077116653,0.12406368872047063,9.782062714616066,0.009382107610752905,-0.009933559394388796,0.002875387190620591,5.9
0.04002779118393132,0.0871797374540444,9.750220952235573,-0.006762051556986113,-0.013780662777356876,0.0005936255873585597,5.91
0.1311338214385611,-0.26443214576909757,9.764405990984242,0.010742899765326464,-0.008560852366238056,-0.00458167947361202,5.92
-0.09160723071129218,-0.012095991900725758,9.430358159943882,-0.02610185513685906,-0.003645204276964938,0.013142143437256355,5.93
-0.006743629433707545,-0.07349180736727062,9.797581642093814,0.00810324065129113,-0.0006585246078450881,-0.01037221802611125,5.94
-0.11805846657557491,0.003999562662728165,9.68077122821323,-0.018866797098301392,0.0029683607402648145,-0.007827704216083411,5.95
0.12588262265739378,0.1618667597827096,9.712539261994014,-0.020982860304450467,0.011639778389425903,0.006634105352037915,5.96
-0.05895962037116551,-0.07013132811300751,9.81551989151768,-0.01941429705481819,-0.004045278272521182,-0.00639185399326814,5.97
-0.0866121718608548,-0.07723704414786564,9.83658032014743,0.011726085462725966,0.005796600150754738,-0.0038152094766148808,5.98
0.015692176428850405,-0.009698597810831643,9.71398719304935,-0.009699515976005029,-0.003064241145834193,-0.007629943686039856,5.99
-0.06026417853008884,-0.041658883901915196,9.853617319831,0.002014321320655167,-0.01725892344432471,0.003069945898353854,6.0
-0.1393282553848325,-0.06285036080205315,9.593125880464184,-0.001623423100462714,0.0029363128205894097,-0.026194091348239624,6.01
-0.2154399922083311,-0.005856921384601934,9.822961576682918,-0.003953791062320969,0.00474275074449699,-0.0035665775360565195,6.0200000000000005
-0.07264951011786713,-0.161029223502704,9.890054327744888,-0.0014592932934066362,-0.004236380140480554,0.0005465840842757725,6.03
-0.06880821727221659,-0.07450425359635093,9.796096444423066,0.0063235617182814865,0.008646810760750604,0.009459592279377383,6.04
-0.07202195160142616,-0.01387429484051527,9.763642753648845,0.004222599155749838,-0.00414811479595613,0.001220119871533264,6.05
-0.02193572179850213,0.11054510229848254,9.677329351810505,0.010282424843704402,0.004779349614127991,0.0036441977587358073,6.0600000000000005
-0.05539785193312884,0.001712637023362334,9.84202440481339,0.008716371119521659,-0.007037570854774295,-0.00211635531169004,6.07
-0.1572050734287318,-0.036881343237263685,9.706077161517037,0.007987048593535825,-0.0021145293127970543,-0.008894984617360196,6.08
-0.007833617621493138,0.1274646793689832,9.85229799045385,0.012135168546463498,0.0010355658916811376,0.023236954182502153,6.09
0.08727023621766429,-0.20743784625055978,10.01995578006518,0.0030330398263909396,0.02227810215038967,0.012237124945068598,6.1000000000000005
-0.06188056327853767,-0.1897224495239821,9.922082893337826,0.014692085147136403,-0.0028020386605316274,-0.0032357699283962088,6.11
-0.06842844531282806,-0.1479372707668531,9.829058711162094,-0.004426162138568903,0.006338615403372907,-0.012610264166317407,6.12
0.1682136070953935,0.004348309081745171,9.854870279281268,-0.00594530234727534,0.005291990341173168,0.019440454074651326,6.13
0.10988802935439264,0.05560838576695551,9.723689114965781,-0.000947123178086998,0.011318606018258017,-0.005340669549176216,6.140000000000001
0.09497891669441264,-0.006091720300776681,9.74012501101053,-0.00725812568162312,0.0025920428097997166,0.009340907055789644,6.15
-0.05506315145182879,-0.0865607253976188,9.768439767311744,0.006263075661796958,0.010176015169444457,0.005569334816271428,6.16
-0.11580721522348408,-0.11196672663697277,9.647485981591382,0.006045718465628847,-0.006943340429392712,-0.01699966069813058,6.17
0.1395746134033849,0.06433284949627892,9.87760328538282,0.004146007581277197,0.006090272657428321,0.00473283535327768,6.18
0.18798897418259758,0.15563864518205128,9.75209595114647,-0.00918161239321523,-0.008037548160277849,-0.000544447941474861,6.19
0.02276185411984264,0.053998696202839404,9.76885616762515,-2.6326662914389765e-05,0.006178953495933909,0.0010395964734399331,6.2
0.0030674310794765293,0.06356742794600499,9.709398005265358,0.00020935542791265964,0.00011881674088004427,-0.0010351315505924541,6.21
-0.10117076886017407,0.15287183388881245,9.750275820065738,-0.007259648320386999,0.002292685137262716,-0.024051610757320353,6.22
-0.08381757396088993,-0.04317486791253991,9.852881118376427,-0.0014435902973821604,0.006801655769596258,-0.002628898214209516,6.23
-0.18410892657975342,0.03412146238486621,9.663919345592522,-0.006365671663576666,0.008335862096611997,0.00739521737872784,6.24
-0.03489080137561184,0.0073844664584297925,9.843514486632131,0.006161610476883987,0.004036460162384193,0.0029530316453618183,6.25
-0.14343531900367523,-0.14569797133926202,9.762169131799421,0.0023519764210300467,0.01393394286926479,0.014976213148114067,6.26
-0.1254110752541607,-0.1253053883077403,9.717134231455018,0.00999027862327172,-0.010321539596206464,0.005022883379971144,6.2700000000000005
0.1291042363229697,0.030223146327272545,9.92317740670498,0.014518871736956042,-0.009277621925723461,0.0033745069035862624,6.28
0.023508672413159237,0.050481858402034833,9.909523133215481,0.01099433887664519,0.0015935725082926123,-0.010587627044162898,6.29
0.05837555493557409,-0.08727290589615384,9.811207261849962,-0.006098214885947761,-0.006749139136169889,0.005899599636858305,6.3
-0.054153495909595166,0.08419323240878389,9.852444049701647,-0.003608649516178787,-0.012392310029995633,-0.003849698665661816,6.3100000000000005
-0.01711864354192288,0.17778671706426555,9.72942035401267,-0.008067979419978617,0.01900881455375986,0.01151722411894218,6.32
-0.01340365072895966,-0.04521969881031371,9.808806545235223,-0.005479850477336568,-0.005012785188778174,0.01690893040831723,6.33
-0.07669158056097547,0.014521836931821101,9.907995237266846,-0.012656765442274778,-0.00519378139229514,0.005694133251200359,6.34
0.10967129810795724,0.21920207393623833,9.622629875859628,-0.007842337533897658,0.0036306751131074838,-0.016576378126540996,6.3500000000000005
-0.2045947502471699,0.13449199984985324,9.835177418889362,-0.008597789780375002,-0.009004381429538232,-0.003039742313395647,6.36
0.02086423595645116,-0.09810774565727129,9.908732612631031,0.0016244434233107841,0.005888785295902373,-0.008198176585984656,6.37
-0.07438554586331987,-0.08307508566355666,9.73351961429832,-0.0018784356312404626,-0.01659786500937869,-0.0010570089994926682,6.38
-0.0590610263795166,-5.103885025031034e-05,9.595329716123207,0.008355786414237879,-0.008840474600484113,-0.01574066239213524,6.390000000000001
0.07233673189211469,-0.11038789921746475,9.811119645447688,-0.0047475464656214226,-0.011719832836864121,0.006795242908002937,6.4
-0.013278424722358104,0.11210566520681803,9.760199732155264,0.011571768784411591,-0.004144984821565782,-0.008162249274811802,6.41
-0.01135213476905454,0.12016286358664285,9.659488178585585,0.0024401020801148718,-0.016103635744994297,0.0035512090143017274,6.42
-0.03419016102284675,-0.008680092043876209,9.72282251732061,0.005615340992195046,0.03456487096423588,0.002214202697824447,6.43
0.07609036836613822,0.029529749707760313,9.908267492311127,-0.008685851652829752,-0.0073709019931328355,0.0058712505243668014,6.44
-0.11507989752935868,-0.06359156247915866,9.777630681207887,0.007190178153231711,0.00969215379877843,0.00631955873013545,6.45
-0.018210711672839483,0.021020874696098202,9.93499996823622,-0.008468938345261226,-0.008442988494040736,0.021093956161191998,6.46
-0.007799226067161904,-0.12880493046574742,9.788417449311831,-0.008137099446741828,0.005699160859664559,-0.01087463803361016,6.47
0.09777847827619879,0.0516081424414642,9.735151617915836,0.011896931410669314,-4.323936235468623e-05,0.0017869364091062418,6.48
0.04229055501412181,-0.029832889370070628,9.834655017655283,-0.006686840716172565,-0.009369426715186343,-0.0012221635155471938,6.49
0.00891859549440062,0.004733679080584677,9.811212001362831,1.7556255424385584e-05,-0.00721333611202189,0.011187196987394636,6.5
0.04560423741354003,-0.03519643784357942,9.999875725773691,0.013680936078947555,-0.018064761793491126,-0.012076935899919594,6.51
-0.2258997282301224,0.14994700212570758,9.74726028790537,0.012395136111139739,-0.004324731045298341,-0.0027820226149632226,6.5200000000000005
0.04010962401543269,-0.15902814787057026,9.977860485935839,8.011558018018487e-05,-0.013973424993167298,-0.009472877622494212,6.53
-0.08163925112185223,-0.0472777976368748,9.894589531473045,-0.004044351915409457,0.021095938576812686,-0.0011512874145317626,6.54
0.13962922122903904,0.023979178986168814,9.713248473866296,0.004216099795512429,0.013525992081005368,-0.0010998997205539018,6.55
0.18013831107731593,0.05583817342762906,9.818614062654337,-0.003861280317535144,-0.004675037508785795,0.002019004343471441,6.5600000000000005
0.05864820604503826,-0.05592837793334288,9.807207917901756,-0.0027127279740450684,0.012216185665456254,0.00459452752159083,6.57
-0.1653477130647995,-0.117794538445375,9.81554919918006,-0.006092635562059249,-0.007947734113713044,-0.0031093692859895704,6.58
0.13216896046113244,-0.09033099819867307,9.940592785055214,0.008611970854432594,-0.009255735235324204,0.0023645312189996756,6.59
-0.07841913205102474,-0.14166991399229328,9.787902856246225,-0.004538717453677935,0.021182524049734513,0.003310237717895358,6.6000000000000005
0.03033785896094946,-0.04765903777948203,9.712095998088753,0.005198078994951913,0.007057395889384456,0.013086586217749288,6.61
-0.0760529328581932,-0.0572522539747583,9.78193596020551,-0.010602847931122964,0.004752394564352219,0.0026511011858166363,6.62
-0.03077319733788242,0.05409459396792479,9.9196202792461,0.0005387007559573923,-0.010683139350549356,-0.020208314679015477,6.63
0.03223261512263512,-0.09198873186027628,9.793347080309406,0.005480249582807238,-0.009521881773158894,0.015713142231328796,6.640000000000001
-0.08213118977460988,0.0031843587636312485,9.745381964855705,-0.007556669498487623,-0.01914865797342662,-0.0026499236641081003,6.65
-0.08005466223394453,-0.10858227041659459,9.884570585875995,0.012321738918973986,-0.01980002881712064,-0.0031657335609112,6.66
0.09525267626860379,-0.0508827271774484,9.733295335166332,-0.012851327213718263,0.009179925064260915,0.014091291013664124,6.67
0.06747393684358031,0.07044794944422275,9.6579110589429,-0.0071826132441611115,0.004444805592673688,-0.005561890752553842,6.68
0.029274675765140507,0.1823174970313392,9.759666286623808,-0.004694423584268844,-0.003014081615484262,0.0068778428732625355,6.69
0.023922209649873915,0.05297472805316788,9.9845500924099,0.0020108656022954545,0.002942429675489319,0.004784852165594961,6.7
0.026333299458284234,0.08310726309675803,9.671350868441131,-0.005985327856237642,0.008198488177482303,-0.00819415313033393,6.71
0.04329161394604994,0.0775057662952056,9.842198167284396,0.006687254041110001,-0.013031514765041727,-0.0051615782674465874,6.72
0.018461249335818913,0.11043262015419578,9.87573167010875,-0.007064044206263055,-0.017409244455809297,-0.0018290449665591174,6.73
0.005751601110618627,0.11162043452421402,9.908372923413301,0.0014299165527541966,-0.008442671296840445,-0.001988318689749301,6.74
0.03541892910015415,-0.05482874855575486,9.912992806815375,-0.003585687769389393,-0.011283399361074038,-0.004464717237373309,6.75
-0.06907867678293826,-0.10116582280567571,9.698787591859643,-0.008930429177783977,0.008059607181146893,-0.015232962370978265,6.76
0.05894224040886007,0.016473313461126033,9.811390804019746,-0.002178130845300175,-0.0076605910912439104,0.002368587989253546,6.7700000000000005
-0.07364179008244406,0.016676705610772082,9.84015204108565,-0.011940843023735862,0.012485106497860249,-0.012342786547698659,6.78
0.00363348049798258,0.12620385591657265,9.867878588488912,0.0065800836081195725,0.01060935955536723,0.009133308969702297,6.79
0.024483827999278555,-0.10004318272932694,9.709727791570026,-0.0008616289448814836,-0.008119320367317398,0.01335795391698774,6.8
-0.06821389020170571,0.09588475748694186,9.91141776922146,0.015321752949066361,0.002389640879322646,0.015382250440120836,6.8100000000000005
-0.0755765553660091,-0.018409939705380848,9.812031851538574,-0.0054530796758999155,0.0024589269277787706,-0.004264604355228882,6.82
0.2177408671428901,0.03702075101392213,9.86019931256383,0.0006608275815105881,0.006505743567878974,0.0009779503149177006,6.83
-0.12874718577915764,-0.16594352197442525,9.797108859682453,0.0005714602286149621,-0.0030065960528689296,-0.015179306615053291,6.84
-0.1465793234800574,-0.02237052446001482,9.961639628214005,0.0016963210307601134,-0.0013963717793904153,0.018415441235180855,6.8500000000000005
0.053429988750888606,-0.015542179542545482,10.147263942033888,-0.01560701924876514,-0.002622768227681853,0.01149776015868778,6.86
0.13751758268296158,-0.04058939030592341,9.91969362998532,0.006464799249748802,-0.013136228289558498,-0.007793906496309081,6.87
-0.08802928062295368,-0.04605816655860276,9.618955454425517,0.002800741855759411,0.0021994315253661295,0.007946904387422207,6.88
0.16851991717262654,0.03980088336072576,9.743270882861209,0.021239206333967954,-0.0052720631353474654,-0.014739265148920868,6.890000000000001
0.037087805246724365,0.08900316389193202,9.867715559557142,0.007732659865766849,0.003655552078765264,-0.005727689121939292,6.9
0.0043667732824386185,0.2389054122913135,9.737573215289157,0.007606278534706456,0.010989627788210235,0.00598071228438451,6.91
0.09327744617446505,0.09790310264128298,9.842775942319193,-0.004061714686105741,-0.01813337792792964,0.002693272790727462,6.92
-0.10292342294629211,0.04235207574344931,9.734674682619152,-0.0007593305923127352,-0.0044738242142981265,0.015124224280623703,6.93
0.0583694591235996,-0.19716850219924575,9.723712533060358,0.0020526212584361606,-0.013376444757738025,0.011775847857217086,6.94
0.10841893330420349,0.14707865863295475,9.707689497164724,0.01525492970983498,-0.00029127538206136233,-0.009293992203844473,6.95
0.09133779177263528,0.16075349173370918,9.685765996207266,-0.009271908669248336,0.006463511357490813,0.0055419646562869206,6.96
-0.03276147063182006,0.08453697304440572,9.922717826477196,0.008357181360476954,-0.005783044791317169,0.0042679786993154705,6.97
-0.0250894580191169,0.08231353569627985,9.896008106748909,0.0011881053770928863,-0.009013234055617728,0.009691678291950712,6.98
0.061380645575042414,0.05952474966529114,9.910218062379993,0.00777682658347727,0.0060537205306741984,-0.010774822735831042,6.99
-0.060384428119332416,0.15714558631919545,9.914505766715175,0.008259794896032402,-0.00147882351579954,0.003449961180018642,7.0
-0.08207519936280948,-0.044913009745931036,9.82112737767879,-0.0008416760391483795,-0.002022174145379948,0.007994178236054722,7.01
-0.004805012273408318,0.07590264389408445,9.880078964942278,0.00990976230585655,0.003579485040896394,0.0071683365326061154,7.0200000000000005
0.1256550046534693,-0.00758051777272681,9.781629479490237,-0.0027306103496985814,-0.008361052894035482,0.005592003307245705,7.03
-0.010487516055381006,0.07766205441940793,9.703753481531896,0.013403293823777519,-0.0011035843383470616,-0.004059016831053763,7.04
-0.053118721899823876,0.09113287147286342,9.835722836482303,0.007615544794739697,0.002391428700391877,-0.0069150174366411875,7.05
0.11606078500292667,0.017739764172031477,9.84383254400656,0.02049830879425499,-0.0003590279442786508,0.003612875781715938,7.0600000000000005
-0.1327208554825149,-0.08131583216282143,9.88376164604439,0.015556499152344928,-0.005884798377972514,0.001952031530033251,7.07
0.14529205015685254,0.07785274688910489,9.788736160781246,0.00031195474591605085,0.008549268720858035,0.004663776375672396,7.08
0.07741254795420616,0.12608576419727807,9.839146825142443,-0.0024631332536194915,0.00796674976695812,0.005250726433389978,7.09
0.16148064896544218,-0.12128617202640582,9.898411295862202,0.017352228265073585,0.008730013460147198,-0.009197195214873655,7.1000000000000005
0.04998437537777811,0.10370670961140878,9.771225724881067,0.01143397262260498,-0.003998537779560355,0.0012072348208875773,7.11
-0.10849583203474591,0.12421059103565438,9.699510132246267,0.017583913076422934,0.004242865062453358,-0.0059773787760001385,7.12
-0.17978767144466276,0.026762760328473745,9.717634546984682,0.01437397621849354,0.004932896531648232,0.013502109227903639,7.13
0.07780138358362039,0.19322855680892448,10.007135034495644,0.006568466035974663,0.012422887760093955,0.001378536994961796,7.140000000000001
-0.004368369558499491,-0.04585559230823981,9.77803696979527,-0.01827179788360752,0.0136829711301655,0.006014544105815391,7.15
-0.12753718131659567,-0.017211542251662434,9.775625691413467,-0.007413118309565685,-0.016656420565383377,0.003984306012182749,7.16
-0.06004291985500816,-0.0456852943384438,9.93169068590259,-0.01003592130457699,0.00964509838328226,0.008132008102812652,7.17
0.06278368826863567,-0.03486730907782894,9.879442461475643,-0.005026399523028709,-0.005964483092712655,0.006018627680590902,7.18
0.0285417114116993,-0.03251352014726349,9.792580471026858,0.01946554028094464,-0.0036128645818502628,0.01436025761934074,7.19
0.17205416295793274,0.1327644813872817,9.848102758231763,-0.023984642467953825,-0.005242614669182213,0.002569000946212152,7.2
-0.01386018090145198,0.1554384309572653,9.875484737272721,-0.0012027354023515019,-0.00870554632992939,0.0067102135413554,7.21
-0.21529575083197214,-0.020635199695310497,9.875367633654418,-0.0007480910966074444,-0.019960260127846022,0.004655586648045639,7.22
0.022915694189579706,0.05726161398650024,9.721905510943246,-0.008783983478017336,-0.009080432763821124,0.005482553136499368,7.23
-0.11580876251398398,0.040003500833364014,9.746837948282762,0.004547472886977566,0.0007445867284896118,0.0025657723627896217,7.24
-0.1467486741354794,0.08754172811024935,10.009515590076855,0.008276498279784616,0.0028901036588303815,-0.012245753392588892,7.25
-0.0760298426950851,0.07066396067453178,9.614822804894569,0.013578429369213402,0.015989514196792242,-0.006030085701330175,7.26
0.07350999991584055,-0.1621680383239883,9.755810912318788,-0.016215572431375953,0.021733815509162785,-0.004479734227635045,7.2700000000000005
0.2072122221744612,-0.04770921756435653,9.885739896914233,-0.011159466149242393,-0.006676620075713249,0.0031437890855604694,7.28
0.058241236086735176,-0.11356954702725992,9.918904133269997,0.004414408724271236,0.009671418022739013,0.0017090922496590334,7.29
0.0027790917806068734,-0.05987312142674788,9.916509588094343,-0.019543533458598217,-0.0015590447707310208,-0.009409155049197293,7.3
0.14085090046589152,0.18731725184051684,9.768923649113102,-0.00945364465795939,0.011339200651572017,-0.004126856014651336,7.3100000000000005
-0.22079358040969385,-0.01674594091799887,10.035191989219474,-0.007530531427965196,0.012786134851286265,0.015363367295173926,7.32
-0.08487358493809258,0.05777783437226841,9.821888383989037,-0.00040370068111714093,0.00013652977082947502,-0.011855222251567585,7.33
0.09989937764468938,-0.06263765683704586,9.766267519916115,0.005716312283898244,-0.005230979677425042,0.0046092682300118435,7.34
0.04942570295364627,-0.10025154687971445,9.87759920600156,-0.003867912158804241,-0.003362387010056888,0.002252431847251837,7.3500000000000005
0.08805409322640723,-0.1792692730211659,9.911223009125035,0.005806633383898263,0.012137809039218728,-0.003989646178008801,7.36
-0.15493864071796265,0.016020875741515745,9.714655488492275,-0.0033180027437241326,-0.0023012136133634883,-0.009861769131449876,7.37
-0.20159990971129782,-0.023340186273899364,9.894280651839878,-0.015587734073099444,0.011890686058531287,0.005134783643698846,7.38
0.0778601438455998,0.009193638354949367,9.8378844799169,-0.007860260833738603,-0.000730308040406398,0.0028781060055302877,7.390000000000001
0.1539985256949653,-0.20350910267550898,9.783667788296972,-0.015055079886230076,0.013209409853837685,-0.0033564197522289725,7.4
-0.18614590471587042,0.195223054130046,9.872211819833046,0.012401465209642706,-0.00711870877893606,-0.0077068777006240406,7.41
-0.050375779634118746,0.0006218028365210937,9.837594021184417,0.013891487985875202,0.010839069535711317,0.002420792845297573,7.42
-0.13347718080283374,-0.03588028213744995,9.887364445384188,-0.002147174952385304,0.00145951863918121,-0.005399513030373448,7.43
-0.049938279738648665,0.04384313717130586,9.808583511368626,0.004601642317955056,-0.011432140415809424,-0.015707089057794183,7.44
0.09311091573735432,-0.005890561727200854,9.740872343809889,-0.008310110611051776,-0.007282357146743681,0.015071920424117227,7.45
-0.029244141839280775,0.18209695619039548,9.947385411903856,0.006366350437525682,-0.006787688329946636,-0.00647293632938904,7.46
-0.06288930649338247,0.04337138805830754,9.897408859593861,-0.007325838614895669,-0.0015420860379880966,0.011179754297510074,7.47
-0.23368170015065104,0.07807348089006413,9.786635038285471,-0.006850446779785061,-0.01033611008099515,0.004979606170340363,7.48
-0.02260830054024421,-0.07466081802281868,9.687050599890192,0.008688620310256542,0.006562203782501507,0.003938880944842036,7.49
0.007325881539364487,0.0025182310523961878,9.878125225291384,0.013394960382650421,-0.01489814044015123,0.010604706679073912,7.5
0.04340370479655649,0.028526041739906555,9.797282799726393,-0.008918285250324278,0.004694532051321041,0.016839209049773953,7.51
0.05052532119543393,0.08624261739199052,9.737636366089715,-0.005155109528694845,-0.015254426441542115,0.017600307891037652,7.5200000000000005
-0.010663682339247277,0.004600097444816937,9.678069092132846,-0.0027698027703580426,-0.011752892897267362,-0.022892914383608458,7.53
-0.10366968647836057,-0.031203594328240793,9.63434352477475,0.0008313647447765506,0.008008752678595892,-0.01059436724752189,7.54
0.013595038720615613,-0.05718773501050278,9.77632599209258,0.023714825891369223,0.0018767800744311286,0.0017888918958697225,7.55
0.06291708761359104,-0.1579437231354499,9.882418621095875,-0.001144853583747337,0.0017825351457100758,-0.00910414922332943,7.5600000000000005
-0.02809101393297005,-0.017234570893402548,9.740521005062284,0.005879164198123235,0.014837944819934461,0.004644896186199532,7.57
0.051715687706686345,0.13370521079799533,9.797086816760482,0.003628381608079061,-0.02535681353558819,0.011386094517639967,7.58
-0.023169183093142146,0.057668746601009506,9.780514248260035,0.0018329967723727451,0.0025200059625301685,0.007260105928304328,7.59
0.01573603386845096,-0.019828818236999734,9.906110726089924,-0.003464339317666913,-0.0093535456266641,-0.005303288596232107,7.6000000000000005
-0.08863205807858532,0.026319222368724162,9.76545918390989,-0.01943923280998431,0.011179286515060085,-0.003755607100764359,7.61
-0.007936887232705454,0.003700710478538452,9.725344528732194,0.008663848369925323,0.006271935113518017,-0.00046714683367310314,7.62
0.11207724425069028,-0.07227647242730831,9.997691641058518,-0.009386949824204979,-0.003189791225405678,-0.008486287638883835,7.63
0.08170580637055663,0.08658885296036335,9.622144663851408,0.003882347676153687,0.006010150827422532,-0.0018005144146576355,7.640000000000001
-0.02478790872000762,0.05562778320414781,9.857594581214101,0.007115970848842998,0.012980067622054758,-0.01749740851141506,7.65
-0.12454604728238766,-0.037527552812865905,10.040331530290464,-0.00705974937416243,0.01141518999478791,-0.01782819499168715,7.66
0.05465507527602588,-0.051655980964996295,9.914161691513891,0.0011401270557370147,0.004335190693965677,0.006535248098667652,7.67
0.10036360233630809,-0.04982495986877086,9.892672026112042,-0.006958280855517711,0.0021804892116327897,-0.028749022956845654,7.68
-0.07473456868944062,-0.07735160989196327,9.998453954380723,-0.009575382482988703,0.002344631986103561,-0.007710979871860476,7.69
0.16296450302166524,0.226613691439536,9.655130792918643,-0.0007880165198203748,0.008327768121418323,0.004054379331546416,7.7
0.09855705810469086,0.13421928456312257,9.94103376802111,-0.0056152632909386695,-0.001349107435308904,-0.02260125345502874,7.71
-0.02321277388739849,0.10071838962239035,9.883889191467679,0.011019946736676013,0.005104028284430472,0.005576122539029286,7.72
0.12034816512917182,0.20058645262722413,9.951980072274978,0.013898111050298059,0.0030263959136996163,0.027281008377366422,7.73
0.13713109311380298,-0.09819917334043698,9.85076527450259,0.007939378076163755,0.015433957802394203,0.005383860326612045,7.74
0.028085814663067976,0.23475152229586269,9.83390692921856,-0.006748055796967406,0.005229925882749361,-0.008413609207757437,7.75
-0.1683675644311333,-0.02774490179433052,9.703083332047246,-0.010888935196253691,-0.0052624229000316,0.012662408500792395,7.76
-0.029227796739549325,0.1357247524969349,9.768648509964605,-0.01172028618778779,0.003477440415019325,-0.012875329317931599,7.7700000000000005
0.18648455410031334,0.2608197513380956,9.743631566386183,-0.001499316898681818,0.02045383529167312,-0.0003427775250099276,7.78
0.14782609341134043,0.0453174434629561,9.569612223851154,-0.0017024978095538834,-0.0018564695752989547,-0.01108749542192629,7.79
0.11259867818304015,-0.14638410159394175,9.606697154158793,0.011285105145208365,-0.004581949800622382,0.0157195859292959,7.8
0.020516639730850914,0.08552357282496634,9.861161685004275,0.009687946609585631,0.00815074580180175,-0.0003678899447070161,7.8100000000000005
-0.03270475620691688,-0.10685077605328784,9.781402423911164,0.0024300149963934143,-0.006061123148856925,-0.00972906016645403,7.82
0.13800326063459076,0.010169604804792308,9.7625143872967,-0.00209812949936889,0.013646636841088333,-0.00321748087791075,7.83
0.05275565633500241,0.0026725886186433605,9.785814310841292,-0.01465490376394703,-0.0031126176459220847,0.0025533049255626107,7.84
-0.16237716459980772,0.13937460882564415,9.895137702132626,0.005228985041095373,-0.00267438048845934,-0.022227698065003555,7.8500000000000005
-0.005703895043774501,-0.1888988172054359,9.803563998120287,-0.006907619859116827,0.010071678685014872,-0.013928524694319273,7.86
0.25812427655272463,-0.005345020440846192,9.901697147630628,-0.0009107933091813004,-0.014745054234866446,0.0006598485261703078,7.87
-0.07660771140277906,0.1505470919137963,9.69861595220153,-0.005672227912521109,-0.008367342635937133,0.015475584281644781,7.88
0.12147943290970223,0.07936989617841998,9.926234116286041,-0.005585131291718813,0.00878670601578628,-0.0023687108775189815,7.890000000000001
-0.02900713586647289,-0.04877276389241608,9.798118647679635,0.008006620361138016,-2.2299716368549432e-05,-0.006574941654742468,7.9
-0.0685597404160688,0.04804620181769358,9.878111346711101,-0.006034257404363149,0.005842874742465661,-0.00023439165840012863,7.91
-0.04771223834755506,-0.04166755169633327,9.845340633844351,0.010717610484611506,-0.00683571690661688,0.0031689800478091794,7.92
-0.11767089322630378,0.10079982164444029,9.986091410311756,-0.004296055637700884,-0.004428079875401622,-0.0004930354152162782,7.930000000000001
0.22646676330863136,-0.04089524535271194,9.767819125392368,0.00931335448068955,0.016460133107481116,0.01163229725089651,7.94
0.11803554233264024,0.05022623935854782,9.835762158844124,0.004289050089029792,0.007324442634328103,0.014978668566829436,7.95
0.041648463829324134,0.055986958098726815,9.823189936578991,-0.0209982271637816,-0.012668377983530049,0.0022431209260449273,7.96
-0.13354380110648192,-0.06830194017352516,9.83332997277485,-0.007669042570225266,0.009657554741314195,-0.007228050099797763,7.97
-0.14144322295834882,0.08923971681764462,9.68090757230532,0.003193236976087092,-0.002038198673795552,-0.0008054518330575254,7.98
0.08126539855345126,-0.059296163933682214,9.820716285770814,0.005311678487591569,-0.008577164941362325,0.0031049013244045854,7.99
-0.01086579068778462,-0.03834779725772155,9.733825696978766,-0.0014170231396325942,-0.003379979273456141,-0.011226323125870722,8.0
-0.2081843085795627,0.11472862083376037,9.867802707770235,-0.006009095875019696,-0.0046512114760896665,-0.004005173773749352,8.01
0.04858169551621871,0.20448058454120988,9.767655041716022,-0.0027667924049694483,-0.0073605251277307935,0.012335444483538712,8.02
-0.06221696173688643,-0.1476282524649526,9.660817448275756,-0.013875756413103296,0.01467894028388132,-0.0130118566653936,8.03
0.02080794078041724,-0.007373000463173085,9.95199368309449,-0.012401030761257663,-0.016824004403786622,-0.023896244447437542,8.040000000000001
-0.04612104965873502,-0.1337045877906651,9.893387895639544,-0.005396618097555335,0.010054791185384595,-0.0031416656748251477,8.05
-0.02059452868314165,-0.03364096345877224,9.746696205893778,0.026973476099861417,0.010164756896505187,-0.004592563813047757,8.06
-0.1333496513745329,-0.10319715046056795,9.763885979141081,-0.0048077653009626,-0.0032522168537081056,0.002739870359119424,8.07
-0.12322804055124113,-0.25488562200386755,9.647423979829302,-0.0062747120061343266,-0.012023119151619435,0.003624259238754634,8.08
0.026446559942829136,0.004766097199130781,9.850904387736154,0.005525055279320948,-0.00792917989883039,-0.006514344376108993,8.09
0.17896723547832127,0.10014093836659298,9.666258242831457,-0.005022477102735322,-0.019741632160520845,0.00391758367579117,8.1
-0.19728128278220605,-0.1684949876306912,9.811765683977338,-0.01705036427735794,0.0071101982327971495,-0.005134674355537704,8.11
-0.11645176359837082,0.12250867533469834,9.796503002622918,0.013169266189228925,0.005576775284632953,-0.003807964550975672,8.120000000000001
0.09255544766072057,-0.006653199211554855,9.859233662472837,-0.006021330692017007,0.008940613073302963,0.0035909815385023955,8.13
-0.015764827845483113,0.013860309313526307,9.98599624200681,0.00667486065465147,0.01339638350267155,-0.006197425830840615,8.14
0.04202442741573914,0.1041095659374906,9.967114050753127,0.0028183240883225473,-0.012308336255807914,-0.006875058506284805,8.15
0.04613798350432611,0.028362184138556363,9.76253364243446,0.00021257282080013487,-0.005938266551423646,-0.004965879581580862,8.16
0.14408726446320136,0.05375038650202357,9.85334395646389,0.0016653765734276891,-0.003860744736865675,-0.008901726423030686,8.17
-0.08626900405313609,0.15770267229129387,9.834244282415552,-0.0010875945923214997,0.0039379129912552515,-0.015138824057689003,8.18
0.007863796523043155,0.061862879603138146,9.810282551715906,0.016110284888254913,-0.0007735787560456318,-0.006624749145781884,8.19
-0.14243528972942215,-0.001894063388101491,9.855417415214454,0.001633619193080674,0.004513037660743034,0.006177285372250536,8.2
-0.1173294219528137,0.08462692920167791,9.793953663231518,0.0011069715137998893,0.00010587025326016424,-0.017382087287065907,8.21
0.0619673291107991,0.10086349322087051,9.743168350660905,0.023033610110924495,0.013921981707241512,0.0039835703984649725,8.22
0.06345521704968575,0.15150809627650202,9.828400244630402,0.014376517521745139,0.0021202736004627206,-0.003976477700326918,8.23
0.16751560019215064,-0.2638262753172245,9.668248522158605,-0.005025461682990364,-0.0063679052499338055,0.0027790905735943774,8.24
0.011358244203547217,-0.10130145093433583,9.94282639691002,-0.00034541199721984685,-0.004656582571525841,-0.007670950613879978,8.25
-0.02435085937751623,0.08113209151561052,9.876177708175671,0.017176763862443635,-0.00467535441702699,0.009373515994626212,8.26
0.04146265225861815,-0.13270923483936367,9.824874550805184,0.013921638992174492,-0.004245724695745524,-0.00875266743869119,8.27
-0.012258486168491695,-0.17124609077382283,9.816544920535259,0.00040332237832077815,0.004147340444093301,-0.006762647049551337,8.28
-0.01247406403449239,0.15882069300896248,9.859786806137976,0.011038076123379146,-0.004118716546374197,0.010021952202998893,8.290000000000001
-0.22896781810472963,-0.049906132966857635,9.744077788118238,-0.0017396189302258972,-0.0023315965475916357,-0.0009404966349292256,8.3
-0.04791370462107164,0.06212291417806697,9.951411052371597,-0.0013943086590543826,0.009429794153916789,-0.0008785946112696311,8.31
0.08589000339146363,-0.04730589790992542,9.837300971180504,-0.01241715763748379,-0.0001751397655974742,0.005509156410693285,8.32
0.050408641742973326,-0.1612651702600023,9.827003724369789,-0.007070077350763601,0.011263091180440119,0.005059802527067581,8.33
0.13019585301362369,0.17764343056634802,9.805398171076932,0.007844663103912294,-0.003016461234567735,0.0007023041215643278,8.34
0.18959056504355165,-0.03884148406279935,9.81343519378366,-0.000842762939542879,-0.006523506719376412,0.01476210661607475,8.35
-0.0050214679720751425,-0.00570407869492089,9.912353175935998,0.013591946241550228,0.010025196912703944,-0.012393206816645018,8.36
0.14722974014206597,-0.1777111913433255,9.904405425572495,0.023936758519534928,0.008211508826137888,-0.005906153256157591,8.370000000000001
0.08663106451871032,-0.08418650059320776,9.687207452345158,-0.025664371802924767,-0.008116001845910239,-0.004231037301602237,8.38
0.1041269354152403,0.09553166279329511,9.735285147229286,0.01675581509713098,-0.029184557680182723,0.004696013017347896,8.39
0.11396870633176581,0.06456337341776254,9.92954619368981,-0.0010672618294369368,-0.004395299569755711,0.010306277817852868,8.4
0.0315648510346708,-0.0033045602648530733,9.830367106689648,0.022932157065580126,-0.016670751721877847,-0.022011301936339562,8.41
0.044638512916201606,-0.05553515954121836,9.903827406828247,-0.0026566864193450835,-0.0044435600494920294,0.006624245947252345,8.42
-0.05281558559333019,-0.024238597567322346,9.716087683438088,-0.0017880689013233413,-0.011359089949311089,0.006629324817389268,8.43
-0.11347609029950628,-0.028147762200745365,9.78586708161136,-0.008063473761198594,0.00048284729457611725,-0.014318987183953566,8.44
0.24193416685141483,0.12450257004177914,9.694630654869423,0.002506386218734452,0.0006554566261272314,-0.0013455916260271055,8.45
-0.0595029348086154,-0.08635645859277297,9.96601198441986,-0.0030695415082119906,0.006512933474826001,0.001947291150544718,8.46
-0.130091373916902,0.009644338626583654,9.856088412699279,-0.007117888795009195,-0.000124631170757875,-0.0004886076974230733,8.47
0.08109370381592511,0.19313899053172123,9.745700735170798,0.001596847092211106,0.0008865873665427807,-0.0036999318041272496,8.48
-0.041055102580102004,0.11970191576336237,9.864484580022795,0.006675002892513809,0.0009074390472855403,-0.006980681966762677,8.49
0.06677200148623395,0.19478071248218037,9.738597634288421,0.012962763931685542,0.00724881973019977,-0.004708585046319253,8.5
-0.11556879645979759,0.07590395048682701,9.939424666728286,0.010582622044596465,-0.003082051338745851,0.012701214517199357,8.51
-0.058192640801349074,0.23182940870581914,9.602868865860119,0.01559714104428696,-0.0016047608303213618,-0.013119972676106224,8.52
-0.1645272147583968,0.0019149466862128644,9.957279014043348,-0.009969858467088068,0.005642521079150737,0.002265307464255086,8.53
-0.0435413510723237,-0.02152744404029508,9.860384098866923,-0.011475578617914657,-0.017251992298666762,0.0006007196387816636,8.540000000000001
0.13084531020754794,-0.08869271385838512,9.658879921647745,-0.008708260088207291,-0.004267541677702741,-0.0019483871339280687,8.55
0.08632446031030362,0.00797725606078533,9.976023575473889,-0.003224337984953174,-0.005305490442974197,-0.009686981230287169,8.56
-0.09812746777781335,-0.01627535130114573,9.819650338586625,0.015437665942175705,0.008624975823982686,-2.6377285031934377e-05,8.57
0.08741730728721607,0.08266374635240517,9.972686116838448,0.021079298911500767,0.0024887561576998284,0.007569424731205324,8.58
0.09465535645631953,0.004157141867089608,9.790237636390929,0.013525186700641843,-0.022608105350312782,-0.0037212408904961497,8.59
-0.2712515155395376,0.04182394785879458,9.721783082852323,-0.004624733890663182,0.0025307171283349295,-0.014386685855925072,8.6
-0.054991911260630105,-0.12799000124412793,9.726643909957808,0.01956288871557617,-0.00695067983458872,0.009674965454081927,8.61
0.014315791705510762,0.08494625419668157,9.739717861568877,0.0021261762966046063,-0.011233334489588463,-0.005999783400258165,8.620000000000001
-0.2521511030557026,-0.0963382080418951,10.005317746061941,-0.017155818788371028,0.02256286591638663,0.004246269266318657,8.63
-0.04048951427073753,-0.03856230123018759,9.807985280791078,0.016495337372545632,0.022844254059474524,-0.01852188653822532,8.64
0.11356495122835604,-0.08871066783125203,9.861177825377485,-0.009290478403657865,0.004414978042836781,-0.0043213552108035055,8.65
0.0017772316086802462,-0.016535307491488162,9.767224664694231,0.020535852901237446,0.00407083252522871,-0.004415439984441934,8.66
-0.022790488336013683,0.12269532863881649,10.016767866911442,-0.003932763271008601,0.004430198584818582,0.0032984502064240763,8.67
0.021300870349744653,0.03572876289089519,9.804756191546918,-0.01074862403985948,0.011734481238380435,0.0006893109109676947,8.68
0.10272260046489948,-0.178667090818458,9.694777358643575,-0.00020870419090394682,-0.0008005717987078354,0.0026484251796881682,8.69
0.06332927596608671,0.0951932865125804,9.677159909580897,-0.014843272259618843,-0.004773604869354973,-0.010868295191791562,8.700000000000001
-0.004940178338906316,0.014313037381633862,9.883283196393073,-0.0036831250413281442,0.011470627131297774,-0.0012401184006331923,8.71
0.07899184742825674,0.13202323597557142,9.769459202068804,0.001955133684550256,0.007282076896486866,0.0006164462990010404,8.72
0.11442147950756637,-0.06738837372731062,9.685205366325313,0.00246925036117592,0.010384106205261303,-0.028130682526642647,8.73
0.10104409524405958,0.04620482676461262,9.797878265041872,-0.001836120800872856,0.015779884283962105,0.01561286226614914,8.74
-0.02356215455180477,0.07080225350979202,9.765797031752678,0.0004902044848545646,0.006645965089808713,-0.016960027487510517,8.75
-0.06683924328430216,0.12089378395760604,9.772951958294946,-0.004534186505331317,-0.005686890437894325,0.006910192151175526,8.76
0.03869926912746287,0.0699662285612048,9.741733450012177,0.002846687588838475,0.009710246189960177,-0.0021734202860456925,8.77
0.0470223351236613,0.07658807396505145,9.790709383404762,0.006335606273879425,0.012807937745391292,0.003778012723791008,8.78
0.08413827815294987,-0.0725509003423375,9.773780041371696,0.014989886044936767,-0.0037896982289550925,0.007003019619670067,8.790000000000001
0.12371647797431484,-0.10413906401139013,9.793249906028063,-0.008779545456763325,-0.01159703252855944,-0.014367811973632398,8.8
0.16329614170712572,-0.24274907196260498,9.54825046205021,-0.010174850672060275,0.007961752958345171,0.003260952500551643,8.81
0.16972470074669954,0.008642225844832067,9.78759141698711,-0.012236172602006148,-0.011006391484366947,-0.002145840813622208,8.82
-0.016954217771529955,0.03849989364214368,9.647695228452811,0.0022629800510783173,0.013232967334484938,-0.016489529179997048,8.83
0.07587143991516712,-0.022298295153400594,9.765287837768653,0.014590911218563943,0.01686148467555994,-0.015268640616147027,8.84
0.082794355789994,-0.0828106663321553,9.810439435482103,-0.01008247238572684,0.0012778187127836845,0.012906996544178678,8.85
0.0013736752259102814,-0.083067576155371,9.828756672106175,-0.005480482457711311,-0.009917914660094814,0.004508135206404865,8.86
-0.08234954086538437,0.07114853226024118,9.774399417518019,-0.006552844632297244,-0.012619164795390568,-0.0010677620330684495,8.870000000000001
0.15564883708724642,0.021825855268173114,9.968159903999226,0.006007688864406902,0.006710066724872635,-0.0037758044776533407,8.88
-0.17748275363847493,0.018888058360029648,9.824427636667343,0.01170017236864581,0.009481610961177025,0.0034360809255729917,8.89
-0.25872107537833466,-0.10380437203738158,9.789431047625897,0.00016078549836208105,0.002400366636871898,-0.002721749545575467,8.9
-0.035635603218233385,0.035718651885720695,9.855648604436382,0.009500318303802444,0.014387052387557414,-0.002339150932401236,8.91
0.22888015544197016,0.0740227198494528,9.703171284789759,-0.008428605928650221,-0.01140622789568527,0.008339898260865834,8.92
0.0011059173458712105,0.170356803644493,9.821432876582229,0.013514698040987125,-0.006917078456463141,-0.009120081379965634,8.93
0.044953957206065195,0.0014603498353819018,9.702717897694916,-0.003359050740816333,-0.0019310006527324744,-0.0055738131860311605,8.94
-0.07921850378887768,-0.07119725270915485,9.736870174486628,-0.007012150178188578,-0.01416939678406575,0.01056096049202198,8.950000000000001
-0.014716598972572041,0.16180421015540325,9.915654088505914,0.029293445854139653,0.007563126407343174,0.0072726912767789465,8.96
-0.07757472504442821,0.010519938127146427,9.863451792689363,0.004757014777695536,0.007078251201230955,0.021143553405187646,8.97
-0.013993837713746085,-0.006711521658742694,9.97180405255915,0.006817766117857644,-0.00764766555099317,-0.0018293722649678984,8.98
-0.017945716555062347,0.08057009926435499,9.829596416923826,0.013530907626587395,-0.0056736436988562905,-0.000658451897498391,8.99
0.2046392548832534,-0.017301694032384057,9.768738480921666,0.0004815693725072848,0.011001034430642542,0.0014433548173930508,9.0
0.083756526164541,-0.05405989088887068,9.985271669949014,0.01638134386998274,0.014362629849014685,-0.01662199574047334,9.01
-0.03826424672190198,0.1258337983538336,10.008670732683457,-0.004359260044789337,0.000542317387193904,0.0032985757995344345,9.02
-0.014253287369493712,-0.019832447753179102,9.90490130913359,0.0017147339459692035,0.006395324951823239,-0.0023363100089746915,9.03
-0.0005807133718974396,-0.011303278514120566,9.911082636796234,-0.0018739646745162095,0.014366898129584563,0.008207724150136852,9.040000000000001
-0.006440109378610954,-0.06543357717392428,9.905685488909283,-0.010643180993231837,-0.013374756263529478,0.01490634710950165,9.05
-0.03740283854615664,-0.06718899605312458,9.914181835658285,-0.009578201787347248,-0.00797446672164628,-0.01003546405064755,9.06
0.05268382373751506,-0.020390530998320996,9.789310462404982,-0.0032658011349178083,0.003716434874648077,-0.0034308947822487635,9.07
-0.08351169388597937,0.04740525766356294,9.69172679446416,0.014395596827745724,-0.0017924252124483524,0.004489040483372177,9.08
-0.05538674060456139,0.09298977760152882,9.958656159129577,-0.010443663406834378,0.003994922266827786,-0.012583009660820559,9.09
-0.14398973802355583,0.08423521179675225,9.791282483333157,0.008708548565238254,0.004429427205560785,-0.016589425506888064,9.1
0.047853897050753186,0.0851719662415692,9.94642404364458,0.003967107092355889,-0.022285599649362192,-0.012100136293390146,9.11
-0.09694269553310039,-0.12014996983267,9.774001130116286,0.00120725858988445,0.0002059210894152368,-0.008044970800538797,9.120000000000001
0.019967560378667135,0.08327604967601394,9.847785693628811,-0.0014747116887583863,-0.034408898482499145,-0.02276470664645877,9.13
-0.09480227440548279,-2.2989573747543832e-05,9.744811044852655,0.01094897948782468,-0.003330017052049006,-0.0019014297660436934,9.14
0.0851943163967665,0.18111628029134735,9.807856474089139,0.0024933019692056154,-0.012716048984354642,0.006445861745617302,9.15
-0.07238558774271525,0.08513170324720704,9.868615760841017,0.002448933178861423,0.0031521071973435394,-0.0124526930099965,9.16
-0.028586868859833966,0.10972177748552898,9.857974758293384,-0.010608366057483387,0.001123732859816783,-0.0011830907217740957,9.17
