ax,ay,az,gx,gy,gz,timestamp
-0.07223751899217959,0.04185316202565598,9.963886359262329,0.0019086580865384144,-0.01784649136068196,0.009106855131128376,0.0
-0.10258458235846127,-0.012072074192397426,9.932463182463206,0.00024300218770460357,-0.030071789025053117,0.0015830975928616828,0.01
0.21985003783873897,0.03377468452299034,9.665809448421049,-0.0101383101363615,-0.009602712239824757,-0.007170416644323306,0.02
0.06254140697215323,-0.15243536969331214,9.666679474707173,-0.01152589317753222,0.01647678682610383,0.014735912905007609,0.03
-0.07820068367619064,0.0931859781240976,9.781837622952347,0.01122628783205503,0.0013690491937224148,0.008260173898917618,0.04
-0.031924582233074095,0.08554606385546082,9.71867963854119,0.0027199137929053295,-0.006409049723186546,-0.014836105539091995,0.05
0.017606996666028978,0.1610084911853171,9.836103845041006,0.028409731519560676,-0.001861007889803343,-0.0007850976936811862,0.06
-0.08888233433544501,-0.003323375961670103,9.783516328889997,-0.004940145639789822,-0.013944310838173293,-0.01152953601552513,0.07
0.017825159884162237,-0.1832772261196993,9.80005098211876,-0.014695478283457445,-0.007521675756485141,0.010914919914594185,0.08
0.0001381924906263569,0.027264202016468054,9.806184857677744,0.001035910924102175,0.00018676679672689552,-0.0030249373711118983,0.09
0.03552007246724278,0.08129249378520383,9.831121009005528,0.0156870230849899,0.00305427802918411,0.019420656888891996,0.1
-0.07896862905421621,-0.04745728454642975,9.83558784749689,-0.0030254386910886734,0.02420578973824014,0.005214367095735332,0.11
-0.05361828097932652,-0.05150966327253334,9.716505097964822,0.005554644339027236,0.0016806449268170697,-0.002754525582793702,0.12
0.1256701344333346,0.016508067238412836,9.838261687165632,0.0020030742046003923,-0.0068812179912568616,0.00620445557935912,0.13
-0.047826302279897655,-0.28902066817343547,9.923724864150836,0.012133195618766936,0.006934672383384339,-0.006716558787512704,0.14
-0.08930957284743438,-0.06703900596898901,9.851665746800021,0.008096208093136648,-0.000715653606207513,-0.03239066822906331,0.15
0.022132003691750144,0.09566732234840325,9.863676078413492,-0.0009256774099653903,-0.002789744031628225,-0.0022276613648476383,0.16
0.041523668596423355,-0.24350884165699127,9.64479556231465,-0.000979173709704543,0.00637857368622658,-0.0010427942784674528,0.17
0.11256059959960277,-0.03004897660237854,9.949643266622708,0.002160536450078866,-0.014463458793186173,0.006087269363373976,0.18
-0.1034791435518092,-0.10104227267440793,9.640750868098902,-0.00380843589478093,-0.007676860256139572,0.0017056129549013774,0.19
-0.03825628419382476,0.027943776180031684,9.777274018976824,0.0029068397871422577,-0.009190418180696519,-0.00347813407672533,0.2
0.09308517288001969,-0.19713060064638066,9.801655468859387,0.0004943621716755536,0.010895527378104546,0.003662165379705829,0.21
-0.04255245225883139,0.04785806087905414,9.831073188600817,0.001415364920269879,0.004367553429355375,-0.006877698117518525,0.22
-0.23487324702259937,-0.07994579066523454,9.607906003980247,0.01705149889838561,0.016023567666862592,0.014590004918122908,0.23
-0.12770258492972208,-0.09496685589948556,9.974349479612211,-0.019931735260956252,-0.02210542609575759,-0.013249125650224444,0.24
-0.05323746166428557,0.045557376792242026,9.854681789932156,-0.009760545790478336,0.0026578531033372922,-0.0068140800521621836,0.25
0.06092184328464273,0.038196449493186624,9.850739290972944,0.007721571236447087,-0.0017894407061902727,-0.007563785627157696,0.26
0.06864218233405447,-0.010774104231011022,9.68863427553804,-0.003741016611385161,-0.0028553868845078425,-0.004382253911288563,0.27
0.046067214841525275,-0.14138917055316688,9.769752916986286,-0.002698380740579014,0.011990776487587385,0.004418942415512258,0.28
0.06753957393141458,0.010429196646704587,9.688635415985543,0.02605627149805963,0.024165285718022372,0.0020622491004240098,0.29
-0.07977561277919351,-0.05657422840910247,9.839168130482875,-0.002924985459625454,-0.02048070941299709,-0.006816003011029324,0.3
-0.05268796758998201,0.12250533012771699,9.77796203912148,0.002392266408901975,-0.01711394743751595,0.005183050664418863,0.31
-0.03425018733717896,-0.19903185472518053,9.75259279791765,-0.005014805006981205,-0.001973112912031753,-0.015433111627085728,0.32
-0.15142491588793683,0.24183498042661886,10.015098960445743,-0.006901210017650217,0.002986125979902106,-0.0032140254154841463,0.33
-0.1566268260243578,-0.008763803455853272,10.064566684135084,0.013177127566431338,0.009534695435076705,-0.01972608135175063,0.34
0.10148825954346258,0.10396862551350249,9.69290447867198,-0.007894088487679512,0.0002927801489543309,-4.421269324198195e-07,0.35000000000000003
-0.13143488789122323,0.06920005488333919,9.627176584522692,-0.013657039126631321,0.006446592288893933,0.00595801561574535,0.36
0.1316044331951864,0.029699378394847077,9.745007897556713,0.0045948813232423065,0.0009639245555206806,-0.015569713290205317,0.37
-0.022127961331484407,-0.053612423263965196,9.67929783783954,-0.0025970583947092776,-0.0014738780845762567,0.015038384406827207,0.38
0.009290009082061105,-0.021553644549140757,9.770691773250592,-0.01610456280031234,-0.016865085941582116,-0.004780875366096525,0.39
-0.04175467697401252,0.1825190920509878,9.801608490958447,-0.0038560756874252344,-0.0017122860049147918,-0.0005217416904782944,0.4
0.19928848583992934,-0.09970625208493727,9.80446970262565,0.0032992309959496355,0.023374957648225107,0.0041714896956779185,0.41000000000000003
-0.1319102553950902,0.1724358744409812,9.928187275403447,-0.012800981901006538,0.002749102158013064,0.0006869806806920828,0.42
0.07910252749588402,0.011825221784807896,9.754400260448588,-0.007868145328015967,0.008188718464459385,0.0025724204156300583,0.43
-0.134694497764091,0.02868945468123711,9.624399840026296,-0.0063015075128197455,-0.017808492298304387,0.00726252069315741,0.44
-0.044690640542009,-0.06811573513527497,9.836796980871181,-0.0005125719694530688,0.020543987857436864,0.0036440979081494387,0.45
0.01620471765527354,0.2311969812367911,9.792957570163384,0.010574511666683993,-0.002328045471786505,-0.00974178718692195,0.46
-0.03288458669283386,-0.17859764194522576,9.942486987126632,0.008693476871173838,0.020082879546381504,0.026826757005006835,0.47000000000000003
0.018422015428540935,-0.1324142924274204,9.736977065250905,0.0033058594697823345,-0.011818682267537668,0.00580777894083749,0.48
-0.039966070295430846,0.05777211750605474,9.731762062800785,-0.008711354090053233,-0.011522666886453446,-0.0036445874993071385,0.49
-0.03946226117140503,0.018347577893373986,9.871079430216957,-0.01684681457794163,0.003930808329851784,-0.006019213795314572,0.5
-0.044224210746600726,-0.03755616942248581,9.9479615598882,-0.012018329758544477,0.005216798082176725,0.01975041761742769,0.51
-0.020928768272718737,0.2092262726037104,9.73071792185102,0.011376959470238398,0.0014531094306373912,-0.010506131410557123,0.52
-0.15961817466405434,-0.052325353950367505,9.88764085606106,0.005695341824709642,-0.007077418571486357,-0.006921974179651591,0.53
0.00591864758184471,0.032460385546058936,9.831761050650918,-0.0164915338421413,-0.004795234444240601,-0.010518903310660495,0.54
-0.10395500018761926,-0.07231782654500761,9.838366122311268,0.0018910453618116458,-0.009526030692223296,0.004678245155220025,0.55
-0.18016363346060701,-0.03155004049557341,9.899929733015357,0.010602060110474236,-0.024083379084549855,0.00561221579249828,0.56
0.0010809385214612238,0.043331969889675304,9.754826728908945,-0.009459535576733225,-0.005391063779975348,-0.004560784278652439,0.5700000000000001
0.16374503004032342,0.03985427465220013,9.82484542713761,0.0038638884683985975,-0.016294246819012207,0.006084690333461631,0.58
-0.0877766147781901,0.0007698289116898375,9.595211662316153,0.0057157254566961415,0.0014392816112600464,-0.0025343768968462024,0.59
0.15158074481452438,0.01172524871651678,9.851913581114323,0.010376838461047668,-0.004903826602406575,-0.02125557175940986,0.6
0.041182511807173694,-0.11034228827429977,9.730188050394403,-0.021086479748868698,0.02366150440847413,-0.0049077787737843775,0.61
-0.12257472365137595,-0.1471561810344451,9.581580958058904,0.004927002721646509,-0.005842952900376701,0.011752767674164364,0.62
0.212436848980326,-0.018107473336438636,9.768601964490562,0.004723569291112259,0.011542209477751648,-0.01917070486319159,0.63
-0.07009161097882734,-0.05636214107228529,9.877706723206229,-0.0034915483899013123,-0.004320336022307049,0.0032755581839085625,0.64
-0.01590702217379738,-0.06060491495305897,9.824173416516787,0.011373003817489515,-0.00994598895043065,-0.005463337346563807,0.65
0.012090950762052766,-0.02250766088350209,9.853795490230237,-0.00500704331776453,0.00608730729093475,0.004053532674620974,0.66
0.1531253769018942,0.03011257146269693,9.829224468880744,0.0032307379900179583,-0.007081014719581257,0.008079059413131345,0.67
0.1500746370109068,0.004300490148834337,9.81556358046628,0.0037137127368178646,-0.02211414555742888,0.004306664716298326,0.68
0.18683143956445755,-0.07291217995077336,9.785774228606911,-0.00045718173297156287,0.007099882658683083,-0.0021776590483365914,0.6900000000000001
-0.031033983151489336,0.14934930088927423,9.793209938318808,0.01452747824707182,-0.003488196998562067,-0.005697857358377095,0.7000000000000001
-0.11244786466570163,-0.21479258962316194,9.899275667977813,-0.0022862945958361048,0.000256412106313372,0.027620011256135682,0.71
0.0669581919297368,0.1484980447103939,9.876603750816281,-0.0038461626103993476,0.011964599827090278,0.001868542844231243,0.72
-0.042992238963314125,-0.029416216567592926,9.790971804896575,0.0005699157610418066,-0.00450436732303256,0.002048370428096795,0.73
-0.026105600552904437,-0.008106911015784245,10.05163238964188,-0.0005080684521983321,0.014217283729240013,-0.01668966350658452,0.74
-0.027581719792679035,-0.13866237163676848,9.744805712061616,0.008875601628201486,-0.015771790027542386,-0.0005100492526892688,0.75
0.08315736486006675,-0.15739372323235357,9.738288219839971,0.002890249531736226,-0.006332462624028997,-0.002701351400302025,0.76
-0.12829442016755577,0.04107185772381815,9.645154210086806,-0.008307685293265083,0.0028989231136508533,-0.00026697824340165004,0.77
-0.07872475750509554,0.09266766884688937,9.635042791832495,-0.011020805999128067,0.0044367027887961905,-0.014660510794660266,0.78
0.20984071208088872,-0.10739175841410042,9.606378707220435,-0.0032719793374331413,0.0024753702714515142,-0.009922347460213636,0.79
0.013470236538528397,0.028398059342670652,9.903276157407015,-0.004082362121615766,-0.006650848130418357,0.002130738670798234,0.8
0.22578202990963372,-0.05348292860987006,9.931922646801706,0.005144668142555471,-0.012914039745580242,0.009169268974521111,0.81
0.10451365094786327,-0.12447707391308466,9.70843119327194,0.0023269982132283697,0.008994199570266072,0.014856951950433817,0.8200000000000001
-0.10137197775659601,0.09075696946064495,10.000886171403307,-0.0032785855068770886,0.009769564369602088,0.006202805613935797,0.8300000000000001
-0.11512967568635442,0.19519493154131728,9.82045747439185,-0.015424850163085889,-0.007285870786685176,-0.006640556353589393,0.84
-0.05031951807562304,0.1303618923753374,9.736612375622517,-0.005000098247250966,-0.013952238260888289,0.0033674586869643403,0.85
0.16735052845856382,0.039242689983093264,9.821747352059246,-0.0018425568933899377,0.0011042553731548266,0.006798267580116736,0.86
-0.04779720940998197,-0.006209227373996901,9.791018067127887,-0.0004531179019801464,0.0036464519363572524,0.009091294724457012,0.87
0.20113242160601505,-0.05597552054929608,9.624088881233625,0.0023749538813247744,-0.010590247446000097,-0.0009048376384342546,0.88
-0.024009880865940508,0.05187133334645299,9.685061405953517,-0.008970777943807346,0.0006832179797976408,-0.0030543251051904506,0.89
-0.07293842353212288,-0.05576114039216732,9.921370027943034,0.008844290255487176,0.008455873758656205,0.010156352086128962,0.9
-0.13707392246714206,0.0027055787050256504,9.812172898630424,-0.008349101664727084,-0.001521051395449136,-0.008322681668165887,0.91
-0.09481087581324926,0.09433211285377766,9.924621818327303,-0.0002695229679814488,0.009046428919691537,-0.004862370301572769,0.92
0.04219057698803313,-0.23604886832607008,10.029798792065842,0.011738554087949637,0.0021230149458321135,-0.010963249789238303,0.93
-0.09013352157746941,-0.07175914394961906,9.822466848188277,0.0027106189576507197,-0.0105463638063432,-0.0014746278859344689,0.9400000000000001
0.08450091707266533,0.011323466286414115,9.731531551682858,0.0035030567188820932,0.0005424042393178057,-0.005875751202068403,0.9500000000000001
-0.003006050369711887,-0.029223313141098186,9.823420660488425,0.001567066260453464,-0.004960212358861169,-0.008594649547720821,0.96
0.043516980540240904,-0.10302162603578889,9.768502671869527,0.016775761101628255,0.0044132160955661515,0.0048295498528533485,0.97
-0.05191637503907595,-0.14407640179378983,9.624717312107721,-0.016006562904429637,0.0050642796110824855,0.021170115654620635,0.98
0.0695960397799047,-0.10412821329754905,9.818138473953686,0.019228965492187878,-0.014376138675527641,-0.007548552406639406,0.99
-0.21503713968323312,0.026240996909165745,9.847572215045485,0.014306571346426614,-0.017412883989299955,0.007316939070601625,1.0
0.048701027197258266,-0.1152601958757402,9.931781897794254,-0.01595419363628169,0.008969564531270428,-0.0025427453249824163,1.01
0.09556677343412079,0.009892276535076986,9.874912993881148,0.004293105481798903,-0.014375474824604785,-0.006057768405913158,1.02
-0.0112415822188114,-0.21673218592798646,9.746170854028213,-0.010997102626251592,-0.0006505589428049312,0.0006919089974265829,1.03
0.15220766098364738,-0.04429011296790994,9.78130671747465,-0.0010811330154985453,-0.01652034608986497,0.0011889217920782022,1.04
0.10856907417548362,-0.031383456764321874,9.73618432430078,-0.006771966721034828,-0.013938581187772173,0.0037910991053760417,1.05
0.1841370034373203,0.12625786583221535,9.755670348334824,-0.016486939832487356,-0.0034844279183317618,0.010003989144329135,1.06
0.05562252669121657,0.0187284339904337,9.695432491736838,0.007681481133806527,-0.0021895621570450596,0.0075370586045204,1.07
-0.1715202639847709,-0.07417772206335137,9.838853631945582,-0.003456238470190601,0.0005028131622772399,0.00938326382825368,1.08
0.11638507328008317,-0.08999761027473299,9.679851187158985,-0.008325056763715432,0.010702034595113983,0.005915867457172176,1.09
-0.07899041116841211,0.026177431546687398,10.110626863810708,-0.00011725892924511276,-0.005158932491658432,0.023182481367258024,1.1
0.051603689269528547,-0.06746652917389359,9.74400728396368,-0.014625700040554517,-0.008435105825862212,-0.00159886428874906,1.11
-0.12233521528882185,-0.09483548673038858,9.907035106540683,0.016509734035340062,-0.003609669494119324,-0.011853533532377374,1.12
0.02942768464700504,0.06420656649191009,9.817886697818851,-0.013985372279513795,0.002911724862938191,-0.0007023416905008824,1.1300000000000001
0.02679306474286884,-0.10283920225338727,9.788005068929232,-0.002709397836240716,-0.007059719372021836,0.022022558093600854,1.1400000000000001
-0.04788413325306973,-0.1929059218737288,9.953981210092698,-0.0023096751854114667,0.0077793415122963715,0.004467895402405143,1.1500000000000001
0.0628274525909866,0.15033950631867443,9.721515703516587,-0.011906674860055094,-0.0020383273076902252,-0.0001619696284701688,1.16
-0.13273940304636556,-0.09849935410270987,9.673573378810932,0.004398941580981259,0.0265645159239576,0.0044692493344359865,1.17
0.06723692845355107,0.018176583346550406,9.839146534006938,-0.002350805459584314,0.0047127975195880795,0.012948108557210304,1.18
0.15921226438170566,0.039641062269574666,9.926664959925334,-0.009184632007139789,0.002193457015384807,0.01022525443645704,1.19
0.0928802526399407,0.05416420119643864,9.861046079169002,0.005294674711904065,0.01603719811802354,-0.00026845254406375664,1.2
-0.13722302998436597,0.14263350341080025,9.786933055101812,0.008944006957736296,0.0026213391561618897,0.024856544420227836,1.21
0.07459047238005348,0.09248058751542204,9.751930374294357,6.516464276751634e-06,-0.010753307390937088,-0.025792520860237346,1.22
0.024790374187691998,-0.025744017611160137,9.65359247539508,-0.009925431401360594,-0.01041222864986133,0.03725481721774221,1.23
0.11739697842053572,0.03366154237035126,9.7073448708099,-0.009678860508633607,-0.003973413376036662,-0.009495678743283857,1.24
-0.07096647069101254,0.008610823556360536,9.910648513945048,-0.006697729118064396,0.028455958079562343,0.0028365686959076074,1.25
-0.15338793512299628,-0.05931601791092041,9.919068221298069,0.003490198557908041,-0.005806716140973758,-0.023286554495097204,1.26
0.19272167046302416,0.008069635361179182,9.873298177576697,0.009931996785068745,0.002775813189362894,0.01517207067331394,1.27
0.02275288583172406,-0.1484913399728412,9.837264148935942,0.0032017531267028937,-0.00170067088024307,-0.0033948206718790288,1.28
-0.19569112629808685,-0.06162353660131138,9.961679241020207,-0.015157795144446097,-0.0028441460265849995,0.010885048944837987,1.29
0.1568834690921317,-0.033774673108895086,9.778208392643823,-0.007696926246854811,0.005691508799555341,-0.004282758044366205,1.3
-0.04331814422114143,0.02701604728939477,9.998034925508563,0.01669652461533867,0.013172953711766225,0.0032605176538668683,1.31
0.08912784429000678,0.069793113332146,9.587511055396579,-0.011086632415091875,-0.004405564983939921,0.0029003310207847493,1.32
-0.14854523525184113,0.06718475435497967,9.742187703571537,0.012044259644496721,0.012721906015313717,0.0051738668150769955,1.33
-0.0702658506108753,0.00022894255681851425,9.917273555877923,-0.006894597579481951,0.0011398524671811863,-0.006578524561803718,1.34
-0.016516416044104275,-0.001101061681155004,9.840417220576313,0.001255444537604638,-0.007533371543599821,0.013807341372316057,1.35
-0.06883894161489021,0.14753540543493213,9.9087311999934,0.0024017498368760206,-0.0050533531028611545,0.0010336950432551636,1.36
-0.1301726426629388,0.006853863724657277,9.72146737895466,-0.009266048355646744,0.0010242107147352647,-0.013695803172187842,1.37
-0.03771690332287705,0.03780583228403526,9.864454624275954,0.018888764213373217,-0.0023090236443697497,-0.006733825559444263,1.3800000000000001
-0.035255976710883555,-0.05675335961237489,9.721607069404797,-0.022176240647540615,0.00535181904531359,-0.004833890159589478,1.3900000000000001
-0.029430630963816224,0.04480703844256968,9.579123820819232,0.0019053701977137208,0.00876373433418503,-0.009991995555507414,1.4000000000000001
-0.02284207487808944,-0.07564746319715324,9.767564931522376,0.0009678213357731995,-0.013284224649881446,-0.0015421154026677938,1.41
0.08599356206822208,0.043460002875121466,9.926262999006571,-0.009360417795080105,-5.10713979909895e-05,0.01524290542644625,1.42
0.0315884763013065,0.07888073529569722,9.841078164504108,0.0022403721641556626,-0.0002677627108211425,-0.0094683951329462,1.43
-0.009117017784170156,-0.016258623060220214,9.823011980870131,0.008220315189885682,0.014951531396868164,-0.005054529574648831,1.44
0.10957390831805994,-0.08440758444917285,9.676719021601212,-0.008405396078422332,0.006359769515207297,-0.005303401459142359,1.45
0.012269773254214201,0.05570220987645608,9.779337011591911,0.012012936220205302,-0.0025259080829514746,0.003945805948416686,1.46
-0.07245003947753738,0.06435967032785801,9.65086697037819,0.014425654040334997,0.01578129058893044,0.0037794164942969288,1.47
-0.08984185041722052,0.08773860177849632,9.794581392309134,0.001307854383696837,-0.010935208006029738,0.010786550519130179,1.48
0.05383481138031824,-0.16360391094486448,9.857903731311861,-0.018192561637029387,0.01627941869058156,-0.017401674646925176,1.49
0.05548007933790389,-0.009131240027052151,9.919137359541425,-0.007595375406414195,-0.013642085254477708,0.0003688837943626672,1.5
-0.03181004028731795,0.11739673510131106,9.720213238184318,-0.0009605237259965026,0.014885424044865116,0.0031124791389211598,1.51
0.04997551447439497,0.12464716028283168,9.72214424218692,-0.0013352718842754977,0.0037915361268779425,0.0014687095929464366,1.52
-0.06520132173376185,-0.0677640692209616,9.861330182908203,0.0025102240117302254,-0.012262280824273506,-0.009442648714198035,1.53
-0.020530310319977735,-0.014029508390941043,9.867834906190325,0.0035350661918327076,0.0046071420878121,0.002519964319464264,1.54
0.0016259583162430515,0.05194028358407593,9.821132968217814,0.000704381800065531,0.010350134643008631,0.002396592944166058,1.55
0.19529158002074432,-0.09504654315380001,9.738994908730463,0.0015078750432481846,0.009336580605797794,-0.0123354180594604,1.56
-0.17987888640750083,-0.04331435482843558,9.956757952858561,-0.006766344314171546,0.008105110824892294,0.012438008171089395,1.57
-0.034556572029391684,-0.07824166385983229,10.00077821258928,0.00011121424584659288,-0.0055000222095890495,0.00746139307293859,1.58
-0.01060438923953376,0.013484317920001376,9.76687441194478,0.005974087482439623,-0.005175881031099787,0.006017091361221581,1.59
-0.24061897782411512,0.027385353864765913,9.891481324586739,0.009339394091352543,0.007209789541277975,0.0034465648620373318,1.6
-0.049182112769052086,0.007746419295027298,9.774341119497494,-0.003669252943369311,-0.012935499364185397,0.0022053691061283166,1.61
0.1941320676614729,0.20244288020371162,9.701644953617711,-0.006577513716431751,-0.010577678260444548,0.011167441156475803,1.62
0.049471788874481976,-0.047373590846220996,9.861000145563299,0.008607851705975274,0.0023570681975747963,-0.003789566068337138,1.6300000000000001
0.006829863630858468,-0.11774449108104212,9.780686732235628,-0.0010520099897005652,0.0028613186945362435,-0.0012665632869777873,1.6400000000000001
-0.009712035999741044,-0.05352978795870346,9.704064473005662,0.0013488140553095827,-0.0042196827035557325,-0.017287049837674248,1.6500000000000001
-0.084896501343224,0.012982557355937658,9.838270722099299,0.005520077994228332,0.0011230194585208138,-0.017020231541970028,1.6600000000000001
0.1980584448203824,0.003916822945222788,9.902363627963382,0.011527336496712915,-0.002898895206892894,0.0008694428327102975,1.67
-0.1760444780018391,-0.039806139201358316,9.878872448925552,0.017513623594547993,-0.008552415384446135,0.020151594440488793,1.68
0.031538549442735965,0.10158137837660766,9.766088997883557,0.004337815349449533,-0.01034783257779696,0.014171044960373077,1.69
0.014400648859189975,-0.13129229106415927,9.875695876752394,0.0002806163105403336,0.0024745280449234826,-0.0049739558285067514,1.7
-0.12882841864920833,0.03644125397976155,9.987788725125602,-0.0009205071773892325,-0.0011152299483475846,0.01867675703170879,1.71
-0.03923882939669026,0.005748765293207798,9.681251665446633,0.014193997771525307,0.017360301305120188,0.0017707562666848806,1.72
0.02253381628141128,-0.11145208675341432,9.874504955936343,-0.0162566925565698,-0.0110626323904279,0.016828454589891493,1.73
0.10648744096127212,0.03003105948902381,9.902862365263418,0.007976852879215983,0.003569018867415319,0.003107989674125796,1.74
0.017650053737052484,0.016500884174872166,9.684146505183008,-0.007328385392328162,0.0001293426430475719,0.010123506790514061,1.75
0.14104725639446483,0.0009252132171736868,9.759068717911703,0.008131080368760096,0.0013323085760705438,-0.00696951332161681,1.76
0.04283363821186395,0.16630789786786096,9.865697846107404,-0.0076982826161495835,-0.012478762646090096,0.00836481623839238,1.77
0.0043205656265136744,0.16252064467067562,9.844373884687215,-0.010597822921448704,0.0004239693754335947,0.005435464103262678,1.78
0.04588852044690512,0.10396078768669442,9.756828142666162,0.025388195617863773,-0.0073605291459544865,-0.015391798998502829,1.79
-0.05589441647462552,-0.04922814782373438,9.820731345495858,0.007157132817635804,-0.015218004794598124,0.0035691602920762174,1.8
-0.01253972578838046,0.06943950283277464,9.802728331621406,0.011707020803216138,-0.004359175922486036,-0.013337574827547154,1.81
0.00656494545222434,0.15621984875439188,9.914394823259936,-0.01434863884443013,-0.0016894327454711287,0.011430729679263549,1.82
0.011832614013614833,0.17315819027728865,9.830691540260519,0.0023732651717581466,0.029957750026957244,-0.0030088745142829,1.83
0.10724854948295831,0.10343963407869626,9.999687988375152,-0.008139507449892973,-0.013315777715858075,-0.004461070643226006,1.84
0.13253810344657588,-0.1572381906996907,9.715716174574363,-0.025085754322641384,0.00948612982582525,-0.01899026859518835,1.85
-0.12000178285442727,0.07655218474270652,9.93533288710123,0.002118874865704903,-0.015174095746903074,0.015245859253489924,1.86
-0.12447585242450142,0.05350081644516807,9.873770700135596,0.0052213024091418885,-0.0035082608219871893,0.0005699560660657725,1.87
0.002490744892200466,0.12690086052785374,9.744723919599785,-0.004714765158238366,-0.01585205903271974,-0.0146578553203852,1.8800000000000001
0.014343498822954,0.09332336120664732,9.789743269407161,-0.015111676775347676,-0.0018979517555553858,-0.006298367721088794,1.8900000000000001
-0.13197448546565385,-0.007000511788235808,9.938551830507674,-0.01822871555716684,0.010357131790136727,0.007348145721395788,1.9000000000000001
0.28757819983246313,-0.08864494972329345,9.828242011183054,0.005027768552526949,0.021014875813927743,-0.0028629277261395243,1.9100000000000001
0.1816991729410588,-0.046734088955602354,9.78392333839486,0.00029611897853403435,-0.00125946435101961,0.01821200825894035,1.92
-0.08263306766984092,0.016078971591971757,9.627069220924197,-0.00866248885994804,-0.009256839780957551,0.009852485800854998,1.93
-0.06531838068190185,-0.08442302513350651,9.83262448782678,-0.003891326125917217,-0.000851714670963853,-0.006044191428494338,1.94
-0.22709093039764905,0.05956258481624871,9.729885973228063,-0.011970331862284987,0.014894450331909906,0.0012371406764258687,1.95
-0.08711291089101467,-0.047609891616404776,9.768592400958463,-0.005419067599479923,-0.00838315647471272,-0.0188541673296436,1.96
0.06941203953993964,0.15978785203909043,9.879804211314038,-0.011549582593184185,-0.009372286097111262,0.0009936875872804236,1.97
-0.006939185746111683,-0.031549450710273264,9.829354431629124,0.00970692430470673,-0.0028371692394651626,-0.009583065152711298,1.98
0.03828283868058379,0.0367547866475696,9.793081997630855,0.009389351614744263,-0.005666194402556709,-0.011038262659794197,1.99
-0.16086859983577695,-0.04540773958688506,9.80303297701431,-0.007601563726978817,0.008665229492863965,-0.013769324019091842,2.0
0.10178536668295098,-0.08935612498271031,9.574819120120136,0.0031770172293112023,-0.011207881789690566,-0.0032975761975151435,2.0100000000000002
0.08132334582993905,0.10497899587847702,9.80494906906471,0.0013630901983863485,-0.0037521947565422966,-0.013328446265532812,2.02
-0.12506961962604743,-0.048041487495665974,9.674671805459736,-0.008618872498044916,0.018676905500068532,-0.00844448491703553,2.0300000000000002
0.09570214542381483,-0.12255256352357942,9.780809178593914,0.013139859171273994,0.018515931598602813,-0.006233425585110067,2.04
-0.14080576963533606,0.016175894038737433,9.62675553065722,0.021962520510810945,-0.011998522048841258,-0.0003915288938790975,2.05
0.17344686670660772,-0.06797141503170674,9.750435764116412,0.0017324864507005792,-0.0029890743278230885,-0.002516500381247058,2.06
0.02504731474695175,-0.013799422135607947,9.691371331408597,0.0014305441407102995,0.004203979593129673,-0.005784738052319797,2.07
-0.030634571928607864,0.008963045838056752,9.92963167232497,-0.007037267178246448,0.008781835938003286,-0.004397990497778008,2.08
-0.12543083228500132,0.072413414116965,9.736409952572968,0.0036478548634580887,-0.011687053978630898,-0.009153269849553412,2.09
-0.001649293053154492,0.02502319435427444,9.704261646201402,-0.014266573674117683,-0.009938267765147972,0.012961880488617423,2.1
0.1218250699469547,-0.02329466072698686,9.858241877431128,0.011382491697366246,-0.0021238966086337325,-0.02108114218606332,2.11
0.0781724936775642,0.05651161120659548,9.880253016636482,-0.010265997370025513,0.023801183198424024,-0.009437797314870969,2.12
-0.10117992536766646,-0.10728596352017966,9.886375403180207,0.012930433865990788,-0.009298667354971224,0.010096856517138049,2.13
0.0264039319583274,0.0253724380457742,10.014723727873323,0.00043488752747163984,-0.010274460319816317,-0.01162809242878347,2.14
-0.06095730003064001,-0.0021307547877680503,9.626420384973699,0.029120926085383556,0.014315212537292819,-0.004362605508492671,2.15
0.02761988154218198,0.06071141244798759,9.74760379687047,0.0014113976398663181,-0.0003531302309662806,0.006805201722164933,2.16
-0.11886322055029395,0.0772448905794386,9.791151476922415,-0.011966684487182536,0.006788708357012756,0.031817665794431405,2.17
0.0005447815470618907,0.09573885108948295,9.811600201822921,-0.007658820937713885,-0.0185537109525848,-0.005171918794860489,2.18
-0.16608526252382377,-0.036121112860727854,9.961786453767132,0.00483967562439881,-0.004100241887513478,-0.008269065550009934,2.19
-0.030043684106833942,-0.04882198107002989,9.924924442468269,0.014757090814702181,-0.017362271834648918,0.02856330433027476,2.2
-0.02759600878292104,-0.026113960252860044,9.889818164925005,0.00480079834354543,-0.018262745781808542,-0.009251585464522394,2.21
0.050255716224967134,0.10467115941034687,10.024306252763289,0.0017240888533664983,-0.009286141284509985,0.008463026125825578,2.22
-0.15338189800562696,0.10278179316022423,9.739048248842627,0.015221925762722575,0.008200705064400831,0.003749265979654109,2.23
-0.07808859347478242,0.041083046595457556,9.918281022060281,-5.4900239942993256e-05,-0.00093733290631412,0.0016896586503753323,2.24
-0.04509143414189744,0.09495408388367188,9.651600049796329,0.0016828623577341611,-0.005165052128538239,0.00888380059289657,2.25
0.019551202468641508,-0.021176567758899027,9.657288967598625,0.012910624089133224,-0.0016750823589054365,0.0015258260589026543,2.2600000000000002
0.005625153356925192,0.16316626639410614,9.807062840610348,-0.011521742564243057,-0.0026054071967668334,-0.011863535490012917,2.27
0.09129455717849932,0.16425391729404734,9.759075027997426,-0.010437217948948158,0.0006206643122269682,-0.02071615391994118,2.2800000000000002
0.3083518781435979,-0.20095246977726575,10.008066338934444,-0.013911486951183629,-0.006416919041141643,-0.011779751610032729,2.29
0.06730309288897593,0.08423542541867807,9.828444094767857,-0.005978752552255188,-0.02088249392128844,0.02151700733486706,2.3000000000000003
0.021038158265526987,-0.032783172505903464,9.945764735673512,-0.009303975534065777,0.007608404708700529,0.002235573925898124,2.31
-0.07544126248655433,0.257855029605672,9.929786800890385,0.001110765577209539,0.00866683266157735,-0.004679101789759533,2.32
0.0961392164730261,-0.13434074218248154,9.94777255898391,0.0026086250923084238,0.005543439844352917,-0.0015462195421493737,2.33
-0.005425960813539972,-0.009951549252850592,9.649547264753386,0.01069368811550769,-0.010122034819320988,0.002563802269267106,2.34
-0.0718097692262554,-0.1517026505281583,9.847439755450347,-0.003838393931909015,0.004723010640640026,0.0005587375024874538,2.35
-0.11093831572392304,0.12358113215147822,9.835190679946521,0.011605225343248022,0.0004047768374207317,0.0035087009032002078,2.36
-0.2038362058364463,0.0284859880965722,9.77577887512072,0.020152535023803615,-0.004284675644787887,0.0009757334656193249,2.37
-0.15918903479958618,-0.12069313822360295,9.826898925993515,0.023289217597013873,0.009336708148773227,0.008849536386693436,2.38
0.11820778493221402,-0.0005774497228713152,9.774209336387978,0.019463226967389717,0.012969286559489765,-0.023836199291706356,2.39
0.04878098438092933,-0.07985950005505386,9.819669586725158,-0.008657619998765563,0.012757606779193383,0.01048331666779395,2.4
0.0880129151373706,0.06054525932479515,9.662365754347856,0.021311226374756728,0.011262243206573739,0.008346532201285872,2.41
0.11704248453158955,-0.09330168649189408,9.754902941435928,-0.0003526379175186344,-0.005371134112729265,-0.011830879148574105,2.42
-0.01755484284972352,-0.05865135835473648,9.851463478648325,-0.007577289762838207,0.011887098742650338,-0.002727488514711169,2.43
-0.019070658371606954,-0.10582020935766562,9.862714668137356,0.003327919232866524,0.01301921120151785,0.014172111799989586,2.44
-0.08061751735397088,-0.015783554933278026,9.743290153458204,0.0006478406235922818,-0.003970715735009707,-0.009535177655132565,2.45
0.017658785859964388,0.21166060168861983,9.874962299682235,-0.013627617636451721,-0.007115021308528015,0.008158598749828,2.46
0.16556085192388448,0.031563236594339066,9.811655231642279,0.01700629157126701,0.0009354894509792438,0.0082188413540442,2.47
-0.05619834403352811,0.11574997619978428,9.766970032414333,0.016440086134623423,0.007762280842310111,0.009201791262996388,2.48
-0.012138234753849692,0.00011167215473882028,9.796876534186355,0.0031961076872180296,-0.0033182277416805013,0.019981862897598682,2.49
0.2497395929363116,-0.008958671074972191,9.72011198244246,0.01507333314353282,0.002852032961755059,-0.012982103651298338,2.5
-0.014626283040582978,0.037653770715092204,9.760343858138429,-0.005709288059567832,-0.009293503228955918,-0.008186529190996201,2.5100000000000002
0.11579057592258357,0.03857099868393002,9.818624611481075,0.005986733707481084,-0.00865956792282076,-0.011660467225692417,2.52
0.03439061590501777,-0.08221516408935488,9.775597215949437,0.002816512142412876,-0.006136386348938241,-0.01302698786122049,2.5300000000000002
-0.10946743480083453,-0.020103872270189366,9.852367189018413,0.014303724349118712,0.0011679696158060585,0.0044011751061960955,2.54
0.13176475936665807,-0.008433387989025994,9.824149603790689,-0.02561815799498322,0.008173491045710676,-0.004396964785182576,2.5500000000000003
-0.00018919566973930662,-0.018453541515833487,9.86367846171282,0.003759031999058681,-0.009484931933519195,0.010233736043667766,2.56
0.0036886139218128954,-0.1600484176006516,9.858626989945446,-0.007381160572305341,0.028507945719240087,-5.4222638791851375e-05,2.57
-0.053757063734739576,-0.07469906733994323,9.89805349894652,0.00867928842256936,0.007648642560486128,-0.014844864414837067,2.58
-0.19696590912317286,-0.08136078215455086,9.695275131689879,0.011360307511638723,-0.022753451090670396,-0.00911707363578592,2.59
0.1344996950842253,-0.032225892915920366,9.980443735806451,0.01191937737515455,-0.005627916989743447,0.007733822275411591,2.6
0.03687250158053479,0.08660466091867651,9.731774912670712,-0.0018847140808330985,0.005942543308449223,-0.015476601192479877,2.61
-0.0864959607630067,0.10564784236492597,10.146251417585358,-0.0014307143150028745,-0.005855149952116804,-0.005730105688159732,2.62
0.014919972435877253,0.10194683623248568,9.840717306906106,-0.018815870707283126,0.0019974165792090875,0.00629569902462352,2.63
0.16546703219891035,0.01593971301225244,9.960481340405039,-0.008789614217990469,-0.006434075994331324,-0.009331177316095465,2.64
0.11361784812452431,-0.044107707096961,9.71687613110716,0.006748252770412605,-0.001217755764460241,-0.01776538193468952,2.65
0.07963513362295667,-0.003549070178034853,9.958028264666662,0.00495655148298015,-0.00617432091317337,-0.010317300602254768,2.66
0.01963831774440422,0.06412107564393701,9.939821918736385,-0.0021468469811820514,0.004779321654589715,-0.011549256301100068,2.67
0.10062284472353672,0.021367424523391014,9.974379467703576,-0.005729109381485603,-0.006006218263548071,0.006231334628376303,2.68
0.06374349563653321,0.01820827914136069,9.812842635702065,9.810933228026685e-05,0.0019480678820739798,0.00042530909627161196,2.69
0.016607900503805336,0.025040586035669707,9.833166295028137,-0.0019529062573677653,0.015707192474370156,-0.008914930664737338,2.7
0.07164229147172874,-0.02686382427007951,9.726645894976922,0.01550062813462203,0.00012804872046621784,0.006509083791379528,2.71
-0.004954314516991435,-0.05935917345346456,9.892262210155003,-0.008827553212073475,0.00574492097243187,-0.02160366271133493,2.72
0.15119257978597486,-0.12129835218447096,9.79052856000569,-0.015569553350893026,0.003494295184929124,0.004564503260397733,2.73
0.002845818748793049,-0.0007403567326357664,9.770352673019813,-0.011499499473883807,-0.010885164168315678,-0.0015647527801380889,2.74
0.011681568880271907,0.14817407312434935,9.794966593898918,-0.002420938022377693,0.001384908312112317,-0.0011783091516459657,2.75
-0.0012266127247065478,-0.00554558876649582,9.964387641930676,0.014256712799958854,-0.012207289967312565,0.00490638412382511,2.7600000000000002
-0.028029925902403448,-0.10943853087264166,9.991261195450386,0.0029474760957124003,0.005634505160386165,-0.020392216579216894,2.77
-0.06322316094381818,0.10397690666342918,9.852243643600318,-0.011773790462613253,-0.007207434120863846,0.0019616263956829523,2.7800000000000002
-0.16208101476474893,0.07813194997843223,9.71195132128342,0.015331502282356592,-0.0026994397729988517,0.025821158244331312,2.79
0.1366981461942756,-0.17297992845704518,9.85328252944758,0.010905156748519933,-0.01208703595709314,-0.004143591498590371,2.8000000000000003
-0.1864678957508466,-0.10795726294575136,9.695936782131438,0.012051259826745642,0.013342843962334632,-0.01809305810795494,2.81
-0.049395384224102806,0.05611137409602904,9.84375217705388,0.005506566768756339,0.016713877732397825,0.014471074852674204,2.82
-0.02807248193508388,0.1655872728848384,9.826549299132887,0.0041357001829538595,-0.005889079682034351,0.012512167850710382,2.83
0.019119301284949906,0.08185640808635128,9.816992468521855,-0.006137566392702916,0.00974812468265132,0.0037092166325921735,2.84
-0.1121176181368441,0.05312549879982327,9.840000453639233,0.00026071813953783046,0.02305396518314976,-0.014092326596015722,2.85
0.09116960160558846,0.17510363889562466,9.7463261314274,0.0054192708851055075,0.0060648480199054135,-0.005788819835045013,2.86
0.015202267010705659,-0.11819333823960704,9.851926646459432,0.004358564969722991,0.003682647345656429,0.003429952245910425,2.87
0.020026991390378383,-0.06566177403810274,9.807324748597715,-0.002056859038404775,0.005033545779948322,-0.021724083659880652,2.88
-0.046891635286433905,0.07802138689020865,9.88206439242785,0.0024902531662181703,-0.009848043853789169,0.0020669148464504167,2.89
-0.16025951363938246,-0.1859083021645105,9.894063934400563,0.005154878991681897,-0.005094738928213116,0.019528096079785298,2.9
0.0343103665586277,-0.044220958226279555,9.868730780155417,-0.010339497069159851,0.013565164669319505,0.0024174620410234307,2.91
0.0406488437162544,0.12321948978479924,9.839616860248046,0.01920944920498378,-0.0038302021124963495,-0.012756404632832612,2.92
0.04140902608718367,0.0004357384740327426,9.657986257653228,0.00851260895463044,-0.0026116603301565055,-0.006470466540603207,2.93
-0.011911456182483389,0.12037958034006552,9.80332954631276,-0.0068280715968906435,-0.001599521271594862,-0.0020550013421324095,2.94
-0.11178357509410781,0.03633119105716656,9.78954871050069,0.0012285262783998936,-0.014168505580815186,0.012278907547259046,2.95
-0.00894399929980712,0.05550369609614652,9.889225862440737,0.01359879184150619,0.010979174301015629,-0.005908264665422749,2.96
0.0697202729879017,0.06530943306972158,9.853746633110966,-0.010492272575728163,-0.0010169786007545151,-0.004879956031617895,2.97
-0.14212662235870308,0.028763235589259167,9.609027305636555,0.005079008614270928,-0.0033220452295415056,-0.003962862449499472,2.98
0.08286254955447275,0.025740453162065663,9.893919625913297,-0.0013960086303091053,-0.011580298089750172,0.009094851046095117,2.99
-0.11309703542463934,-0.038338957798454656,9.77723821473231,-0.00044281999262514994,0.006337553889892852,0.010361506119288759,3.0
0.10580676096575033,-0.05220012825356575,9.95779689688244,0.0062317262319022786,-0.004053789701157728,0.018665478171162028,3.0100000000000002
-0.06623040429973917,-0.09140013271180847,9.883240430588366,-0.0022162833674160944,-0.00538072120890592,-0.0017330006026092229,3.02
-0.05036172732653025,-0.07285374617345422,9.984685418043922,0.0015744031114630487,-0.007275099048597724,-1.754044389030316e-05,3.0300000000000002
-0.10824784987861313,0.09169493767621177,9.799872627637406,-0.0017980198592965652,-0.001027113974294205,0.0028725253625200104,3.04
0.06399826570172223,-0.09595105544106303,9.910401279140983,0.002860300365849403,-0.009654330176776285,0.019239710097395307,3.0500000000000003
0.10992589658888063,0.09144009485651944,9.81268576417625,0.0034500328548072823,0.0008906171900529434,-0.012901732675049743,3.06
-0.279726834382453,0.003071088514497465,9.890264553159549,0.005597028366014099,0.009014416353799152,0.003171642792881272,3.0700000000000003
0.06552337558276213,-0.23378664469880422,9.827338311081247,0.008412247495498761,0.0032512068875355923,0.0010591526820631356,3.08
-0.09438259856996932,0.09253179001772253,9.584204289746179,0.0036412617900997103,-0.014779371195077424,0.0018283337430035978,3.09
-0.04547826747597216,-0.14102071702923932,9.851658988941017,-0.010714922919916967,0.00237362329205658,0.006082674265630087,3.1
0.19718585881023729,-0.03335004879038591,9.658262753343351,0.024002859482033404,0.0025714110028616224,-0.009634370834675799,3.11
0.14564781047187875,-0.3108886633370933,9.880673237015085,0.007464126469824139,0.005641956349247693,0.014835491014136622,3.12
-0.022455899591632852,-0.14650268828869867,9.902203005324772,0.008699025207376225,0.0005110913523835933,-0.002928112384254183,3.13
-0.02723432869469805,-0.1256354970549371,9.890200069156785,-0.002190935967469043,-0.0002620034793361635,0.0010285798912928394,3.14
-0.0468488204055742,-0.23448472351639751,9.724639703344158,0.0024347574292999195,-0.004715692594581323,-0.00730292304692208,3.15
-0.07326987313124528,0.04650457355417642,9.817168433063463,-0.007011101195211346,0.005265066439841405,0.012869255505896607,3.16
0.016780418863778845,0.08155984279578898,9.876769872185372,0.004114578657080718,-0.0016558087561364247,0.002750671026536471,3.17
-0.02711252620435516,-0.08875870045116817,9.88119740176431,0.011051711987416713,0.0135035012708218,0.0039416727136280675,3.18
-0.11599485220319601,-0.009988217978245388,9.829194314325346,-9.221517198071176e-05,0.010143571233894562,-0.020519458300828478,3.19
-0.11066751823623439,-0.04659244974532898,9.841907124645983,0.017285220680606554,-0.01230167044784405,0.012360523425806888,3.2
-0.12814832126472717,0.017776682782604185,9.73480191708934,-0.010173601973261807,-0.0034207296277653865,-0.006195805007194675,3.21
0.059901752719711876,-0.07727873160646832,9.591305679482378,-0.006276253834550233,-0.01106306631016029,-0.02968301303321884,3.22
-0.012155801740955369,-0.01497768814485547,9.709629478473543,-0.007943289017347263,-0.006999105503523035,-0.00024595767114696406,3.23
0.029266965350373455,0.03329251905869468,9.872914402703671,0.003755559483237789,-0.007735907018924329,-0.004066369269052496,3.24
0.21770678085296502,0.06026820403937826,9.840684833267595,-0.004884976771955511,-0.0017887643323794109,0.004650491093214,3.25
0.0029166941799587784,-0.06424234334295224,9.803647654064882,5.855766944268609e-05,0.0008467753348667339,0.004135700591166636,3.2600000000000002
-0.23552250670792066,-0.03594815910978338,9.817889558685893,0.0047202150988489905,-0.017862851162945295,0.0018051616527209092,3.27
0.08816102434671125,0.043105947144645884,9.901477337956736,0.004595864568757719,-0.009996382838367207,0.006532592431868373,3.2800000000000002
0.05708184584463898,0.09194733941591898,9.83459826513687,-0.007409214085022756,-0.00474942078148295,-0.011165422133196995,3.29
0.030118225858622207,-0.1946986009431671,9.714450095591276,-0.02056519210923535,0.012986742434179376,-0.003644107615716305,3.3000000000000003
0.06279982051626624,-0.010429629548313266,9.781190274798108,-0.0070105583780033665,-0.0003619238957129063,0.02141521915364856,3.31
0.07444551912455295,-0.03783500725851822,9.955776889686414,-0.006923573656834901,0.0070935390737160596,0.004302688750482075,3.3200000000000003
-0.00940220093430579,-0.08015136141546272,9.808826320187073,-0.008944849702002386,0.012392900281134354,-0.005445688627921689,3.33
-0.0057063769863667626,0.06651556854694715,9.69341412231879,-0.0076154197955269065,0.003002806216377563,0.00525805040729238,3.34
0.06224330374634628,-0.03955561760939244,9.774647737860864,-0.01918563766350403,0.006335065779642966,0.01720979359030464,3.35
0.03569760929319971,-0.08722817081363862,9.900440922297188,-0.006834956800282756,-0.007277549100918367,-0.008808798565671506,3.36
0.1655219928871448,-0.11144814567660431,9.706389515053054,-0.0005163043746284305,0.0038933882792463984,0.012146509947296083,3.37
-0.010242357692979643,-0.007783569745610246,9.827853491879479,-0.007736272565116624,-0.00849104602722793,0.002761111288791817,3.38
0.018067353958852565,0.1047257829489265,9.906291037894087,0.0074398236511525944,-0.0030003254554465827,-0.018763497093115533,3.39
-0.08486954072913726,-0.277505891377926,9.89513936507873,-0.005101049335559259,-0.007695222735955392,0.0041904813481709316,3.4
-0.001054369672566896,0.08739777776598312,9.921360597184393,-0.019755489902675085,-0.004612145698423064,0.00094678289484032,3.41
0.15859369557973152,-0.0041039326317098175,9.762791222017668,-0.02316809039215403,0.007613510621405457,0.015188123713390723,3.42
0.05310437798372783,-0.07523357134321035,9.734150042712294,-0.0027335778637700694,-0.002971469544062049,0.007083595962935611,3.43
-0.125780058881684,-0.055040430095401854,9.656390332092796,-0.014590074944036538,-0.005844655164866738,0.0016853344924009654,3.44
-0.01790210536635748,0.05651691274686241,9.811034362079107,-0.0015590558320810839,-0.009833847588572718,0.007590246740302686,3.45
-0.18906536145672276,0.14822343763761278,9.649928716104615,0.004069154495313183,-0.0004408093070120952,0.005088597551740243,3.46
-0.14789474650293877,-0.03183261139983873,9.753323399917559,0.005995510414418301,-0.000159846908951035,-0.0007927306477668709,3.47
0.17116586456007954,-0.03838698296201531,9.935367176546643,-0.010178374269041083,0.010473169803456028,0.00581283880658738,3.48
0.11726604714723575,0.1640346931633761,9.718287046267186,0.004070112656847536,-0.010554164888161206,-0.005542562462228031,3.49
-0.0007118543965476446,-0.006431048362233682,9.771776512836713,-0.0005792154340609599,-0.015763460472609125,0.00044486114352694164,3.5
0.018094983421257992,-0.16353626930637566,9.961926002995074,0.006006770565326988,0.006368675941777832,0.003374828980963014,3.5100000000000002
-0.0004417068398629139,-0.12284394412326877,9.833088905821354,-0.0004617429358395424,0.0010326855479587842,-0.014610220950853597,3.52
0.018968895304217782,-0.0830712341791307,9.721100429542323,-0.004224839520302732,0.004561613409717522,-0.008944304835104513,3.5300000000000002
-0.02674732951355967,0.011990609572173103,9.778030102282402,0.010172514464111292,0.011106080385605448,0.0034446994741541338,3.54
-0.022449376315884152,0.00010647980649282422,10.03095186153331,0.014146301414104737,-0.010213304783874652,0.0037074944093358113,3.5500000000000003
-0.021681232344021247,0.2497297279615648,9.815317182329121,0.011196869696242473,0.000723664544216355,0.017012573092301864,3.56
0.03850395450084856,-0.1105231456940044,9.717898011930075,0.011820857226788812,0.007327400715317173,0.009600852147953148,3.5700000000000003
0.23894956669750156,-0.035620304593885016,9.912632260100985,-0.008193814834335757,0.005592759853578507,-0.008244042199320714,3.58
0.100538725133822,0.013390955268575947,9.649810504684675,0.0013891893321901867,0.013640392470011512,-0.002522787862963736,3.59
-0.03167831399604983,0.04333079904490611,9.869627241983514,0.0021322811430063075,0.0030383071743213196,-0.014369752088991238,3.6
0.07845899096835696,0.0083793547801791,9.860815912454303,-0.0084012356997257,-0.005064992899627679,-0.020273589910664233,3.61
0.044383244917724315,0.2466013078318804,9.946608976471145,0.01183076898693512,-0.005516849560220857,-0.006009654166052338,3.62
-0.04479508226634543,-0.06566543351580188,9.683365490156516,0.019725408605993842,0.011993028615995842,0.004221999823511082,3.63
-0.0560118127452085,-0.18514871868963048,9.751617160945663,-0.004583976446813958,-0.007533482713289439,0.015486317751362617,3.64
-0.02583344702032213,0.006874933257501505,9.999718002020112,0.008702865016383758,0.01869896239298376,-0.009337509189794108,3.65
0.1949798303010418,0.1253125934685305,9.95136458738975,0.013081889176760016,0.015936330139998678,-0.005673267701944127,3.66
-0.015793129791058517,0.03233261322996265,9.63590662266421,-0.008185223389427553,0.011423404075633586,0.022008500390618267,3.67
-0.07087200132055714,0.12368895523973913,9.79860387747573,0.016235266865861468,-0.01146890057830333,-0.009435895243401162,3.68
-0.03109306558150205,0.07456769560721539,9.88088909826856,0.008141356712605092,0.026100163577834432,-0.01623824642592586,3.69
-0.06405805808613223,0.11061920350764308,10.032111939033818,0.005626344490054954,-0.005231031821449662,0.008610855858773048,3.7
0.06818202590856924,-0.033046764239614494,9.914360412744745,0.00473865590002241,0.006788746225060858,-0.0222204939522768,3.71
-0.0083982028695245,0.02119157799787501,9.530544723835032,-0.01207367749186534,0.006017643123553323,-0.01950072282760426,3.72
-0.06222156612356369,-0.09766606607885393,9.741602251545636,0.007494751320373684,0.018764009775512007,0.008632303102331481,3.73
-0.01705704932156722,0.010067632521091418,9.789843238522602,-0.016634993204972394,0.003204792123409457,0.0065323752419334845,3.74
-0.005153453420568253,-0.0013154354977947436,9.777635539732643,-0.012220275155497267,0.02405157377666948,0.006629608654954798,3.75
0.08072375453112313,-0.0035443985636017766,9.769972629069366,-0.0006713770777512639,0.0054149556914041145,-0.007031766420450307,3.7600000000000002
-0.1354414628023598,0.05422422221441751,9.84389435165679,-0.008977835889422468,-0.0010835359096635206,-0.002988990635520998,3.77
-0.017226110527877033,0.002426257110955835,9.915472409103664,-0.010199174580485108,-0.0034601534469635626,0.011088546940823953,3.7800000000000002
-0.08225639409326872,-0.10246635669928308,9.865452166332108,0.00041889965817475556,-0.0015147352329706683,-0.0020875997875752176,3.79
-0.033370521198369384,-0.025094597898689633,9.884207360406103,-0.0009117410291181057,-0.0013254507180995312,0.018458896272759723,3.8000000000000003
0.06736132145325875,0.1819524174171538,9.804599969099813,-0.01675418068670345,0.013573133666391922,-0.008478184353310074,3.81
0.11047866942855865,0.11651566653607373,9.862032004595207,-0.0058366085540968215,-0.012064869009642477,0.002924924558916832,3.8200000000000003
0.03295873460812396,-0.09596895609389028,9.85581127728908,0.001615382222971921,-0.018048120773885394,-0.0021558496158152573,3.83
0.028257287632240037,0.1854156703302816,9.728569303970138,-0.0010192396229102357,0.023968855875018808,0.0038323501206881674,3.84
0.10332870678451078,-0.0017847979558612765,9.793579218860085,-0.010742925282007643,-0.003464088756240057,-0.0018217977704000224,3.85
0.08509813586892574,-0.03462189315568289,9.779186654651095,0.005934421973067819,0.001217795488725424,-0.0007215802541960296,3.86
-0.0034077460420253824,-0.1322279165812034,9.91804990567733,-0.004137613266924957,-0.0014666188740335517,-0.0044117030417437485,3.87
-0.10148083930413941,-0.16809655683498204,9.761531956502907,0.011273748021851597,0.008814965481113586,-0.022857283222074826,3.88
-0.006634641967629778,0.10041952695451846,9.747072883270274,-0.006946426194154548,-0.010027615994815997,0.01688245912201359,3.89
-0.11123796317941739,0.17489576826563408,9.733673382952457,-0.026172588466577464,0.0005806510670726349,0.007593026781451659,3.9
0.03086822102026275,-0.0862978450392757,9.930949356472063,-0.007715126031407776,-0.016881138463630183,-0.013918735498850634,3.91
0.0904774409359633,-0.054794317732023506,9.886601175281125,-0.0004318500490501292,0.01309498187310075,0.0014660126061444658,3.92
-0.07109609459829264,0.14945645129835186,9.65342929241966,-0.026453548501638505,-0.0017490437733899476,-0.01921078445178055,3.93
-0.05845991469080693,-0.09909456236531902,9.604232336321177,-0.006304239686219516,0.007179507511762238,0.004280472514272214,3.94
-0.2424591040379676,-0.019471000264772897,9.959155213079367,0.004551331033450057,0.010225467068444231,-0.0002949165356087854,3.95
-0.19072912873413256,0.0909397652774217,9.963517200578194,0.00014941505588280692,-0.0071330082394238424,-0.014444686192833598,3.96
-0.030040810604663945,0.16344141106780996,9.693578730835823,-0.015409542068866536,-0.005986574091234042,-0.008745807067459492,3.97
-0.008380888195928539,0.05654499654819546,9.746327333572387,0.005678480589587446,0.0005465147506157937,-0.006325551693209031,3.98
0.0068161766591380195,0.08298443294123743,9.896412732255602,-0.001485965191851824,-0.014859191519221894,0.010576304330667119,3.99
-0.06052071736090036,0.15024192055638766,9.859697955793381,-0.008296751860427172,0.016714438336210218,0.006608024693213461,4.0
-0.0032620760893283273,0.1317304985604422,9.91377154500899,-0.013055484126543343,-0.0016500412490274283,-0.02174925609121597,4.01
-0.19130761634741505,0.014982143388765993,9.879910911847551,0.006865744620334582,0.005780128529056119,-0.002060331292270517,4.0200000000000005
0.008524423121549341,-0.04266181677947567,9.921049229230224,-0.013005105499516499,0.012393104808446187,-0.01011090896304584,4.03
-0.09104286145970752,0.02081421335754835,9.880095680418345,-0.008590814459851949,-0.006368591058199654,-0.009886853962812935,4.04
0.0020086303300831648,-0.03269816721968826,9.876258989820784,-0.011792589469463034,-0.02394292448843103,-0.011304077258130771,4.05
0.05145334742227517,-0.11010385014850395,9.754596347363814,-0.003142842956983395,0.0016616093039726718,-0.002081620169318201,4.0600000000000005
-0.0995817747490797,0.02508369533952641,9.854437044792109,0.019960422065033616,0.002178319349883092,-0.0038718688846042003,4.07
-0.13051467738899827,-0.03980413665117735,9.721134334223708,0.010988497456227613,0.011362277654619524,0.02002580914149911,4.08
0.10933644078062187,-0.06515118360108436,9.853586215219227,-0.00034420952773964896,-0.008068688932979204,-0.012865062972220336,4.09
0.024425066688938596,-0.06282208226721708,9.874438369758098,-0.009752046047058685,0.003184761342280939,0.02295368610958608,4.1
0.0018279467861412547,0.07750555283470134,9.745335345733588,0.010921406660311512,0.004137397254107308,-0.014105047485752559,4.11
0.07532913318980629,-0.029956451974320904,9.851333587090851,0.005801541157322389,0.006736175622774952,0.0003200903382613061,4.12
-0.19230218779914843,-0.10789838312753226,9.986836813124473,0.007686119968636615,0.003066247023641871,-0.01210514408145549,4.13
-0.027396270760082803,-0.008005858554828296,9.783791703433932,-0.0014538647198717892,-0.010235046002783839,-0.009435111683028494,4.14
-0.06442173083137151,-0.026196156063514976,9.795476019173904,0.006854657747096763,-0.010309506189369086,0.01620316860711702,4.15
0.18912608778079631,-0.048278892933343726,9.857005933065789,0.002298737214095808,0.00028855111992958835,0.007141197978711468,4.16
0.05521208359548063,-0.034124891504823555,9.804841594614244,-0.010570897413144998,0.0022911726434247724,-0.010232076063585638,4.17
0.1730294778579281,0.06419402436077712,9.716932268561594,-0.003457326987303023,-0.013124529645632516,-0.007507686885260634,4.18
0.04813188988486144,0.046253867046492175,9.927697197187246,-0.011108757811877005,-0.028283578352753344,0.0005559267910244848,4.19
0.047806360672889736,0.07661339066971307,9.849727707582797,0.015749766719543815,-0.006399060353567925,-0.008502105863269993,4.2
0.05247380602978008,0.045337309021313214,9.938494868659214,-0.006190504040736712,-0.011007836589581597,-0.004840532791889658,4.21
-0.00433086873272428,0.29163496482120094,9.919467723807129,0.008394926975966983,0.011487275334358352,0.0032304132202442947,4.22
-0.06002922600282228,-0.010139898745485581,9.700054535601776,-0.0030704332680972584,0.007583000124788664,-0.004194612550633188,4.23
-0.07074604649272435,-0.1424172245636781,9.845286630026441,-0.0029988457843829973,-0.011429242285497132,-0.018330298463645957,4.24
-0.08754117775609906,-0.09027788897294076,9.70953910030993,-0.0028112002986088475,0.018061516194728917,0.0014011170815710677,4.25
-0.1946941055334885,0.07169441111007177,9.728499526833906,0.014661003272987257,-0.025650494157005856,0.012619977288224744,4.26
-0.10109032262351841,-0.07855707879517104,9.91884052188725,0.008078951019572365,0.006487478566980175,-0.004447779680585299,4.2700000000000005
0.026669772051319374,0.028414148941828934,9.682299348563232,0.023470000401884548,0.017527869552677783,-0.0033365623218528442,4.28
-0.11407126364292625,0.054104186530540714,9.743327947663593,-0.0030738581687831225,0.0002994153788480406,0.005347078689324877,4.29
-0.07717678582381171,-0.025224482117513602,9.666505518735061,-0.008793959068819926,-0.0030545885269154384,-0.005608227169043462,4.3
0.07531910351212251,0.16799161083311015,9.679045390852345,-0.009299517110613742,0.014125201292775575,0.02236696570080564,4.3100000000000005
-0.08895090839740327,0.14058354890827723,9.80504189816354,0.007615373212432861,-0.0022709939300576834,-0.009998496933972686,4.32
0.06952857148767565,-0.0009220281157128027,9.810877519454378,0.0014817828779563635,0.012712025837299995,0.0029237436844589495,4.33
0.07475663267718634,0.004983449485313805,9.785587090621569,0.003801877960910297,0.007814970326703039,0.00528343424666348,4.34
-0.009876820826305583,0.155159428743336,9.763628795009845,0.0055070341994935676,-0.02013317848113625,-0.007752643824794984,4.3500000000000005
-0.01878404426436478,-0.1641301849513237,9.689152834605702,-0.005953440813046784,0.005187633288022384,0.006813665437169784,4.36
0.015130384937375932,-0.06139206764262624,9.889576082924911,-0.0008405090284680717,-0.009999737806002992,-0.0009458677906931928,4.37
0.05604676418816987,-0.06067136182981591,9.938904418429274,-0.011588690132400688,0.01897746560331343,-0.01329412162664625,4.38
-0.05027728533535894,0.0692340579113781,9.605200344720599,0.00012320820969356961,-0.02068185129071392,0.007225072340361068,4.39
-0.09480164278095894,0.19689233182809776,9.715510702557795,-0.010181703150808638,0.007904140014172832,0.006448528434979734,4.4
0.06660188361467421,0.22518218906169465,9.7013285463695,0.0036289739632083405,-0.011809199920742289,0.01615303194709597,4.41
0.02298843387605723,0.007319390491949712,9.821936224613363,0.01445621361203274,-0.0013845356568031,-0.014879979660776121,4.42
0.016399333678762267,-0.15697509383016947,9.88667548833276,-0.015663475945758662,-0.0037983532150372822,-0.002170791711023354,4.43
-0.0034925180942680435,-0.14331993648664101,9.735190645967572,-0.0004297058870587339,0.008759065902875679,-0.0019051340679718805,4.44
-0.1920372690270392,-0.01481630637304196,9.624653830501513,0.0020012863300809857,0.0030947404251399037,0.027659422519112173,4.45
0.019808228928573868,-0.024364869969107267,9.851284574128181,-0.02330533566033921,-0.008768500666286804,0.012538712920428465,4.46
-0.07069664641465914,-0.1861611697919401,9.68812628290196,0.014760971860022953,0.01958838975867889,0.002262790638407224,4.47
-0.14516008443024017,-0.12022383050397863,9.661984521254562,-0.002546909226194395,0.014647893423802317,-0.0042312993645034,4.48
-0.1509144030605757,-0.09548955138918003,9.661752205783644,0.013501805057271068,0.005023325499613848,0.0009224609867754097,4.49
-0.0032025967178007974,0.11303874916709374,9.9480567848759,0.00697684689772959,-0.007811246385894834,-0.010278976764700852,4.5
-0.0721224008540102,-0.007954294968145153,9.881961417655127,-0.007767555435882833,-0.005874243624040141,0.00820217025192804,4.51
-0.07346277401114162,-0.16979189863627053,9.768045747900915,0.01029734664203629,0.0027893262458432715,0.013945962274280181,4.5200000000000005
-0.006032978010623377,0.20359112527067835,9.76825891908532,0.005234915267828487,-0.0021965672900032124,0.01068792010844454,4.53
0.08387419624950038,0.16003107800860675,9.745713831318051,-0.021626509819820103,0.01853342703554294,-0.0042637649420036085,4.54
0.10336413458118075,-0.09467113434549267,9.913100801974492,0.004336617084139928,-0.0028888849045162245,0.010114267739445485,4.55
0.11849456667053924,0.016922150721096176,9.667797349838063,-0.005689179974464541,-0.002288759083190014,-0.02064635335464885,4.5600000000000005
-0.13540967491305242,0.12275504070362098,9.950176155115182,0.000775218016408461,0.003946149230157583,-0.003785874633514106,4.57
0.015004441119491492,0.05454746773641379,9.893692843727855,0.01653041945557173,0.00127477327848338,-0.00016345630493310614,4.58
-0.16813802437512854,0.2211091720298656,9.74002148271487,-0.006068868853522947,0.0005646149011130621,-0.0009040024586860359,4.59
0.07353288850473368,-0.002845928571094697,9.967497494914177,0.01612454748397919,-0.0027078962810795667,0.008715321489547357,4.6000000000000005
0.0518389584852926,0.05462660899874453,9.8831015523743,-0.003577192412906808,-0.001150670071658597,-0.0018518018504937836,4.61
-0.11166033597779274,0.1034820776630123,9.64826635088562,0.00926825052506862,0.0031174384711039685,-0.005292151041939185,4.62
0.00497169470804874,0.07338295502582329,9.732604646686871,0.0008765186948156869,-0.005093171389927796,-0.005962964057757691,4.63
-0.042835660969433094,-0.038552587819056065,9.831472291977924,0.018954909350123474,-0.004267108733524046,0.0027673073032920604,4.64
-0.11367415999485904,-0.07408358096400575,10.036110458852304,0.003192275627609185,0.028262501666130344,-0.022872317064939956,4.65
0.15018655577616558,-0.0090695196962153,9.730904617528417,-0.008751651076207359,-0.00818676469728014,-0.007359401458070001,4.66
0.016536989323602137,-0.014157374755817097,9.864769129610128,0.012504307032865565,-0.0029506683175690002,8.135176164004747e-05,4.67
-0.06195588305113018,0.07006762204387287,9.72752276194393,0.002046723811930034,0.004013534229494479,-0.004819985073956168,4.68
0.03408130178689658,-0.0962532737165811,9.826383930756407,-7.281407540786914e-05,-0.016020178499082646,0.011567496404714243,4.69
-0.08956209915210459,0.022483992413981465,9.812610052123983,0.0005408464461637267,0.0006695287842591854,0.004929311952477481,4.7
-0.13938602384249618,-0.14015896690197674,9.837575743102459,-0.009551666270273759,-0.009756435431976025,0.0043972400796512,4.71
-0.1248325958318939,-0.02274920785206029,9.789407573827877,0.010062996631879727,0.006120990477923648,-0.012694950909695224,4.72
0.0462754466819913,0.1239811687516716,9.793447243614603,0.0009162241839556724,0.005113178015059143,0.010672994364563804,4.73
0.08121206216011617,0.1140933882444555,9.87127538097022,-0.011811972041506113,-0.0005093401232294871,-0.00030335245358055073,4.74
0.1070256218772177,0.01744798481903826,9.884424023730537,0.00914773314942649,0.007614000030447019,-0.015698123100150493,4.75
-0.043094213163543005,-0.11908517191590794,9.796460259170162,0.016055662387662963,-0.0158903988981411,-0.00464472768811482,4.76
-0.10995078536383028,-0.040114183674065045,9.742730477846566,-0.023940148198589254,0.009475646993653311,-0.0005430232605873321,4.7700000000000005
-0.08318190168422962,-0.003884127614279512,9.87712856604281,0.005726699155176331,0.007204274050904703,0.00601145991373441,4.78
-0.08575895552253354,0.04343418088806425,9.788870658331533,-0.0008262681847634549,0.00016808155702136574,0.0018972848105933268,4.79
0.04416899223793111,-0.04769776907192166,9.658409080201038,0.0187158683840105,-0.02016025752691054,0.0058975062810086125,4.8
-0.10384918474050753,0.0036032213013081093,9.912035358512274,0.00798500582564021,-0.002114127900415042,-0.016060415638538737,4.8100000000000005
-0.07248444311627102,-0.09210462700722838,9.848086216235084,-0.016711426490289543,0.005655776899017358,0.012370838952030705,4.82
0.054399475540086964,0.025980676791401675,9.931580966573359,-0.00560901295387643,-0.0042569841224819206,-0.011633848234484347,4.83
0.04055657858305577,0.0682005112700552,9.826319968739588,-0.002335460167109941,0.0152564323636398,0.004247268740187329,4.84
-0.08712049228303034,0.27367745635034096,9.893568931141187,-0.00047480783065423745,0.0030073239514043543,0.016146668878653014,4.8500000000000005
0.07264131745903013,-0.06599603233016339,9.692569692346854,-0.007735003001478258,-0.009907058710255517,0.00032080589974670636,4.86
0.020517613405030964,0.04651490752166962,9.939077756750658,-0.013614711836435499,-0.004227427400668088,0.007253780019936609,4.87
0.013500498071352444,-0.005885262361939667,9.669913244767423,-0.006033480159688888,0.016934877177622102,-0.009269517295924694,4.88
-0.03324469747755353,-0.11932857325023372,9.88371982356254,-0.004365222731386425,-0.012821327380043298,0.006827799894761586,4.89
-0.11912591170796989,-0.08824362014281967,9.739816825739371,0.014304516559087368,-0.0011453758344426243,0.011332279986556296,4.9
-0.14567752386660746,0.036761715020719024,9.801047962690173,-0.010515116531665569,-0.004343204252901208,0.018618367752609572,4.91
0.16066196539515842,0.06162891326376908,9.85871019199975,0.0028078435460455655,0.023838324099958685,-0.015266559445266194,4.92
0.08115552283652311,-0.0487560830522868,9.705736292751055,0.011917668001925659,0.00913456521927728,-0.001144440938490599,4.93
-0.07515864093670285,-0.032247042447148294,9.974601878655086,-0.003420462762658015,0.004284286254878007,0.0061779643680614565,4.94
0.014572016341616518,-0.024844932847685033,9.73329329801167,-0.0014939278230699504,0.011997029522540762,0.005230028325184829,4.95
0.10977452534454024,0.07317489925350283,9.886442360341361,-0.0077947555386378865,0.006370207233170589,0.018101447766835765,4.96
-0.032030350974766655,0.03957888303025917,9.829495851516867,-0.007034219129489108,-0.00016346844171406151,-0.012651934393091875,4.97
0.014762228877782361,0.04860759972839382,9.875163274253172,-0.008229641354309645,0.0081111195901765,-0.020066248677576302,4.98
0.19086010316117208,0.1409012213428152,9.890214987264407,-0.012573337410410793,0.009915095610710266,-0.005186713044169475,4.99
-0.14408137497768544,-0.04600763868542417,9.666087855743031,0.0021591741689012812,-0.0016245061468977003,-0.0223138396358228,5.0
-0.05037989702225151,0.0012792322363438544,9.672414471492658,-0.010800842594017675,-0.005741694829137717,-0.01385907387365445,5.01
0.13532811683049464,0.07099799012486428,9.857842644270946,0.016193425435204942,0.0011886801459597158,0.003509242787340337,5.0200000000000005
-0.046378807560013946,-0.0733461421411222,9.867979086971621,-0.00442153478085159,-0.008107055056751777,-0.00425635774688925,5.03
0.06082453901243984,0.1454983703612895,10.005750616738792,0.018654728471787244,-0.007187745960138447,-0.015200020441004507,5.04
0.13324186380982292,0.10619161898070902,9.776680310335164,0.0003002309314252149,0.0019175547252421993,0.013442810182981862,5.05
-0.09235933926636514,-0.17884371199206017,9.735612081698958,0.008982003618070672,-0.0143761202412566,-0.005293309344139019,5.0600000000000005
-0.09756702348987187,-0.11710585963283596,9.612723286351274,0.007208406046322296,0.012390709495671663,0.0074068033114820355,5.07
-0.06388702375446609,0.002356760327309828,9.910157116344253,-0.004192179072761779,-0.013303392116555509,0.013356524341171239,5.08
0.3661693595105172,0.03197156598397459,9.830053014523271,0.021884456750934277,0.0050944176711713515,-0.012191509593069074,5.09
0.044080326535801954,0.0006037040252696685,9.568010407840063,0.0072828240337532634,-0.004462492351226357,-0.009478275175007201,5.1000000000000005
-0.0077499056736945295,-0.057147277615206354,9.799300383552232,0.0020563118929861073,0.0022861774513841283,-0.006432501691642468,5.11
0.14010998962376142,-0.11845701572876965,9.769398037718828,0.000414174693282594,-0.0036592020784351497,-0.010463664404338805,5.12
0.08269474518865544,-0.05346806681569743,9.971087969905048,-0.014567567924029258,0.0020359160396825073,-0.004382968098641601,5.13
0.16000329519173095,0.014777923728807327,10.028100184648324,0.00807329514738511,-0.0027094278934895744,0.014044991252172574,5.14
0.043613602663198615,0.046553029881998935,9.784588728994718,-0.007739351734157693,0.00033883900095824803,-0.004737667760168759,5.15
-0.029920652557006336,-0.04347758909328926,9.897966031152523,0.001780582802533486,-0.01639229468621394,-0.007399596568307081,5.16
-0.10104699813417171,0.0563042884137353,9.875232272318636,-0.003308628459377212,-0.01715296366285926,-0.007700551632394439,5.17
0.20003998738661527,0.10936173845089658,9.81835781744067,0.006182346733233594,-0.002444096082160894,0.007351582090983279,5.18
-0.03921008974687286,-0.14847117903739282,9.727681146033799,0.0043954489465068665,-0.008085350603962546,-0.0054483174930305845,5.19
0.11038493215617134,-0.0068414157199227325,9.85994012438707,0.00882148518063135,0.009474929416254049,0.007510200614325513,5.2
0.05412016141506692,0.04951700869325388,9.857251614875063,-0.0009749573755889179,0.006563239921689789,-0.020318913095787105,5.21
0.005171255725576916,0.18699739331766832,10.060357509010053,-0.008451243315744093,-0.005230556407314659,-0.01247724444147107,5.22
0.1180946030502612,0.09956091512879134,9.95803872282542,-0.0036000268035588545,-0.004396116539065848,-0.00039131704154153537,5.23
0.10561571158192046,-0.044158186836228186,9.817415924737642,-0.010249610655262174,-0.00566229888636447,0.014770538570742264,5.24
0.1679078871366989,0.08763933680156694,9.933788373137075,-0.01815450309433863,0.0003429915398427494,-0.014542779770489163,5.25
0.04616916662592236,0.0021277523558782124,9.850095338102257,0.001482137618669606,0.0014182396211299914,-0.0024032844558905574,5.26
-0.17458743892534193,-0.04254929644272028,9.8355384576658,0.003524360234152789,0.005509703713515409,-0.007054631491323626,5.2700000000000005
0.06755580138779846,0.004222113196693088,9.839741162392954,0.0012920821039005897,0.0016701955136048123,0.01591274433320872,5.28
0.01065309013351211,-0.005349890752768469,9.821440262230517,0.0001427511779926457,0.0003385908196713724,0.000825925111413125,5.29
0.004689200758340081,-0.01453783411384834,9.827017361136038,-0.023507722165681328,0.0038797777121348295,0.001596922441718072,5.3
0.09319595647582385,0.09176590312158302,9.687251449575971,-0.0019592620224340718,-0.0025791834782751878,-0.0034796512607436765,5.3100000000000005
0.11756367569095866,0.012312066120639493,9.837641947120582,0.004248104521744249,-0.0022867838257482442,0.003137616777347328,5.32
-0.026989439977233742,0.3011330785767399,9.758015810019971,0.00963049375524085,0.016618771303835243,-0.014690190916207962,5.33
-0.07310740134647446,-0.09860563542969868,9.759997921388122,0.020709369011278015,0.01503294028053305,0.005505064524989577,5.34
0.1082203295376641,0.0178117243161241,9.695564813571833,0.0012666237355597812,0.003560912662599581,-0.01064574521141604,5.3500000000000005
-0.06918519244415437,0.17205878319833398,9.86843708381464,-0.01152705986826502,-0.0064286836617974885,0.0011585466035563424,5.36
0.013486583797274368,0.12242188247411534,9.863695936516269,0.012592463688324394,0.010705137620407515,0.010922095967217323,5.37
0.11074033252102962,-0.172995703825999,9.723734678700334,-0.0014663850946878348,-0.011881261937665841,0.00465245467996325,5.38
0.08206416976242453,-0.18313043975847224,9.952070176503273,0.01663773657313738,-0.011553026551411058,-0.028292655878222116,5.39
-0.026358568975924625,0.07965028680510336,9.84885493102975,0.0007165788966281192,0.003083772280765133,0.0069083082621541995,5.4
0.03653826839758927,-0.0703046457785209,9.848822889724252,0.0009129288044703127,0.002763134789788477,0.007905039807495908,5.41
-0.1752721948627844,-0.13848882036814023,9.673806118559282,0.0007006726320011874,-0.01340483649448514,-0.002153724345529396,5.42
0.20636799482477933,-0.2122665879703457,9.847560616940221,0.008304864986853604,-0.008161213402091637,0.001978390741822454,5.43
-0.06211646651877278,-0.1397074361471278,9.88983040452029,0.0018289553350024196,-0.018723380816411044,-0.003889876796920652,5.44
0.06772292364398891,-0.04693145702098006,9.889135516770882,0.01549429244354913,0.006125700007607281,-0.014673544773362692,5.45
-0.02810738247817128,0.06404896182596176,9.73342570197219,-0.003320744787190962,-0.010296386189211288,-0.009033949666091608,5.46
-0.03716791052235478,0.10003506589323459,9.985736703025916,0.0018882325813502911,-0.007034494394396718,0.007059651083771458,5.47
0.11785749276990093,-0.006211561694034813,9.9391047221651,-6.839356657893236e-05,-0.008970737706705546,0.0030598378358612627,5.48
-0.20880970831695592,0.014653637736461049,9.762716011439588,-0.0012415441425753105,0.0031888026227894516,0.001699777570579947,5.49
0.014992796643707182,0.22053691916254708,9.771552078877214,0.014782577455192864,-0.013167475965375514,-0.0068185484622162295,5.5
0.1469210546959054,0.026301118042121124,9.742963544395174,0.0012702513446525838,-0.005385299431263432,0.02476293996764154,5.51
-0.029208419667148006,0.0600705559121332,9.875183083600062,0.005832862796608732,0.002044682281494003,-0.014094855448776257,5.5200000000000005
0.03990968006779987,-0.13223223655531913,9.840431828836692,-0.0021832469951665713,-0.001135439591131538,-0.003541509387851598,5.53
0.11277002179769798,0.06374451238794998,9.898223270404987,-0.0028158523856835183,0.0075545359917825105,-0.0020247583972788632,5.54
-0.09732502523216861,0.02639268336855067,9.774808350793496,-0.0021390432243300404,0.008152684511292325,-0.017550840426989373,5.55
0.0012543870596085072,-0.05814728981386302,9.884500123089655,0.006526760020479825,0.0034945219919565902,-0.02413694933928101,5.5600000000000005
0.14874544000945894,-0.00537572730071667,9.786173918593501,-0.003199415828804203,-0.012674836194162134,-0.007265326999050318,5.57
-0.07533313185664137,0.04883837066006516,9.6549148775577,-0.005387814438282737,0.004556346899350331,-0.0038954727495618077,5.58
-0.04690242553561538,-0.0753040689234423,9.921705358272474,-0.010197629699745163,0.004904603568198864,-0.021715263036440332,5.59
-0.12702886267480026,0.048494238300674175,9.747971089762393,-0.010250803660287378,-0.003975399381622653,0.00484015346954155,5.6000000000000005
0.2806937454491396,0.028672792104427632,9.895689501956284,-0.005456207026993567,-0.020849002296104504,-0.016271968516255786,5.61
-0.041768757598235264,-0.0762071496335357,9.92985128247698,0.000348889936786331,0.01964671551447812,-0.010079954096320107,5.62
-0.055691047917496975,0.04223348068660999,9.746668944285457,0.005540766855518745,-0.0058684845436527714,-0.0008627261596149746,5.63
-0.02907944584590005,0.01524863569766295,9.971945788913208,0.00650005237482078,-0.008612449274662705,-0.007328104808231908,5.64
0.03489940004311769,0.148893335651868,9.817113042882852,0.006585839649339071,0.012127687120702857,-0.0056293456654722416,5.65
-0.08651967758584396,-0.1590726206576426,9.781468438315311,0.018070158636346676,-0.01089643716129346,0.008299631253331632,5.66
0.0490154490534814,0.006365889843510596,9.811510626238258,-0.014724117533216985,-0.0005475992695534987,0.0058866689541154,5.67
-0.042378287863213696,-0.005873254902752301,9.818134289274356,-0.0002928039944956011,0.023294665302180474,-0.004179360703868168,5.68
0.037042030385480346,0.0027892487231528634,9.91785634180896,0.009118143246727054,0.016069822632359995,0.01667646252174375,5.69
0.014930930796029971,-0.0586870732724327,9.809479738571024,-0.005991861225301297,0.0005219774766914841,0.0073763164694149366,5.7
0.03558100435355623,0.17887015758153746,9.797866755799618,-0.0031663882101897497,-0.002648870395981569,-0.0019629777987576866,5.71
-0.0679732190714036,-0.15530034283954833,9.952467613012107,-0.011256740660666035,-0.013335610247122551,0.0016033380009162301,5.72
0.0745669893467518,0.0939407924807032,9.80223641777924,-0.014402812173873273,0.001071326968649889,-0.004124047012104315,5.73
-0.02178336324434789,-0.2209873138223855,9.665859815852901,-0.006308108423445829,0.005511332955279609,0.003418968943080847,5.74
0.09553145715791542,0.18476950862818597,9.72673714182144,0.005419668451790051,0.00011086234490456282,-0.001619594646784219,5.75
-0.06803464394363251,-0.13910946483239828,9.717019088023076,0.004811588986512855,-0.006602865777867851,-0.0011753633956700323,5.76
-0.03414640610106314,0.17124942403873455,9.913167453919309,-0.0019050242759231814,-0.007062030725887835,-0.006584374882365095,5.7700000000000005
-0.09132740879004099,-0.006345716588572355,9.66577782985705,-0.01066176073220189,-0.01537870431024124,0.012024581794581688,5.78
-0.010636225808868652,0.05674478788990454,9.770263717544864,0.009673589175298829,0.006346073227874429,0.022545007822958058,5.79
-0.038899263974652994,0.0615155879314854,9.814695580114234,0.004293586378488566,-0.0109395968680841,-0.006425219421343831,5.8
0.10111047471118129,0.06609505299206277,9.900330491567196,-0.008713768879224188,0.0056273231723787025,0.011045772788510383,5.8100000000000005
-0.08850821570474682,-0.00856684643843216,9.76855139773197,-0.010155729889374935,-0.005940027118018322,-0.012309859951984472,5.82
0.006981235621653741,-0.03794100906337398,9.807660184488144,0.011957032207555512,0.013634945039617416,-0.0032136191973317707,5.83
0.016797967340726926,0.009612770566614687,9.924395985329063,-0.010978926821345285,-0.02005611984993885,0.004816492338526852,5.84
-0.08315931358022677,0.08675546489026592,9.797850627376793,-0.004742425606104101,0.017960380776776513,0.010738339387082676,5.8500000000000005
0.15726638653662472,0.05795874648046794,9.779949118727208,0.023167718979884396,0.001064717003809924,-0.004770862462536725,5.86
0.06113530407208021,0.02188021336674421,9.829838956346995,0.0015795282646933128,0.008081015138509126,-0.0015248661954454306,5.87
-0.03581991723577844,0.0726120118156016,9.811311810123431,0.0013526035125106634,0.013059286766475752,-0.0022558048497388363,5.88
0.08638402533927136,0.08977591233876722,9.891997196318298,-0.001168988951353663,-0.001723017326278307,-0.010040391228134406,5.89
0.0961999302396928,0.1297729465606976,9.719085872865053,0.01628243144715117,0.006865097805420281,-0.008795802104822644,5.9
0.02750056823896757,0.059356516345360745,9.664762291315244,-0.016237232436632564,-0.006998366935113315,-0.007811020296607692,5.91
-0.008205159459211644,-0.052957367360690503,9.785800061075543,-0.0011723818660146251,0.007911689166799962,0.021121199117903708,5.92
0.02705517677370739,-0.09189667815879833,9.797291250156917,-0.004044900944099733,0.0011810542937203327,-0.00013007756738733664,5.93
0.04605270999387801,0.013645123329004284,9.900734586144278,0.009421504622460284,-0.021581234940668773,0.0063757550341959,5.94
0.11855280170403233,0.10875047364281674,9.794950434864203,-0.0018997615602938489,0.01504690618914091,0.002764224958299442,5.95
0.018404161815942725,-0.07232206095459125,9.786834214880734,-0.0001343796651184785,0.006030364235462172,5.3201409259189995e-05,5.96
0.07084174921413838,0.029088959353898464,9.89822155946153,0.0035273971842264733,-0.006026650273938607,-0.0038579413006864308,5.97
-0.02558111489360068,-0.10895978877327822,9.62129293858615,0.006519372113429758,0.010596416298108821,-0.013642414993759646,5.98
-0.17921518181509544,0.03001112589219529,9.666981346806498,-0.0010917006569054258,0.0058127123365170254,0.017485936754204543,5.99
0.043237965703664935,0.01920960098125432,9.832780311620601,0.0017176432221434749,-0.0027863786436520023,-0.016838027293350925,6.0
-0.0039321697272467525,0.0647660537083764,9.834979371650082,-0.004805706084670799,-0.005978782390535992,-0.001183115199875463,6.01
0.025577817948383336,-0.11553969496785317,9.829406420075875,-5.0039927315845314e-05,0.01773880970646239,-0.02371558795836604,6.0200000000000005
-0.005094754800684451,0.2321659488312342,9.90083104812619,0.004208748132918297,0.018959899039534107,0.02100358716341304,6.03
0.0498803420103581,-0.14029701725652424,10.000895684582073,-0.006873309697433786,0.005584857348037049,-0.002313525187207211,6.04
0.10214388205842372,0.11177240883511352,9.939423573712366,0.008936017522402894,0.003653957346708691,-0.009223892647417568,6.05
0.050642381955756044,0.07350111628266057,9.939772015637187,-0.0027520478857483805,0.012720154053808273,-0.008695443827689553,6.0600000000000005
0.13377164724132815,0.025642460740457996,9.683854212724214,-0.007593827889069964,0.005102105505283454,0.009028271363083509,6.07
-0.01511906761519025,0.0942678197725606,9.623067011946262,-0.004602065896058686,0.011260825376243608,-0.004109081353855169,6.08
0.0019258201166271847,0.006169756138931396,9.764609654631343,-0.004495307709401923,-0.011987714344680765,-0.016317593082527664,6.09
-0.03073646240271949,-0.015869791323890502,9.734559771134933,0.007465284616190685,-0.02291340405927029,-0.00761211111606343,6.1000000000000005
0.0030426850129066448,-0.030609810875663293,9.811583759023423,0.005030584783523639,0.001736460018506245,-0.012826907844195486,6.11
-0.11500997788964736,0.08476997340345335,9.989254786296476,-0.01270130616489308,-0.008094540412977077,0.01457596910407392,6.12
-0.07227462113922166,0.05934567169938518,9.818531350898049,0.005301360842938815,0.0013253002628801044,0.0018911901054926158,6.13
0.007735565945114063,-0.18104021778304186,9.917195185654244,-0.008855496377112979,0.031248371944873305,-0.022218845590034945,6.140000000000001
0.02894314794053711,-0.16421626841764547,9.835106797186045,-0.00011049755550986418,-0.004285714480806418,0.016655893773000995,6.15
0.055451408939070725,-0.03934072034298445,9.993286322763277,-0.0036199876350692783,0.013504287657863021,0.006698992218118466,6.16
-0.026603564921294454,-0.02589480241488438,9.813334629024633,0.0019085398643593522,0.0055527337075495994,-0.0010510618175943503,6.17
0.07457401371862882,-0.036769493110066435,9.908553221605873,0.005739382813196028,-0.016439773004663337,-0.000909557688778717,6.18
0.06459368531555679,-0.15695231112289437,9.76473580656953,-0.010439383420783984,0.011269685800655427,-0.014985195174619294,6.19
0.1873503197686768,0.07604298302349832,9.709663522414822,0.009635580451769163,-0.01163595302590301,0.013264666993053925,6.2
0.0976050862757158,0.13158298635636648,9.598431498387189,0.014357543509443658,0.005415483897820706,0.016350943400183223,6.21
0.12195114077445608,-0.19318655895271725,9.963049063718108,-0.003418815234074054,-0.0014326359739690341,-0.005301780737009119,6.22
-0.05473175308710662,0.025723288464434113,9.934759936443795,-0.013514376332035824,-0.0005087825975893204,0.012825185121709878,6.23
0.02160599545860597,0.1016136908253639,9.560116186805143,-0.004144053891841024,0.010429483813661766,0.003969178254708151,6.24
-0.16617112738043213,0.05667585548543376,9.723004328666029,-0.006178882682750131,0.01152744794659849,0.001133498091888284,6.25
-0.10924613117834232,0.10327925699769665,9.637418236216842,-0.004376526007676873,-0.0050573174968407296,-0.004541037138227101,6.26
0.044524652717343294,-0.003955309048676504,9.85497113112703,0.017619354235128386,-0.009479173177460764,-0.013040256143378757,6.2700000000000005
-0.0578055536251474,-0.10630112986128892,9.95207530515356,-0.009639226862191532,-0.00747732130327255,0.019995117826422045,6.28
0.049306484722553556,0.10651321577334259,9.846098850731284,0.004022842542763055,0.0036882332539900694,-0.015921074994408767,6.29
-0.0821337793198929,0.08281833728325437,9.903271606648,-0.013187485121692802,-0.002960172841315932,0.0030433179133174766,6.3
0.10564798526987894,0.08857112163939894,9.764853917243354,0.010623726362123288,0.018669769940707064,0.008991853911826499,6.3100000000000005
0.128547593826291,0.011315598079701469,9.816115869760662,0.0012052440329939284,-0.012586900263019712,-0.009817283885385993,6.32
0.11079552096716745,-0.10741304100946117,9.794464474723304,-0.012800945309878018,0.0013943270255124156,0.013553133453039202,6.33
-0.1319574123127766,-0.059695191248636294,10.058871066839371,0.004590849717624591,-0.0178018121001325,0.004460839312139848,6.34
0.025531914779821935,0.10294918005181741,9.77128469298018,0.0036443168959051937,0.0012137190260438217,-0.006894922153670672,6.3500000000000005
0.04658592735827555,-0.06345672983258305,9.937117641887488,0.002650231318994897,-0.020387445771519453,-0.018319654289494537,6.36
-0.12058350288207642,-0.026133957172092916,9.769661070166205,-0.017074711565551456,0.001971111184695591,-0.005113648865394293,6.37
0.13505099369877857,-0.12758186505323937,9.71622127401884,0.017739182522144317,0.0026255041181185317,0.014927584974643486,6.38
0.06680181729226359,0.21806937946552438,9.714149910324425,0.012977570913480277,0.002848470536205092,-0.002801536612323897,6.390000000000001
0.12126704727555254,0.0200569295545742,9.918319313894342,-0.01924574132964846,-0.002334846775027827,0.011012163544969065,6.4
-0.0410558304609928,-0.10560905252897096,9.795439390517684,-0.01034534154104765,-0.0028854832688857165,-0.00983744540381705,6.41
0.09281281780721558,0.0863935541935085,9.845186729417874,0.003464972483242885,-0.015639198108639556,0.01948052888831569,6.42
0.025761924210092036,-0.1093861248742136,9.807262433724334,-0.0008525849055511284,-0.0180094453086255,-0.0024174189264011977,6.43
0.08608930948251092,-0.039541659434582335,9.687376773795231,0.0033098446929758717,-0.011863548595511775,0.00970434447626926,6.44
-0.011972837788711596,-0.08169736557099405,9.934848253017162,-0.005057870767665482,-0.008057691268015116,0.015717293614871803,6.45
0.07523598531046805,0.11055501276045686,9.857546747663745,0.0030054588277194988,-0.004461126708317101,0.011235900250759281,6.46
0.08641095739430035,0.010847561703135502,10.019308214672455,0.003183043633090174,0.0015079527805877805,0.002727507458900158,6.47
0.15937155943845294,-0.0453101308134677,9.817318887793034,0.020563910845337822,0.004265601201526811,-0.017453180047680015,6.48
-0.02096332447090423,-0.029279860991413127,9.965787832630133,-0.006174012938614308,0.010253036179415842,-0.004821362613698816,6.49
-0.12178071961089737,0.19644505227940953,9.774203229496898,-0.010176456585385452,0.004005174552807265,-0.0007167630881321461,6.5
-0.059989930542457465,-0.06335146278838176,9.6800162248267,0.0021865240103532816,0.005356449029041668,-0.006003368047591364,6.51
-0.16710200740442577,0.07284554867677355,9.98968444007935,0.009745684460592279,-0.010781993802038784,0.00533362605162195,6.5200000000000005
-0.04244025287047643,-0.16734107496193648,9.829034490363044,-0.006609829975832514,0.007270726822146095,0.009219338739310037,6.53
-0.030184816005143462,0.004051249585096706,9.833703648942754,0.00026244534570811414,0.007245925251942954,0.007191879856339144,6.54
0.015216993312185451,0.046241933702498766,9.83407989811233,-0.00038945534630342347,-0.00744571022501441,0.004795227880142894,6.55
0.010081934688738133,0.17917831741612467,9.847507174833579,-0.0062266743994583785,-0.020125732765454384,0.009495708584551892,6.5600000000000005
0.04263684916880898,0.007740771523657361,9.838735062212157,-0.010604833726161956,0.004997687479759592,0.011261307391722486,6.57
0.009125445549427857,-0.05279108704791809,9.704113013669321,-0.009193493087952156,-0.019572751440213098,-0.006223382202270743,6.58
-0.1198276454584518,0.03543314624081285,9.96425633246121,-0.0009948642587064404,0.006290341983122777,0.024502757583289028,6.59
-0.06597419566916,0.03211744017074785,9.80601369430684,0.014243206678044126,-0.003703257658336904,-0.01953038886039816,6.6000000000000005
-0.0320509952919926,-0.056167586468908376,9.873699267364195,0.0009172557764891884,-0.001831812124885112,-0.011018733431946757,6.61
-0.11717629570257573,0.1642694761873463,9.806615604110794,0.0022689936241189305,-0.002535021725709354,0.010327149801956153,6.62
0.12186090689384639,0.02561664238043891,9.89439658868583,-0.020019869548842266,0.006090647755988709,0.017923230659623153,6.63
0.09951682131904038,-0.07127141835187216,9.775767060592052,-0.016857574085740148,0.016456506511313883,0.00043742715649369013,6.640000000000001
-0.05543711147244751,-0.07274693866931144,9.695283345655934,-0.01617754532215903,-0.02285192375066279,0.006213143278967868,6.65
-0.06078714453750799,0.20161437831750717,9.94981650553184,0.005840266726349035,0.005655260165836249,0.011943700906631756,6.66
0.015655571923041543,0.03139243805901911,9.774935703385928,0.00677426829784183,-0.0028492619671608944,-0.0020609133986501096,6.67
-0.059820628934785375,0.09468866009780055,9.929936485022905,0.014660923724748894,-0.0008506153783615943,0.015176510151377593,6.68
0.147091298872463,0.022361377972599333,9.854093826443705,0.0016134693317755202,0.008273299245661147,-0.003902958183806632,6.69
0.005228045608384973,0.0038699228393777167,9.806765954248576,0.01312595810439817,-0.008009076738901834,0.004413560560450522,6.7
0.13594750809198805,-0.028688928362058483,9.654733810088839,0.006612343414210916,0.005579494632747003,0.004773557339905913,6.71
-0.03909448851650382,-0.2100585309912416,9.808085840557645,-0.004590160883605795,-0.007258834864357263,-0.013938234996514401,6.72
-0.1165511119952867,0.036612590601891655,9.883397659594293,-0.0009343385523915146,-0.004078793541122079,0.011051896914208983,6.73
-0.09317243763138067,0.10235232598390183,9.87979021526096,0.006147277393691942,0.0071960371754850394,-0.022128881240865327,6.74
0.11737526354217792,0.019475148199361702,9.810481885713418,-0.011082078119577793,-0.0028694886788581202,0.0019156502652925742,6.75
0.01060507570934427,0.12520454315185628,9.854991873168435,-0.009532799436086085,-0.0201944408243082,0.0034179512769399486,6.76
-0.02638649869695499,0.06676280881293685,9.660718894130747,0.015209456908398167,0.007007102050339329,0.013104603160516487,6.7700000000000005
-0.08177137344101595,-0.03684499204687075,9.832187598768158,0.004967068807404867,-0.011158578267201645,-0.003583754922552206,6.78
0.09113624017837743,0.016719181110871267,9.72204159169854,0.003973294228868641,0.024930676161814196,-0.013247491597614947,6.79
-0.11283291260685815,-0.026393639239994007,9.979824330961478,-0.0036758499636867555,-0.010424903637845501,-0.0073030906228927365,6.8
0.10372453266379107,0.06388593411149242,9.906070270480141,0.009758334932106984,-0.003924637688537579,0.009850037954016087,6.8100000000000005
-0.09097793542482863,-0.03613680404212734,9.87420560819621,-0.0044599931349678604,-0.001806953981603616,-0.0060855897736971885,6.82
0.22059860310860024,0.17932322469746448,9.98749721239708,-0.019777226624727157,0.010589417614304285,-0.01700292416230515,6.83
-0.03494313306498275,0.11499251237859738,9.904675395808272,0.0013679900893249517,-0.0004104744704562869,-0.002769375106234303,6.84
-0.13862966312401329,-0.030593049277598823,9.953477604240636,0.0005617611641765257,0.009835457594551532,0.0016185997201162454,6.8500000000000005
-0.05556692585083613,-0.008460788477535746,9.91550723575826,0.00295247974701364,0.0024557810662395306,0.016674813537591805,6.86
0.16189791492630567,0.07335352474446642,9.824007073143894,-0.01728378716798309,-0.006734522693522806,-0.0031876956288458373,6.87
0.10138039768113763,-0.06383056231086438,9.903508304646424,0.0022877824891951253,-0.00566310466268764,0.007259930502707455,6.88
-0.08470742852139007,-0.09860067113224324,9.81606184247201,-0.008282519037014003,0.0016135721688837782,-0.005278942608664783,6.890000000000001
-0.09880372788361048,-0.23124256922765885,9.677439366443057,0.00265331936455466,0.024230805672088584,-0.01103124090689953,6.9
0.03354210789164635,0.05282275826982467,9.836772732020332,0.0070249106686244836,0.00761239465437816,0.0010367436963227001,6.91
-0.00896311710704002,0.0589685286960365,9.874860700228156,0.001715789479403684,-0.017093702079944283,-0.01348381952896775,6.92
0.014350928115761217,-0.15937372101879477,9.699473882025893,-0.0036235934700838426,0.00018286847072095872,-0.007626972486959075,6.93
0.15996907668299554,0.11281085867148676,9.803136493625484,-0.007129456203960228,-0.013879782685881335,0.0024792403247550516,6.94
-0.1483518002167735,-0.0121773988976219,9.90443742668348,-0.0015439797897909109,-0.007446134246905743,0.009457166388310699,6.95
-0.138193986990567,0.07987357566160856,9.903928286766972,-0.004042808629210207,-0.0008695273799016756,0.0008108027479580738,6.96
-0.006534176559103157,0.1914755424108478,9.975693112482679,0.0019802588468248047,-0.0003992459591353971,-0.0038742435154470846,6.97
0.04140955984280739,0.04786625668893812,9.727496994909808,-0.01575672725522946,-0.003092307316942547,0.0041301320896830855,6.98
0.02044244091120044,-0.18893073439303523,9.708045695924591,-0.019790585879911383,0.016455048104397046,-0.008619295232915412,6.99
-0.08600571500919058,-0.04526550306402263,9.720708820252352,-0.00830322311988479,0.004931635789070238,0.005166734878080506,7.0
-0.05031558117062325,0.0910329091944944,9.872333785631133,-0.009349892721864275,0.0028481461496510357,-0.005429434675978086,7.01
0.07333604404972004,0.08624133066029581,9.727455393430278,0.0019827158977296874,0.008206018993267308,0.00960585170032452,7.0200000000000005
0.0948063216669469,-0.0011452003858382438,9.72816156169034,-0.010603236960927749,0.0182232432872342,-0.0039755136621328815,7.03
0.07531742667633681,0.11817143283977156,9.687602853391544,-0.008813506866663724,-0.015940294245796783,-0.0034713390364099128,7.04
-0.005867195432698366,-0.10852690552589637,9.600521300233577,0.0026933417467493725,0.007029645103336543,-0.0068274554319489,7.05
0.13874379153928149,-0.04006019574263705,9.770541214709727,0.00815818333132306,0.024829247674594383,0.002969410887751957,7.0600000000000005
0.033622554357335584,0.0652055798437476,9.99045675684058,-0.007590301022769144,-0.0005890340966866451,-0.0034967302972225647,7.07
-0.06111637772833661,0.14963312183422722,9.820668856749695,0.011104728111895484,0.0014657873712248413,0.007568334700530226,7.08
0.016295320291061777,-0.14817856861377074,9.892253915762325,-0.004743768594938565,0.007553015314335442,-0.026542429613842993,7.09
-0.11522926898124158,0.11943016829634907,9.718845607939429,0.007985429536861979,0.012737312963425599,0.014207804352716685,7.1000000000000005
-0.06099924298825309,0.13230440377740568,9.857084195457197,0.03269736780323892,0.00869257074706799,-0.020253205870173558,7.11
0.13876147701609273,-0.10156940572677312,9.695546870400072,-0.00013100713027665759,0.010343042902533257,-0.018495447202852615,7.12
-0.015060059856267002,0.05971430119384247,9.720459575967627,-0.00809878257893144,-0.007763523278008678,-0.002678659373664411,7.13
0.032627871549150485,0.13481628361169645,9.855814284950302,0.014434490773617008,-0.008896629113579111,-0.004065675589891716,7.140000000000001
-0.065836133903233,-0.23735511644564933,9.615027595379846,0.01613009938492316,-0.007916051585161725,0.007470331678898827,7.15
0.0399567250293788,-0.02138617437222561,9.78084599135879,0.006326545233894453,0.016207786028741466,-0.014997260131522883,7.16
0.0752669873652022,-0.06815980428429322,9.795007298832317,0.002819258645280206,0.009195580969961419,0.004175215409184842,7.17
-0.026535135405177213,-0.07671851326048257,9.875174038720557,0.006531151435998637,0.017620884797233602,0.001791602297767648,7.18
-0.05948641445087192,-0.08970855705890421,9.734977702938169,-0.00016565579863442347,0.02095385421658864,0.0026244182735566343,7.19
-0.019309005317715566,-0.026903305767141686,9.535456881653932,0.0009061560144727879,0.004732560621138644,0.0022082478331010157,7.2
0.07092050292815599,-0.0907390239610154,9.980402970680906,-0.007118286437973955,0.013512951529343644,-0.03163957711697347,7.21
-0.14175634001343732,0.0031435080611075766,9.917581182924948,0.0071910574491661815,0.006909102075820995,-0.00975988893306902,7.22
-0.05532596213851078,-0.10073767962914648,9.965105151786377,-0.0031520917390013416,0.007820647163003524,-0.010587492168961545,7.23
0.035651290202152595,-0.08683770427073957,9.841764080903575,0.020955680136187076,0.009179205037962622,0.008528647345394543,7.24
0.027660633535396318,-0.10801116447439392,9.76494684431231,-0.011043928228774225,0.007549611109942257,0.0009859861804315624,7.25
0.04511743843405798,0.026169330567985018,9.7735365285569,-0.0019935056553464013,-0.001768024598484173,0.00048410443572752276,7.26
-0.17744869296809995,0.08495280637417783,9.769621863212114,-0.005703591782368828,1.622923568622209e-06,0.0002771439120183691,7.2700000000000005
0.020988721348452574,-0.11704700564627749,9.794613634154349,0.013864856058963163,-0.004366090546307624,-0.018060701426535316,7.28
-0.03487764360421377,-0.03918075039573099,9.705614374220758,0.00588733609854788,0.013547257908302485,0.0033724687801757816,7.29
-0.047260783803448315,-0.05602309479619473,9.940615304118998,-0.0007293689186586219,0.010247857717564169,0.01034476747010268,7.3
0.05107150320405684,0.07521633153225625,9.774859412317102,-0.0005255589808324369,0.01342842291889377,0.015631284595120358,7.3100000000000005
-0.2031648578815165,0.11183797244288161,9.931886334867034,0.022711944511931845,-0.0012963201935608625,0.010157904041521622,7.32
0.040077463192808735,0.10029087970112016,9.829859048310364,-0.015988506397528322,-0.0009703313971179049,-0.0029860726983693487,7.33
-0.03618897344931934,0.009936925728870956,9.967133173068351,0.004236876704374358,-0.0016750165666449344,-0.01263554731313915,7.34
0.20601359511181552,0.09385809339001659,9.740910572241004,-0.0053369548690145804,-0.0071523567725390105,0.005416345579748468,7.3500000000000005
0.03608143960131099,-0.05624235886718476,9.751279587079756,0.01180845371956538,-0.011903928504823148,-0.008622214920842867,7.36
-0.028990321479858486,-0.07898320183062899,9.702003529191607,0.0006351773534440505,-0.0062451623924595035,0.011418339612346805,7.37
0.18759132706621817,-0.04576465042479813,9.80300276570643,0.0001351729328398171,0.007603942461983069,0.01046662176159554,7.38
-0.07129214663933763,0.03853590257848508,9.900828219486131,0.013242452227743944,-0.020754811795740295,-0.011453736653525382,7.390000000000001
-0.16203012844625592,0.009141796886035879,9.76257955692715,-0.006160103704603755,-0.004429351590203682,-0.012738209634148468,7.4
0.031752388172250755,-0.15239506678350875,9.825277239806423,0.0163607398561869,0.00876444600650433,-0.010937953796477346,7.41
-0.16611755855500096,-0.0568094945234896,9.95119839554407,0.0070473453452762815,0.008043328791991015,0.0012946096810042944,7.42
-0.022409266364929528,0.01871612312830561,9.82074705042589,0.003043246717499539,-0.005597965834689785,-0.007510248602046742,7.43
-0.17300360885184596,-0.054264818664203796,9.811454443846904,0.014591418163293188,-0.009785836533035306,0.01523173672315588,7.44
0.05803616480826395,0.026429872027556006,9.615688530904169,-0.019990251153845992,-0.00013882379676149608,0.0028478150783234073,7.45
-0.05864922718099689,-0.08250877493991321,9.60033257784299,-0.0025905304230006,0.023249661795116564,0.011915223774536847,7.46
0.12181857884033064,-0.08117643627411286,9.673005532956942,0.004917430958275445,0.0037365542959322136,0.0056175829815315,7.47
0.026818388150457367,0.14941331961319346,9.949938314187962,0.006416063356277174,0.016115671741331734,-0.0038073262227230854,7.48
0.012389759809662254,0.06471204635080219,9.99767796807551,-0.010828098758560428,-1.0654939110143914e-05,-0.016061259231110465,7.49
0.0901601014033468,-0.030716338327719778,9.753167964834686,0.0050902407843001355,0.006287380434902477,0.01309294582933936,7.5
-0.11309656794025585,0.10287704451150868,9.929151528019702,0.0019446178503984156,-0.010509853759140486,0.007949669375431992,7.51
0.03387686369607837,-0.0034345622116970704,9.844548215876076,-0.023099370088345627,-0.009879978749534514,0.01455878585904034,7.5200000000000005
0.05903481754299396,-0.09158893117990526,9.837031227079349,0.009726239472431212,0.012355140469830217,0.001416433961803397,7.53
-0.03882902215203395,-0.07495709587480294,9.84716996040656,-0.01105778978906947,0.001420973418153348,-0.007318310972589696,7.54
-0.11019099997474587,0.02096767826752742,9.784546926129286,-0.004270235542950097,0.002875673062454158,0.0026948522333933036,7.55
0.05349338055882145,0.091428219544578,9.618957167235193,-0.007833575754329235,-0.001863846508397212,-0.008561134837817782,7.5600000000000005
0.02649273401819674,0.02229418627997823,9.778888600062244,0.005333118083236071,0.010072912046190095,0.006198801772044835,7.57
0.143963366490091,0.13407338287923662,9.818604208204109,-0.010246765883545297,-0.010273958714089813,0.010806172532159757,7.58
-0.03365598472913202,-0.0029887301950043085,9.769602271763421,-0.01702848129637406,0.006642375750614928,0.0073448066401048265,7.59
5.8932941290510934e-05,0.09281505476589584,9.678282292200448,-0.006303989325880936,-0.006142541712658139,-0.0017635675207709068,7.6000000000000005
-0.12258424880090885,-0.12997359264786545,9.681165263294249,0.008734898694683012,-0.0004219018495278875,-0.0014995802885227622,7.61
0.02322891397298582,-0.025298027289147082,9.784049123240177,0.015139527699618181,0.014113899409014204,0.010420096433475991,7.62
-0.1020728711493367,0.0062997919609643115,9.789919124911941,0.015897185873213326,-0.005145600375632022,0.013382458101482924,7.63
2.1222546934060475e-06,0.12065433661169263,9.952381601542045,-0.0005740437898152696,0.009457205647261751,-0.011697287879863207,7.640000000000001
-0.07587134910418192,-0.07293489133671745,9.888367180608814,-0.004489212811682277,-0.009422445597734697,0.00865322689166515,7.65
0.05995478547711641,0.03427290212113242,9.912430465148525,-0.009129239022889639,-0.006345124588278892,-0.019509585356254713,7.66
-0.15409421794247516,-0.07051907543078285,9.898479340881527,-0.0073909231704165825,0.0009101893466872867,-0.010184667652627693,7.67
-0.18681553323509406,-0.0053027087039625945,9.955180300590051,-0.01737688623874596,0.006420594740268855,-0.020467911674374152,7.68
0.08256508411126916,0.20185940012607553,9.896551808837089,-0.0009273090162143787,0.007681236474547674,-0.006234634510829632,7.69
-0.23550794325267496,-0.21928948773930715,9.673397534871404,-0.0010253569195950126,-0.003804141232078433,0.0047718791595890995,7.7
-0.1567488665657081,-0.01937801219645433,9.798427863388355,0.0072860652585706644,-0.018537770181921293,-0.0052668719132664766,7.71
-0.09898901135310807,-0.008300850323789674,9.78977249306975,0.0027675030221856914,0.013975241168650643,-0.008985137415733037,7.72
-0.03444032375076881,-0.012255319692351371,9.928095618160246,0.004698767366874895,0.01910323187684865,-0.003140617849977634,7.73
0.08885248969312212,0.10102188123734879,9.682280997302446,0.0013592338557951876,-0.03220489908684375,-0.007648468932816617,7.74
0.18572382936661191,0.09266289008016736,9.73211773227103,0.0032247463227518536,0.0037267310716862733,-0.011484300362889905,7.75
0.053972970127530384,-0.04112561439197845,9.804508807006238,-0.002312111182480064,-0.0017394446719075024,0.006122977337175807,7.76
-0.15278679525239625,-0.05382402761023075,9.781073406924703,0.00785954341780641,0.0051397818528493315,0.0048436419577182884,7.7700000000000005
-0.0830371033927034,0.0036946831174681804,9.954246829087324,-0.005589509930532934,0.005368729966795903,-0.0016951583313230389,7.78
0.04056108770351856,-0.08316586554685163,9.754493326238212,0.00913604741316829,0.0055341113771219435,-0.00541732452766095,7.79
0.004364930611756463,-0.13177772859787426,9.904781207917496,-0.006228925525325374,-0.003481599795648884,0.014757870019365932,7.8
-0.0269442035426571,0.03802483976497615,9.763317023099722,0.006414440916590722,-0.026558813719258556,-0.004655955107580931,7.8100000000000005
-0.016049156167144762,-0.08719214913065056,9.853584199316694,-0.013416340706205994,-0.0025203552157336564,0.018154781924116653,7.82
0.09084180414321458,0.021186305420964183,9.932051543896536,-0.010552718567339551,0.016782716373702176,0.007519159478014196,7.83
0.10194922233086097,0.019964455156331308,9.711126309828746,-0.0076014647889893205,-0.0004192281751321438,0.010623729144966414,7.84
0.039982004125627135,0.09767373555902242,9.798836606624704,0.010361889668001905,-0.004313423105608258,0.006418277221310317,7.8500000000000005
-0.15410403425181626,0.0036474189643260395,9.897800023529713,-0.0002803547733864743,0.006809463949267859,-0.006956094167651959,7.86
-0.0430440261625147,0.036802087308120957,9.921287983451,-0.00848017121792311,-0.01635097665625991,0.005055546505558552,7.87
-0.04779092159163214,0.04594653939576607,9.95980351482282,-0.00023885362726443156,0.014591383277166237,0.015720178953690194,7.88
-0.07421512065596063,0.050698832288540524,9.810312855917067,-0.005508275683707137,0.008622635162663539,0.008979408788964563,7.890000000000001
-0.10972992302677682,0.0685887632062217,9.894988117508689,0.009055741803765541,-0.004917164204877821,-0.009134544860200542,7.9
0.006491935935927547,0.030395525187617786,9.959666118314752,0.012279907007353066,-0.011524696341703623,0.004713361302451243,7.91
0.0855630583072005,0.03045576042227932,9.87817580585331,-0.006171250585387012,0.002207671483218473,0.001990837297074751,7.92
0.05115255055318352,-0.007793125237276076,9.80291185184294,-0.009070050702861224,0.0015790197957208524,-0.004072733122774152,7.930000000000001
-0.20548138744425623,0.05232323645836992,9.78009475020073,-0.005179709369141076,0.0122358649231257,0.003880252969415098,7.94
0.04529147935470122,0.035620447392940055,9.802150140123503,0.0053058851081783185,-0.0016447024977122584,-0.0016459110156465861,7.95
-0.08260087318294576,0.09729690315296731,9.699051879216576,0.009136857680485968,0.006878953909845779,0.004331983592645217,7.96
-0.13775525490122512,0.1107465330970195,9.782423827431353,0.0006329715199674626,0.010545225355746623,-0.0014316318812028416,7.97
-0.10900193843217312,0.07691506546014264,9.770214349041552,-0.005016064755867462,-0.008753321889196917,-0.004374506175372071,7.98
0.11702684572856795,-0.0512101208165891,9.935500467494188,0.006785945901751639,-0.007982999020934993,-0.013448772137303435,7.99
0.10648504266618393,0.0876208169217976,9.93427683214172,0.010804140050324342,-0.008842912051880302,-0.0136998305884423,8.0
-0.0359420347103284,0.12536943431876096,9.650190472494211,0.00870256893171679,-0.01423284031948215,-0.005938071190655159,8.01
-0.07248645103077145,-0.04218608325405618,9.770198060092886,-0.007283204998612383,0.003066480706008549,-0.001184119759319867,8.02
-0.023387523901972018,0.15693864407550673,9.897241303902291,-0.017191296084307254,-0.010876910798203703,0.006988692881695454,8.03
0.08070416981937278,0.006144523936718466,9.824787261109337,0.014618876699448504,-0.005826246008467389,0.004535439136204939,8.040000000000001
0.007057799104458584,-0.004480942614651386,9.82050888250084,-0.005529583587242853,0.004403953569895868,0.005696002798529514,8.05
0.028517035968681933,-0.14195598737079046,9.928880047240764,-0.0002696137334591402,-0.01648620703977002,-0.016179255834183705,8.06
0.08873184665027653,0.012485973624019807,9.77927961771019,0.000387005002808423,0.009866572299955386,0.011513867635619993,8.07
-0.05417268225651878,-0.04508726275504106,9.873794903526969,0.0052970735493895,0.014487326072042013,-0.019290231820563022,8.08
-0.1498544953925624,-0.022010994817687996,9.85221200626864,0.006599012824705259,-0.009349904587361483,0.005278364988799026,8.09
0.06542836804701614,0.016078341482438138,9.80405721790434,0.0002701644474729426,-0.003068548950749866,0.007443067089210453,8.1
0.020063559205956063,0.01658655277665177,9.883036066358803,-0.0023223274696755124,0.011154719185776077,0.0008921394976249021,8.11
-0.03425224260105107,0.02577725744682435,9.519478431037648,7.360449079945516e-05,-0.0015631722003919912,0.0077295573456464955,8.120000000000001
-0.06392336590598012,0.009064036935232065,9.882890010093853,0.005934714825390029,-0.0058428089875743675,-0.00038115193569091747,8.13
0.2365164430970852,0.015996861311524974,9.776883840328084,0.00268063200680892,-0.009595549476186094,0.009040923398249282,8.14
-0.00955421747149277,-0.1536113075105887,9.910844460752507,-0.009039144149823916,0.007700164763202524,0.023829107111138902,8.15
0.05428793759597264,0.03386913044729725,9.76215030676554,0.0014558499450937938,0.004905002013547547,0.004551895897755626,8.16
0.07148864278774092,0.08591786372442556,9.767090396141327,0.003192702373341586,-0.005861004989337782,0.0216820399702711,8.17
0.012555831773127782,0.06045301813141262,9.895809626138472,0.0022686788487569234,0.001097631642763496,-0.002989833219666906,8.18
0.05894280341098839,-0.056445526239535485,9.738555775726464,-0.03417151625283872,-0.00346605436327092,0.014237613549276662,8.19
0.0010504545714464736,-0.006064378772763303,9.774971686442585,-0.016826629920295037,-0.007818477208464786,-0.011595532712061637,8.2
0.055156180592227856,0.049605031503040735,9.635279128248062,0.003560156539403203,-0.009130171861063695,0.00501338987840325,8.21
0.10660198170790364,-0.04958383775976852,9.769552373081304,0.0039310693779927896,0.004525502788102045,-0.010852464230516681,8.22
-0.05516181207848147,0.050763346006754466,9.79969334262466,-0.00851155383226224,-0.014848085265700415,0.008036141944589188,8.23
0.06654030841873419,-0.07975124886295394,9.855398594210032,0.010616508110166834,0.008845056699868696,-0.0035212046802444333,8.24
-0.0703487619336504,0.11203789784233875,9.960243127225496,-0.017228588324088603,-0.002598093744998116,0.003478548030676887,8.25
-0.14479387604089902,-0.10402009748639694,9.946948083216483,-0.015088202645836948,-0.010797739478538848,-0.012757103495216074,8.26
-0.10454737047362302,0.07638566100296257,9.860257639261592,-0.002118581215490791,0.010524115240517674,0.007281589102797942,8.27
-0.05258888977895108,-0.0567960703702048,9.946778240967475,0.008355556386760634,0.01617451906130895,0.0026292700531870077,8.28
0.03548791136488457,0.013567846549592675,9.946562810431201,-0.01591657236493378,-0.005639930071807397,-0.014058499583829081,8.290000000000001
0.0009485378617480452,-0.08428542140962958,9.708048699862301,0.0003522875882009215,-0.006418403433707921,-0.01010201056488714,8.3
0.05082781312760039,-0.04293249721344459,9.75142873041089,0.00588854147393775,-0.008470387787777253,-0.007778173001903463,8.31
-0.06678024471834834,-0.16426556701834893,9.908179712305618,-0.0036023610949148066,-0.004389708049630864,0.002061464176721588,8.32
0.03153984842283172,-0.08561944160228911,9.823994489837654,-0.007978053437805036,0.006245336662047848,-0.015257729872135906,8.33
0.0949965435275056,-0.012601331784341974,9.907023496408181,-0.00016329459442315612,0.004705844618436979,0.007556806448687351,8.34
-0.03696429366858119,0.07515475956496756,9.82362264614969,0.00015939730427133532,0.0006310335342767175,-0.0037539756311213376,8.35
-0.1883295677807237,-0.1570098650902682,9.91111078126885,-0.012036112917463804,-0.011549320409932262,0.014351376296283264,8.36
-0.14694256836772432,0.011033721091036968,9.831613254490119,0.0006710961791825943,0.00539547117877864,-0.008755415144711426,8.370000000000001
0.00865045873864666,0.006935549990476648,9.77334876984886,-0.014414999716424948,-0.003788428273196807,0.004960972813267799,8.38
0.04662915882243324,0.10995590807763019,9.805399623771786,0.018209504590680287,-0.00830308474744816,-0.007524694227500134,8.39
0.09460334434298762,0.12134256884665172,9.775034583129264,-0.008578716633268946,-0.006104271974502418,0.01598449300220224,8.4
0.06009455998378358,-0.1316097770550933,9.743472078333113,-0.0069937000428461635,0.007579498643161869,0.011658504396123821,8.41
0.09515505160629086,-0.04251302229663034,9.841345229221726,-0.0012552372197530946,-0.01453914007968247,0.01094925365830975,8.42
0.18833352903742265,-0.0029897365475108407,9.789370663376125,0.0035991564063986886,-0.002807067044812217,-0.003598747654844593,8.43
0.01875121701127407,-0.08090559268751873,9.924329801325094,0.0014825844750873873,-0.0026486501715788815,-0.010281951310500137,8.44
-0.13022686943608683,0.037002428901758325,9.760024564515271,0.0016151864225423848,-0.00406290459426519,0.008896835389258716,8.45
0.04918835593740563,-0.005313681021283508,9.799859295323474,-0.007135810869425114,-0.0009516381991976925,-0.012116677460461543,8.46
-0.06020618263816371,0.003394787950220579,9.8148027401008,-0.016849848606824498,-0.0027960256153018582,-0.000678212004694411,8.47
0.04286096331441482,0.12334430922951821,9.817231884978005,0.01190892874963805,0.005335818694620155,0.003253055617617924,8.48
0.001216749098340645,-0.009241500516956986,9.771155051255917,0.0012590163856070486,-0.021502463947824162,-0.004304882554158291,8.49
0.16172305570221743,-0.10739593573630833,9.828384785398192,-0.004496621658657162,0.024735561431364506,0.009372918487504192,8.5
-0.07241441571711156,0.045752426044338795,10.086672920986056,0.009710571476314588,0.007310330642047864,-0.0001077774232731846,8.51
0.01892546807252759,-0.131135234826463,9.772422761539845,-0.008301822760399185,-0.024483977251896914,0.0038061607460489356,8.52
-0.032392327775452284,0.051087100541887046,9.549545393915857,0.0011769202575754052,0.008336456099450953,-0.0159939704743983,8.53
0.20544958361672438,0.0005645997569476356,9.845256277102495,0.003739937689412104,0.003187360766545614,0.005454750012246192,8.540000000000001
0.09791191388717296,0.04977304435570043,9.897217108400918,0.0071888161276378905,0.009377629343881963,0.021469661559424237,8.55
0.0749583881211081,-0.0825482341133163,9.795728689205722,-0.0028723914438401337,0.004301066474847512,-0.008534240892988753,8.56
0.06391060410687799,-0.02395316866084151,10.01811652598476,0.00034491594811325376,-0.005270198819335136,-0.009107318591934636,8.57
-0.027954113601028948,-0.043947280731339924,9.907898152764309,0.018334873665422094,-0.004976815583375795,-0.005303046158002098,8.58
0.1594144910457736,0.03983808583091541,9.689791383494134,0.0026731867647967994,-0.0087990980493977,-0.008828079543014154,8.59
0.03022319904740974,0.0562416423421362,9.760297682300198,-0.005014166659693963,0.0027311557652119475,-0.008587283141209597,8.6
0.04315856467789329,0.042242516309100774,9.773171579080778,0.0036850999866317666,-0.001243277290645618,-0.008629851965053786,8.61
-0.05294867207866371,0.2265623679281169,9.973371651285271,0.0011986539812326932,0.0018728893555997714,-0.0004524958314485605,8.620000000000001
-0.09087549325021635,-0.07282905432874491,9.978490103838077,0.005227061765301631,0.014207397147424718,-0.014661695533135797,8.63
0.0923694614851232,-0.14285297251635096,9.663346033851417,0.006742047704593412,-0.00010300518606873494,-0.006265664904689027,8.64
-0.05929898683107509,0.11300236775223238,9.96001698655267,-0.0006823467650542538,-0.004948448863391921,-0.014839912835262788,8.65
0.014748222185608409,0.08916370224963745,9.793134781682282,-0.005881286506758944,-0.01056465438008641,-0.0018401841802531496,8.66
0.05050881663921397,0.07571363404560723,9.816049026714591,0.00702207468013725,-0.013208386647868081,-0.0059696301323715305,8.67
-0.018177782130604486,0.033818904041772124,9.961119088063842,-0.007421403279522891,-0.012827814739594339,-0.005724198256075993,8.68
-0.16686679150781605,0.0615260512393872,9.775920477662302,0.009152294016208276,0.009630103794095981,-0.01920643990216034,8.69
0.14230063969518889,-0.040377277482173096,10.05471435708042,0.008452530705129652,0.0029740883666644347,0.00861511234085529,8.700000000000001
-0.1986274310246179,-0.08226774197681894,9.702071427858476,0.005295865009035774,-0.001837439937494402,-0.01857550060933158,8.71
0.04714881454306602,-0.09788740670988967,9.806090803629706,0.00594501835058344,-0.0016157613308429729,0.014146823775573407,8.72
0.030384818780691877,-0.0761111413050687,9.845181382253,0.003163133342719111,-0.005775928376938376,-0.005131358358963773,8.73
0.022946615813156185,-0.060154903617631775,9.901279840018587,0.0076019473343983904,-0.01827860624195848,-0.0023935817791248576,8.74
0.07287062254259388,-0.06309493491069498,9.776446630551526,-0.022826913139580025,0.013021414472937823,0.019531237615850846,8.75
0.02268477612356612,0.1784436393300478,9.691901268047683,0.0016386919958056951,0.0023395657279760606,-0.0066399075841759225,8.76
-0.02535690991633216,0.07559222809414508,9.82103332230238,-0.004855121630374491,-0.002824490281421901,0.014225757395811247,8.77
0.19857295403140474,0.07248503059452999,9.838131672008421,-0.0029837820910409724,0.010080013400101569,0.007828953366988417,8.78
0.021751864339210707,-0.03805537474606145,9.796077782379431,0.011701818362458722,0.0032666383004092,-0.0035052926874678636,8.790000000000001
-0.04554668738438475,-0.1132470604072544,9.714747047224526,0.005484629477583845,-0.0012468308993536378,0.0014711236370737813,8.8
-0.06034396148884025,0.013188172783297994,9.760760432520414,0.014246670386183064,-0.0016617194816864525,0.0016342955359863846,8.81
-0.18109675158123972,0.12016492951716527,9.827950840743231,-0.0014674117029502504,-0.00967211159687484,0.0041207731931863665,8.82
-0.0794211625810451,-0.04978039225760802,9.95112642014004,-0.005070517342199383,-0.004874662969709715,-0.002859958271439932,8.83
0.07756160582528282,0.061260869826628844,9.756302870380734,0.009269368748721541,-0.009838771806187776,0.008984323978160753,8.84
-0.18700590498700587,-0.12399889119861421,9.68777785062426,-0.008101978399276488,-0.015861521975408285,0.023892009309321255,8.85
-0.12241598664860537,-0.08466291226040162,9.703811859056541,0.004314232207412872,0.000670383986871134,0.011793956356931666,8.86
-0.031407896405677795,-0.05874895403132118,9.928280942737084,0.015128917465094585,-0.00203691213808059,-0.006607806958773554,8.870000000000001
-0.09866500527736013,-0.05893510909858216,9.851719141113746,-0.017049639061657445,-0.0014065165632982134,-0.009991970572717116,8.88
-0.11409357057587817,0.02683854262651711,9.698963528358922,0.013119604688055422,-0.003260936574419137,0.010360860934485584,8.89
-0.053470097978190946,-0.06959844439668891,9.77180518804839,0.0027758631996223798,0.011426872270074733,0.0026487670532824048,8.9
0.06083188010180275,0.1561639415798588,9.749306870658648,-0.005635414226083626,0.005826247290244617,-0.005297951626346587,8.91
0.017803128103111587,-0.08744413326342859,9.745005641812398,0.0026800968539956466,-0.0117961810683369,0.010711482151539367,8.92
-0.031228518413220215,0.14914427952036277,9.752019630096775,-0.0051664349949200085,0.007762904190083698,0.006344384557679312,8.93
-0.01059080653615561,-0.029083357790716215,9.767380898987994,0.0002424232925763372,-0.003386182324605143,-0.002628750520058964,8.94
-0.20465315648472507,0.022511187933954385,9.748586933629046,0.014438845158092236,-0.0009666553466125524,-0.005303652330176215,8.950000000000001
0.0031205516652946766,0.005374112379131311,9.623161446954738,0.005581182463619972,0.012753215387053159,0.0007520838021731881,8.96
-0.1422568945846302,-0.03517858625277028,9.812632948006312,-0.014082264236631186,0.015135005079537776,-0.0012030286873046991,8.97
-0.08892741044905456,0.037738814530067555,9.78877785800062,0.006915212598665019,0.006858281725052709,-0.006519268395627163,8.98
0.14209034852333685,-0.20512223271258986,9.858693085793576,0.007277794919926471,0.005684195153555528,0.010690264764023698,8.99
0.04074486442925007,0.1742973854964061,9.717353057035893,-0.006747838744304283,-0.0026321580497446423,0.012398365529956963,9.0
-0.004406655423577987,0.03004745494678665,9.894071200870352,0.018575673148927656,-0.0038051252901127194,-0.015058550978514024,9.01
-0.06731846986378304,0.0056728676699199275,9.643178684215968,0.005614625676897937,-0.0081757040680605,0.021114861636948038,9.02
-0.009918454011482803,-0.11907076080005913,9.890323211423597,0.00163401092792839,0.005457145183562519,-0.0017728096804691582,9.03
0.18743843853845593,-0.10790513843314449,9.787078917482303,-0.0035077044014391067,0.007319545324661027,0.008689485174634932,9.040000000000001
-0.007742488836675141,0.024776791136970906,9.884119121649707,-0.017191108410141712,0.0038979043086440745,-0.002175784517474627,9.05
-0.024045768438900977,0.12354069290699894,9.816014069733205,-0.008947443999109383,-0.0015814578769236002,-0.022596259019083118,9.06
0.03315963047692061,0.029168756928399243,9.972455091123264,-0.004683596764844933,-0.01917555209305312,0.01042058099484065,9.07
-0.021628605588905475,-0.03246648905760942,9.719008605022296,-0.006861543703035842,0.006032808898784511,-0.002390404060011291,9.08
0.02606778510094874,-0.019331067576059235,9.709578339554133,-0.007229508592458549,-0.001415938463981605,-0.010028116907157603,9.09
-0.036577505218125125,-0.094521714643796,9.771018557619986,-0.016325145298296772,0.0031679250093297902,0.016299006319448826,9.1
-0.04160980201301921,-0.03438054577489512,9.931384535449638,-0.0013959184833227762,0.0008581379044593956,-0.009215784423740428,9.11
0.05859470708448447,0.10530669226805366,9.943431235406639,0.004165670152092613,-0.007347566163184486,-0.005033634130048547,9.120000000000001
0.08661353975777274,0.031112087620785683,9.840459332104206,-0.0036700671790943183,-0.0020427106445508243,0.013364505465503917,9.13
0.024141578996200227,-0.05204574460318676,9.930926040078948,0.004402676686913751,-0.009132246066080344,0.01270410405610927,9.14
-0.12957747336041253,-0.09517799427798924,10.011060728731458,0.0029244586034331893,0.002598987024223905,7.698770911018355e-05,9.15
0.0025902629580285457,-0.11488120062236484,9.650033266497607,-0.0029740273648502296,0.012689221126934679,0.005759383025661629,9.16
