ax,ay,az,gx,gy,gz,timestamp
0.02936235482576179,0.22654863413613888,9.771281228827911,-0.011268545877423777,-0.017271504600353316,0.0008282123023839634,0.0
-0.001259672818846167,-0.21531062317745314,9.678557529716127,0.013119039110227864,0.003993193126752418,0.0027325703489052946,0.01
-0.08741245060254213,-0.047624623793921766,9.813478642134037,-0.007702608326895724,-0.0031044639935063007,0.0011819833518175338,0.02
0.08139098944898492,0.026867805265138624,9.831942703201356,-0.003431132302249506,-0.00808233986802388,-0.008751157183661385,0.03
0.11105831435820679,0.130232185619082,9.836288934777595,0.004228707955522735,0.006659710027428157,-0.008035744639791464,0.04
-0.10781503708603468,0.015476994784346857,9.735668336252608,0.0034166317986968828,-0.004352516401067992,0.0026137892377058954,0.05
0.05853270273451913,-0.2114030422524079,9.651465536932989,0.025744046474990828,-0.0012807783117632268,0.003065584747303983,0.06
0.07295194061906997,0.08280613058184833,9.767899527886458,0.00524112587397748,-0.014475306424346274,0.0008271218786854112,0.07
-0.10530410025930322,-0.06444248521286276,9.745553120827244,-0.0034341600180902852,0.0030299531775134477,0.010817934490047644,0.08
-0.06465913291399802,0.170831475046723,9.854467003646594,-0.00625133651570574,0.010574632324244491,0.017813332038880293,0.09
0.058238512958920234,-0.06498260979791108,9.839853265170659,-0.029922282465856376,-0.012084396943203422,0.003423931012660964,0.1
-0.1485742942429057,-0.0012400818058427954,9.79611413244067,0.0011943788524785288,-0.008493557210477011,0.015837582127509246,0.11
0.005561400545024678,0.020521949755786504,9.743809954599687,0.0009558863983409419,-0.008026296370817712,-0.0008252033953505553,0.12
-0.029972408262721746,0.023734754646788883,9.818170073632931,-0.010531737947526532,0.002222300800760647,0.015611100924228766,0.13
-0.05733928390298407,0.04163413312318676,9.864518781859879,0.012258730143787514,0.006716287313709602,-0.012205970299122435,0.14
-0.07759808246585231,0.08363231600621178,9.932889547304967,-0.0007183419863180851,-0.0059263743906289345,0.011536629170080059,0.15
-0.1037241790065213,-0.0050864613672755256,9.89133541442727,-0.02614833272450405,1.2647944141672366e-05,-0.007187283585892673,0.16
-0.04677625376162797,-0.03071125591933124,9.921826360687792,-0.013496614920548931,0.010632587187087294,0.006786980032074551,0.17
-0.018350823803196286,-0.12160224009483533,9.696624150022082,-0.005623116797991762,0.0011012837573410091,0.0005318832263496928,0.18
0.09673932928895938,0.06945988338296509,9.78941901835008,-0.01732482101461073,-0.0063897027222217,-0.001628794920035524,0.19
-0.06662197367798244,0.0372201843318471,9.814343542961891,0.0016720940039644137,0.011172452305773902,-0.0015163189621111115,0.2
0.09547061293768827,0.0913523242868019,9.76640408081196,-0.013847494920315635,0.010934390581287192,0.011404894454344085,0.21
0.1692990459344139,0.19395534217771618,9.911378140567727,0.02082808577867304,-0.0060981883484757535,0.009855397698364205,0.22
0.05348161852605883,-0.08178728584912262,9.748424592096432,0.010482574534719749,0.004650161476883119,0.008438491186436256,0.23
-0.05015594352796622,-0.1298269570201753,9.945373509774168,0.0023813028577799006,-0.01168616792690016,0.009751873237438084,0.24
0.13918854056333949,-0.082288967438177,9.77709555810867,0.013819041517721177,0.013502862803240395,-0.00350703860964537,0.25
-0.07825878045830845,-0.08859151558265516,9.797138335660817,0.019183448824834016,-0.0018824367425703628,-0.010496552343427466,0.26
-0.0681082445095561,-0.06238415620226232,9.76579540972849,0.016794148122376486,0.00019039204854396833,0.0009386411363937018,0.27
-0.04089507054918791,-0.06028803283867749,9.879401514884977,0.018885034069736673,-0.006520672101195341,0.0051446309514323815,0.28
0.19361024585078157,0.03436234835368981,9.914186002506273,0.0009478325280327559,-0.002432618876583448,-0.008954995107968496,0.29
0.1357325064849942,-0.1415748223614999,9.847545359792491,0.004313301980990145,0.001974838211295712,0.004178653600660071,0.3
0.04431100838438944,0.07994686677151042,9.894208569917001,-0.008276232238350636,-0.014161782179614413,-0.002391821176492821,0.31
0.2791992477098408,0.15307593799460678,9.712255235386118,0.004148269033840594,-0.010029136949146563,0.011082519355086345,0.32
-0.0034447960696934524,0.015056525147019545,9.718123606737908,-0.0059714800931666735,-0.005991069252359292,0.00886251279220487,0.33
0.030235912932687195,0.139647138912725,9.601434393498165,-0.01628420782704626,-0.0031388737248412065,-0.005194358513868882,0.34
0.1262013485861687,0.004569600654991557,9.836620126706073,0.01292702402782961,-0.006319155369083105,-0.00761974305902135,0.35000000000000003
-0.08801846111490033,-0.17897471224520736,9.847071966795216,-0.011579264905392645,-0.003658055279612104,-0.008913752083517648,0.36
-0.020407247768156882,0.021429179232607093,9.874212985674436,0.016404780539101615,0.00706599472497067,-0.02487973305029216,0.37
0.009970696437190903,-0.017257456929627834,9.87931242215626,0.001187996115859994,-0.009687788316465013,-0.008446124028306612,0.38
-0.033581846414355604,-0.07141854456336443,9.723894139283896,-0.02376499465771115,-0.0020777944788504215,0.01284983272208091,0.39
0.012537881218143643,0.008797495798068334,9.869806105034097,-0.010003482986663315,-0.0033175883041603395,-0.007718212691346342,0.4
0.1169016783552306,0.07496784205328055,9.798173455232387,0.01466955181296577,0.0015936513010532012,-0.01680075310330828,0.41000000000000003
0.053470582662759905,0.07067007218662724,9.840651938782598,-0.0018722350548582504,-0.007417240493648834,-0.0071404483487193925,0.42
-0.1824108995985576,-0.059506961938717476,9.769470638396385,-0.007518339816494116,0.00919249060674248,0.007452120948342998,0.43
0.025840662762885908,-0.028775825004739713,9.913201200461259,-0.01249845514851633,-0.007499858405714526,-0.0025540681477084805,0.44
-0.012250000558701943,0.08053155114259558,9.917101505592752,0.005664243525213076,-0.025872096858245288,0.0014895601032226921,0.45
0.0464488156630083,-0.06743507933481772,9.84594507587329,-0.0002035271238760496,0.005045576659154783,-0.004314294692993609,0.46
-0.06717245243325828,0.05921787255457633,9.664275564015977,-0.012457475252111515,-0.004494049087617025,-0.004713473556312762,0.47000000000000003
-0.028469084065531287,-0.002337333550277209,9.547168901071798,-0.017823862667165555,0.009545931660514543,0.008259770620479138,0.48
0.0016878251761150943,-0.028094561299216305,9.93783355822114,-0.0069158742845742294,0.007640094138862973,-0.0018727706706579345,0.49
0.12556278057516146,-0.06038864343354458,9.653812135813386,-0.013806426089961165,0.01708548308374437,-0.009794578650937028,0.5
-0.03439957219939619,0.030706390040952797,9.885489353921653,0.009686836256678997,-0.0031534186172460553,0.0005432286963696688,0.51
0.10386709753701051,0.02970802579633149,9.833030865838605,0.0036340907546038572,-0.003142284524267624,-0.006182102204739663,0.52
-0.11986634939242924,-0.07128924939757808,9.815267345462379,-0.008618981119856333,-0.012959997184018818,0.00309151085427184,0.53
-0.031382203548026635,0.014456975108514507,9.73485674339634,-0.01924255910125344,0.011477631616632782,0.006816319797754987,0.54
0.017681322454352496,0.021981411269527764,9.818037295252795,0.00586657597609091,-0.003957252230361093,-0.005446903665200988,0.55
-0.028653198975083134,0.14122384672290686,9.92398324814105,0.003158719272853893,0.009995075419958808,-0.009640856873657365,0.56
0.05949246276923858,-0.05727296928769489,9.85653618037261,-0.003108463979905874,-0.011918270741399369,-0.006991401006936578,0.5700000000000001
0.07252408143374578,0.03416370548751956,9.76164990011118,-0.0057362890409058745,-0.0006558354345836021,0.0007629154805165239,0.58
-0.1144340302705297,0.02729729049230503,9.741473091184718,-0.005275216693344862,-0.0024013631782810034,0.0026395167714365815,0.59
0.09436177821214191,-0.04378769945452377,10.014068239077021,-0.007679332133805191,0.0021558324548949528,-0.0031484818466389246,0.6
0.10970040874839836,-0.03903390443675467,9.900221746729223,0.008815679874133123,0.0030092813029553066,0.0069827296806633035,0.61
0.11769544504437437,0.08186862146736469,9.757089413757804,-0.010566961319336989,-0.0067786286789844555,0.005626678206317424,0.62
-0.056175478696415274,-0.009630010679614998,9.843957398646634,-0.01977858067419696,0.0087300550242595,0.006395960684449677,0.63
0.04349016244421812,0.014237427011686926,9.516250840464759,0.012912424412893387,-0.004079325801573633,-0.0057200505620578854,0.64
-0.03537068641426821,-0.12185732200123015,9.792608551085593,-0.003506101343181671,-0.008564868142620547,-0.006650967953797985,0.65
-0.0409901400848436,-0.12678875920152755,9.788340859514255,-0.003565065565552797,0.00048219747010624605,-0.0024589931506888317,0.66
0.07131249430533441,-0.04846362526993126,9.895057745890304,-0.009299844302806379,0.00560673919680784,-0.013362035702553392,0.67
-0.030391898994951407,-0.16817884402819225,9.905307582365873,0.002841797382738794,0.009363904019146668,0.004684541692727321,0.68
0.17030947543844946,0.16198662720065424,9.788039662252883,0.01514228971170328,0.003441796698911532,0.008327171961281946,0.6900000000000001
0.04252439086170048,-0.05822213532799893,9.608012538305331,0.01240863099863131,-0.0021296789634800794,-0.0009145945033637061,0.7000000000000001
-0.013359177377908336,-0.03963427315150429,9.805447682485015,0.008597746110429008,-0.02361470098616616,0.0011295492969923399,0.71
-0.11787863552228268,-0.02206747059944968,9.769369103602923,0.010038325147091447,0.013771471120604116,-0.004574037072180643,0.72
-0.05918307989347006,0.05737649690315602,9.988667434524578,-0.005235958395598611,0.005256016226738324,0.012118582411619273,0.73
0.11276227661571224,0.09153003236400815,9.682001668492992,0.002382452498485933,-0.007915434140506005,0.012282899687795959,0.74
-0.18665747366837412,-0.08853469817312254,9.807200659580266,-0.018150488440303772,0.0020581963691847687,0.0014442291110620723,0.75
-0.04606715906927597,-0.09061716038761326,9.944975665636532,0.015000891668245718,-0.008794884736809875,-0.0018950251090876571,0.76
-0.06850685293561587,-0.11098534977004751,9.797047949688944,0.011678088252854338,0.0005389695392844404,0.005290692242769886,0.77
-0.11713706659251522,0.11498509041538663,9.638301905983512,-0.006473032392730507,-0.00713911725940485,-0.006818814549559458,0.78
-0.08674488743648566,0.09589646988077073,10.039051315943249,0.020505595030440388,0.010752710073504465,-0.0034151143332107597,0.79
-0.18276842744152358,0.004062964112093555,9.786507699544583,0.030694674621172657,-0.0028606401045966163,-0.0008952463793059432,0.8
-0.04721888096396878,0.07872947860600751,10.00216502457346,0.018858279773712235,-0.003785013982389217,0.009878128583155107,0.81
-0.040422737263967994,0.17664233571491328,9.676340403833406,0.009837740939923624,0.0028553928104988187,-0.0016768551462663355,0.8200000000000001
0.028714579192089834,0.1308206839038494,9.798611129194674,-0.0036453161210387125,0.004970408191800347,0.0027670816591641003,0.8300000000000001
0.07572459038565943,-0.1859765167046607,9.990844799456502,0.03021494685434286,-0.015024412416699702,-0.020784668660532763,0.84
0.1276975368405201,-0.09334672474686959,9.951059619580175,0.010129106320394604,-0.015137674848769734,-0.010869814814895882,0.85
0.11429072259265338,-0.23625946135587084,9.955389123982465,0.013655322626862136,0.008018404466099312,0.0017788332265610786,0.86
0.047125645239597384,-0.047252953965601543,9.704547358778818,-0.0016625774101859513,0.013744384444417525,0.00837076795922973,0.87
-0.0764865243092184,-0.19925849124028452,9.833724885403688,0.022530384163835845,0.015797078511001452,0.0013792805146200502,0.88
0.012565916347635618,0.015591492696901056,9.955797383750024,0.018780779518753822,0.003252603520614691,-0.0009649097710358287,0.89
-0.18244069345059244,0.03580946844386626,9.753730516563545,-0.012265157766431922,-0.02500048318075108,0.010933313955243834,0.9
-0.33268661346725176,0.09634066459475708,9.967583988652066,-0.0010944127231775952,0.025356553100137017,-0.0022193786159944986,0.91
-0.02224205961860532,0.022598979559331767,9.746929634163083,0.008320711264222404,0.002245491154101624,0.0032324876132012563,0.92
-0.1023603814688527,-0.08101680063994258,9.916118349824325,0.0076063671709304115,0.01246253973031204,-0.015832669091819632,0.93
0.02557254893186813,0.02356244121374986,9.832400704777491,0.015308481867013975,0.002708823070496542,0.012463359770680476,0.9400000000000001
0.10833205449673805,0.2492642207389195,9.840707471327766,0.0018514930205988359,0.00012952921893855514,0.010452498003850189,0.9500000000000001
0.15022788617593222,-0.11194867269488865,9.834686006757599,0.005394086547176652,-0.0015208373915675986,0.0005560835057107535,0.96
-0.09868686303741138,0.10519018529573676,9.662405844674186,0.012235052068066871,-0.005864446143673402,-0.01838740764210345,0.97
-0.11669977488323498,-0.026739641550072298,9.888951160960968,-0.0007013649525938345,-0.004922217169014589,0.0066961085895037,0.98
0.025902259474574054,0.1363486656564031,9.753837145470087,-0.006300483831593417,-0.005081710496523454,0.018946101635828633,0.99
-0.13710063602401254,-0.023968234354046696,10.081417552088134,0.002912745407088093,0.003887627492004571,0.001109686528713328,1.0
0.0486171264508633,0.15476048020136912,9.703160310106474,-0.008756959894068049,0.015285782189997536,-0.0057746009232275365,1.01
-0.1443533305347006,-0.022487616039681177,9.739441337300867,-0.022399611596931202,-0.011169350618073106,0.0010238153142075666,1.02
0.0038659584668786096,0.043561875882888346,9.862198226698833,-0.014481757923796652,0.0070816318584001545,-0.0027655936572749808,1.03
-0.1852323053401833,-0.047472040366256525,9.738366382595865,-0.00022891711318783622,-0.018830340172998786,-0.0059445475497898375,1.04
-0.22709182098636524,-0.0033247770074811196,9.705914692074249,-0.01755730982995424,-0.020542114709120537,0.0021306670757851474,1.05
-0.12377262508918568,-0.0033420356508120364,9.819344331540446,0.01668972562764905,0.006806646948817832,-0.009614815004202783,1.06
0.14157019137966256,-0.008015205169514036,9.67940713335784,-0.0019431934149709649,0.005977008049037923,-0.016245826514402564,1.07
-0.02408256065320241,-0.0883885259290888,9.859727452687332,-0.005740145311112394,0.009486171212838793,-0.019984374884979398,1.08
-0.07435490271362126,-0.05605853444933051,9.687924910894969,0.004311347857997658,0.011543392103815867,-0.0010491991100103233,1.09
-0.07474875888146687,-0.022358016390918778,9.885865767803088,0.012426366945306067,-0.006182368531607014,0.016160320531261978,1.1
0.08401446917680103,-0.14822621765097532,9.599556400154826,0.0040643915141472305,0.0006412807685849457,0.015123630156486996,1.11
-0.023813037236538673,-0.04824041498435891,9.759313215129417,-0.0030650080937438644,-0.01789843074750401,-0.003394010320897335,1.12
0.08004027661958084,-0.08270126038787545,9.767189929390009,-0.007481691018285278,0.004646783924817139,0.004506395437505227,1.1300000000000001
-0.05068630602063715,0.08724213376771112,9.646247604570773,0.01767564483971406,-0.006466155112887671,0.005152908666058525,1.1400000000000001
0.08140495548774394,0.09396607562903318,9.757735860026019,0.004092433444456927,0.008495439852284615,0.002412102565285287,1.1500000000000001
-0.058626387814630525,0.02720460892742988,9.90934852109396,-0.0038484326362126114,-0.009640319428022535,-0.02062791225115476,1.16
0.17674741536610686,0.036249782412989526,9.858049345085057,0.0040825645409808395,-0.014429052794540254,-0.009031157645973186,1.17
-0.015230275925859097,0.061828013833607726,9.866264870615101,-0.004130289718805203,0.0029521524846931424,-0.006247051749052318,1.18
0.10110525575844459,0.16565826655411836,9.89655126973473,-0.0014288606130778215,-0.01179627935110181,0.009800208704578341,1.19
0.00357638542004623,-0.07058090976130704,9.883818439810197,-0.011786929703025414,-0.003310221606775588,0.006726194643039244,1.2
0.06101121541193362,-0.024382331601280952,9.847367270930254,-0.006549758229723954,-0.00915153193843879,0.006791561550523571,1.21
0.025215190482419145,0.22524892299305246,9.852865083560946,-0.0006823490769507864,0.003506958356182698,-0.0017246283658801209,1.22
0.07831454496689566,-0.03230853008343936,9.76576212199522,0.0015369023311840927,-0.007415799458011996,-0.015097833348837108,1.23
0.11159284488187987,-0.12755995456984084,9.652539209369717,-0.007651448113198143,0.0005330215158496739,-0.010872396932812453,1.24
0.025835257574477938,-0.02494894668706498,10.02107860288196,0.001550105500618833,-0.01278102464328187,-0.009794364482779287,1.25
0.14395204788307114,0.05787315125715786,9.952891268958382,0.017456810876239827,-0.018503353729702215,-0.00117687907917497,1.26
0.03215127562189625,-0.15432371342740392,9.825830308970449,0.00399667260114147,0.002659514104987292,-0.006141635112027688,1.27
-0.039004661855063516,0.1112318142650613,9.901700721606709,0.005897561086232449,-0.019349214344943872,-0.010625196367115458,1.28
0.03037959924192515,-0.12594977738322607,9.796304742635227,-0.004282401046728662,0.006259808175411451,-0.007083528513000485,1.29
0.031151633562426412,-0.05049463397901374,9.840607372263044,0.007495630720328846,-0.007863098522984327,0.005795002700326378,1.3
0.14845924509379613,0.09718448213762243,9.691150154002802,-0.009731320375306872,0.009889073989047448,0.008001910738717305,1.31
0.08690797027842305,0.025729929788010992,9.843447006037556,0.0033845869423127983,0.010457799530574475,-0.001337601397943678,1.32
-0.06586962877188228,-0.04274583276013767,9.789525072008216,0.0009864104410422213,0.018550948718450963,-0.008585622109693651,1.33
0.09112617996421063,0.020324796174773424,9.70586283924656,0.004924538964518368,0.015367930638608128,0.009751969557752694,1.34
0.06091336893710693,0.05869146346413417,9.608180099219672,-0.004826960744423937,0.000509749528114395,0.007102337499403248,1.35
-0.05205245831607478,0.04534808600078494,9.900152732477673,0.003945321650324782,0.0009933188723169788,-0.0038892102141201037,1.36
-0.1657760839519464,0.020012013660033832,9.831960207606304,0.003730210598834104,-0.0005470431578415622,0.01374487776570988,1.37
-0.1155143663342863,-0.042628141047223324,9.729690962760356,0.007092914691363904,-0.00664182882762397,0.002078973369743969,1.3800000000000001
0.11494562479573447,0.10012279560862776,9.740276391985136,0.014143235560208025,0.01599152380365754,0.011255307354092817,1.3900000000000001
0.12854400063576985,0.12283804668542482,10.116769893646646,0.0024629785151986674,0.012826567224094518,-0.02444579969967819,1.4000000000000001
0.12521470956164882,0.09453840711944528,9.703617770169924,0.0059112991019798266,0.0018974592572883356,0.014069333637920569,1.41
0.04179082617836647,0.10303007971057468,9.748853913818794,0.005829956936553131,0.009897468249539894,-0.004011926929640763,1.42
-0.04818753507884636,-0.13422955041436918,9.67475407497233,0.01305705692711514,0.0022925425729285317,-0.0013550848914263916,1.43
-0.014043843439478166,-0.010966611561396562,9.968623458486292,0.008048194099341446,0.019734338899192322,-0.010495975028507234,1.44
0.1062347591150486,-0.13350744675513537,9.834446841315838,-0.012387455814922321,0.0010426162114815516,0.013803851621445089,1.45
0.0031610604661356043,-0.1741190643905488,9.893211342708334,0.015124863282756647,0.009811688729945575,0.015525216246835932,1.46
-0.05695592654859628,0.044790458719144395,9.823010381037456,-0.01261494013027331,-0.004054534008721144,-0.0010151996647657189,1.47
0.060371102787555045,-0.1256964040072141,9.970154888234449,-3.38261534702307e-05,-0.0028656762301875536,-0.008398264361469367,1.48
-0.01277899699537982,-0.0061116937572801636,9.890630888247092,-0.001202336095663446,0.0113210019690098,-0.0009581315498310085,1.49
0.16003184055563216,0.06838350986547564,9.838379229337367,-0.009762280717073142,0.01520616574662869,-0.002245006251370528,1.5
-0.024624397767060664,0.09560618279704167,9.892484280843284,-0.01953121958674369,-0.010552979404092477,-0.0030698729904595733,1.51
0.12243477809210218,0.12311820729157835,9.81451520931903,-0.014761962755583995,0.002210431831642158,0.012755101619435043,1.52
-0.11527115318024994,-0.02826538119363154,9.96559699698111,0.0005658903526661133,-0.011659933962750566,-0.003181472723020859,1.53
0.008626760496339852,0.19181832876864546,9.71988154221706,-0.006712457506297704,-0.0019388562765074253,0.004427367170280904,1.54
0.03641643158841478,0.22436127761323932,10.009289662319217,0.0018702052911385462,0.01115394578843146,0.00811811232703639,1.55
-0.18360177493348817,0.04317026084724024,9.950266487937311,0.010623931914791473,0.006519048559719876,-0.010675298836287575,1.56
0.09913974081866403,0.053742749051930695,9.771209424026997,-0.003933623157189938,-0.00615699243979919,-0.00919505647118332,1.57
0.07888186889484203,0.18916621066900685,9.809780060730061,-0.01008363153832308,0.009926291607763553,0.009715244805418497,1.58
-0.1000094966957511,0.10828223730623357,9.966831296052687,-0.009811693636935815,-0.010612494891928743,-0.022199442816596967,1.59
0.07581214640659463,-0.04965289566220699,9.738551556875949,-0.005021286061308009,0.009882635603650375,-0.004103024814102092,1.6
-0.0536519304282087,0.073689112675227,9.606885736832556,-0.007990541450919486,0.013039030695738052,0.012780833751859835,1.61
-0.1665748597989158,-0.1721806262369456,9.986125432327674,0.009766988328900801,0.005952796066956538,-0.004140326103664752,1.62
-0.00012157605462094887,-0.19488767472667357,9.742955382199472,0.0004213937002241513,0.003435907742230862,-0.009882856600212757,1.6300000000000001
-0.046439666697704135,-0.012950555770929604,9.800622173348971,-0.009083836149667486,0.011461608458201631,-0.007357718674694651,1.6400000000000001
-0.09633630814717534,-0.08546050650128541,9.825051927729207,0.015361973614445688,-0.00433257180797867,-0.004434933147278373,1.6500000000000001
0.14101902822491078,-0.025301631609452153,9.774035270224875,-0.001596298231839623,0.011176729974596707,-0.001945492292974651,1.6600000000000001
-0.03226698268073113,0.013738623833695382,9.950048953878738,-0.01795967607352416,-0.006510252859586439,-0.002423686459234164,1.67
0.17493524196898735,-0.23464266286813276,9.8228915919358,0.00623502888041177,-0.003892611305057009,-0.009868006524277282,1.68
-0.2327481580479348,-0.10959115641108089,9.766057592089133,0.026782352694872558,-0.008135122806448224,0.006205169538406108,1.69
-0.09956263321786533,-0.03265999612667289,9.905594601315155,0.005394148881323098,0.015764448907155712,-0.006169645114247806,1.7
0.027299029082615934,0.1275915752502178,9.71031157564441,-0.01868037611095295,0.007580114361280498,0.014519037594364887,1.71
-0.15208350027534187,-0.061877665644555116,9.861564871431783,-0.017316249946289233,-0.004104931940885363,-0.009248634043128786,1.72
0.009507160086832684,0.09232290365413005,9.744722877018235,0.020290142132320787,0.0015215207856508336,0.0072198315622993515,1.73
-0.05491973326315891,-0.09138067050929545,9.746590055277988,-0.0019175288686040007,0.0069864798796084775,0.017783286653183347,1.74
-0.05111852012838575,0.14287679260628103,9.825719267534096,0.003209342117626477,-0.0035293710178290316,0.007892531937051554,1.75
0.16202604915519156,-0.1439123570335758,9.642808106392515,0.002648954301851967,-0.012612938497484849,-0.020172341308724015,1.76
-0.12858652222970537,0.07835180594991918,9.791715995819578,0.0004959429235895977,-0.00022802364958830653,0.013396208941232715,1.77
-0.08147424188412883,-0.09466488596397152,9.661520097561686,0.01650709748033044,-0.011508167647686546,-0.01249766839416644,1.78
-0.10927081927730738,0.15385896903940036,9.754106705243457,-0.002546731159674711,0.0015237587618854558,-0.012845139887395156,1.79
0.07860569768439361,0.05240225488537801,9.79920590023198,-0.006152924136681232,0.002342523160468682,0.006200088065117036,1.8
-0.10948914631868828,-0.03777357174697438,9.661115765654873,-0.011108888404039547,-0.0023490410318637127,-0.01769344852885914,1.81
0.019074514802952885,0.07211508529272947,9.655515060613613,-0.013148942212729704,0.0029197492651644543,-6.708840256082001e-05,1.82
0.1235578788555956,-0.01636840500119141,9.73976429999758,-0.0057944481608345165,-0.006743583837241298,0.014243080171713343,1.83
-0.1354581822828788,-0.058028398484508775,9.945685344578358,-0.0007729801722039073,0.01502780227923588,-0.015962608099915256,1.84
0.17868017955861248,0.12077242455342539,9.771598927340348,-0.00431332686688801,-0.0038806853716657976,-0.005153907131440253,1.85
-0.028839145275242846,-0.006379671730719939,9.813495611294472,0.002834586189129828,0.002038009492152253,0.005624132491098187,1.86
-0.01310846411439958,-0.028907735748613512,9.709253818351206,0.00570775148905094,-0.011254176681433508,0.0029761760424016053,1.87
-0.013731396941909597,0.10951242709562137,9.680967558933915,-0.011930192820941382,0.0018832913092627214,0.005740032389910724,1.8800000000000001
-0.09176372800450228,0.08959668398069803,9.902550449759055,-0.0008013716284663597,-0.01077989557180175,-0.0036967577472153896,1.8900000000000001
0.13195147096161153,0.1633103303660066,9.74459953973138,0.009803485541230592,-0.0003315302727045542,0.008926418492284822,1.9000000000000001
-0.12560152117912995,2.710196738874392e-05,9.86371381569945,0.0133545135986583,0.0023582754240633066,-0.0032343081898604056,1.9100000000000001
-0.10015523867806109,-0.0534617543541193,9.71245474517526,-0.0022827757788085423,-0.0033097230471532306,-0.01796107264782888,1.92
0.08731415429601723,0.04709777021241989,9.733056885999451,0.0006900776206610985,0.018261338882795325,-0.004241653546239493,1.93
0.029178511813818926,-0.12939300604185885,9.806387823379913,0.0034272367460636633,0.01006702015581442,-0.0157766991605489,1.94
-0.04675106491999774,0.10158700384774709,9.806010889380723,0.005028167718181409,0.00027173737822546384,-0.005176096336321147,1.95
-0.036363552785028085,0.2190873867456804,9.87622701261328,0.027059140184809677,0.0037355645290784146,0.002720369577137249,1.96
0.073060239936059,-0.09007460284568686,9.67867502066823,0.0003289454332766635,0.0036039911081201426,0.013907292960414649,1.97
-0.09335076190428165,-0.1457356843389799,9.808048574262159,-0.0006099556194123143,-0.0025666373336579434,-0.004057288095438348,1.98
-0.007660694514963643,0.15176704138856095,9.769004820675882,-0.005564936174575065,0.00481935936892978,0.006478917435293602,1.99
-0.006721190618424325,0.12413483283782666,9.93472445624015,-0.008762715237449462,-0.00985521273868182,-0.009327290300887867,2.0
-0.06817661070592397,0.008876553497679216,9.869205485128184,0.018607702150251034,-0.004056402855309586,0.011158130409933187,2.0100000000000002
-0.0973274129557799,0.08409879461059631,9.714550161139561,-4.9763553525283454e-05,0.00619766928580864,0.012649363323813553,2.02
0.030479022055404755,-0.12337276909543882,9.647115144788165,0.0017239938319017665,0.0037813605398433676,-0.005898541414808017,2.0300000000000002
-0.08728519213856473,0.05732380453434338,9.719812906434617,0.010336711539451815,0.0033365721036796338,-0.013518868805270366,2.04
-0.011672109837251456,-0.01024428608646541,9.693170724546432,0.0025125018477189292,-0.005283755319176593,-0.0019722975004698795,2.05
0.0689469200686869,-0.008436899722885057,9.617756499398059,-0.007176924518100832,0.006234516645817462,0.023464417552385108,2.06
0.11182363766514317,-0.18562207172593917,9.80732654780865,-0.00653766214805596,0.0011691928506081916,-0.010817028896602911,2.07
-0.11170627398355448,-0.005009786188964588,9.555402492085785,-0.009816947891086805,-0.00660985595597478,-0.013727423314955465,2.08
0.030662635239748905,-0.07129661111204127,9.809301826501775,0.014896825804751648,0.007882010956965873,0.0012313655160526812,2.09
0.0986848327408052,-0.031208127444362622,9.796315614482946,-0.001490257107675941,-0.014045611233850282,0.00043983471458882795,2.1
0.12531504826947548,-0.03535544450620147,9.788794967721811,0.0018363374695145923,0.0019060609786889205,-0.005154385386514875,2.11
0.011432901012507109,0.013256328434447821,9.816125226057627,0.019236049281004065,-0.005295780012283377,-0.013017918623007439,2.12
0.00692791026733189,0.05978999362046759,9.93779345915049,0.004285962186104866,-0.009343244848811353,0.00677401955111731,2.13
0.10165178907832564,0.09900844856332548,9.850715644308538,0.009046606562333954,-0.005199292215361362,0.003860833914973691,2.14
0.10929582285416761,0.1713976626339191,9.808050146143373,0.0009571666429348593,-0.004624542139286889,0.007575257727527257,2.15
0.09679037621356351,0.0699708848891273,9.853025037312293,0.010661549380091234,-0.005472718645988362,0.003535463245689603,2.16
-0.06952947449680082,0.0685437216998633,9.905791660038023,-0.0030249642037119386,0.004556907270477101,0.01564329850220679,2.17
0.031924956578956165,-0.07024092425802651,9.66540082762856,-0.005670226077629148,-0.004421842679709781,0.011380599037804102,2.18
0.04994072183483149,0.08389613914775396,9.917568859637882,-0.006116625782270927,-0.008650614871099641,-0.0006987574616815721,2.19
-0.05510499860002758,0.05402782066733095,9.79477936577884,0.02763590334688382,0.0025532759245358704,0.003706297469828033,2.2
-0.2044563809023594,0.18034619283446388,9.833887801598319,-0.012429134433634042,-0.011057324268076993,-0.00424759004108255,2.21
0.23744504625544438,-0.06442733057538351,9.75517428140429,-0.005228624901271831,0.0008280187041162436,-0.0005209591108834047,2.22
0.1578384020836678,-0.04571947237571343,9.994925915880051,-0.025299790157081503,0.0013340880788298745,-0.008120089827548166,2.23
-0.11330862039768122,0.21997868649836688,9.74596728101449,0.0001798003536179632,-0.004016473803703685,0.00930656705958246,2.24
-0.043140880629996256,-0.02388695006431282,9.659948042982927,-0.002187951456628006,-0.005633138940411572,0.016250358620491158,2.25
-0.043100893930920835,-0.041319182610423395,9.696857581605094,-0.013379638197100824,-0.0001482944149326973,0.01574686037007965,2.2600000000000002
0.1175983933954721,-0.15024393005639103,9.783156895745485,0.004455476871038737,-0.0020170337495142494,-0.003503323753067347,2.27
0.05861129884978317,0.043840599614439965,9.753325321948395,-0.01662003569648118,0.010474139764439934,-0.01759669997538258,2.2800000000000002
-0.07873515632634541,-0.12909508721336269,9.860358128816829,-0.0017783190793398025,-0.004988563069095337,-0.010409353813617914,2.29
0.04870535833388787,-0.016799658960487778,9.850942603568882,-0.008911620616148131,0.0001406750934956332,0.009557109065735057,2.3000000000000003
0.007832816150351916,0.113512165784734,9.823586719360389,0.009565601618847844,0.020209087787060195,0.0023917972275188507,2.31
-0.10717068032976174,-0.15506842722534453,9.799275028630884,0.01755476618906423,0.010482234945194594,0.005232162486766028,2.32
0.12626687405811596,-0.0032331244852580273,9.898909336186614,-0.009421563972567062,0.0009929188193700074,-0.006811246981527192,2.33
-0.030118890880229815,-0.03507369073980191,10.102349462722504,0.02472371368658079,-0.015621064264944329,0.00042244795704508213,2.34
-0.031341571226380524,-0.11644228601666098,9.973578380904147,-0.011435908602740212,-0.009821176074873915,0.011083898892717546,2.35
0.012278099295660734,-0.04981016306587881,9.861996690392374,-0.0027402964642352073,-0.01152321412193804,-0.009838823200598992,2.36
-0.11184757948168511,0.08784182250951778,9.797095996196608,-0.0015493657094562377,0.025268932156841294,0.003813039027027308,2.37
0.06022453157396632,0.09799737191027406,9.844283123337238,0.006281629561119907,0.013804650943352004,0.0003402291838414129,2.38
0.0671234717732515,-0.05253209975409624,9.912390884056295,0.002303869839300671,-0.00046760065443827715,0.003881604258579894,2.39
0.018910240308394034,-0.019514100540624413,9.781900327554986,-0.002626438784532873,0.011094423986178825,-0.009655546546282373,2.4
-0.030231901762658688,-0.11706725943431087,9.716926564823197,-0.001092743425850417,-0.0065679668866836915,-0.01576891002944638,2.41
-0.06437230183763369,-0.006658759203276864,9.92498345842184,0.006238118672365182,0.003090087602906971,0.0065744276461533946,2.42
0.09778993480005288,0.006877146798284585,9.907458715914991,-0.030375355617829038,0.0038361865359892145,0.0019895169022894096,2.43
-0.12032393529907014,-0.18276031067180323,9.783576894885512,-0.00011176103943593712,0.013059318485545587,-0.004020825046193258,2.44
-0.14370191758181614,0.029258060977374364,9.92172012748368,-0.009612460231769572,0.00866597006025193,-0.010938206713726114,2.45
0.024643650368597794,-0.17645792736150107,9.633874374409292,0.011792766972525527,-0.014284678024643779,-0.0004531083346219278,2.46
-0.028930036356087475,-0.0710878582546505,9.821416915204164,-0.006651230561663629,-0.009510396871379098,0.009692849935606275,2.47
-0.16538861494290538,-0.05161811476672184,9.768084994833469,-0.0022603827126438532,0.014501280895251272,0.011448057245321702,2.48
0.13957656119992767,0.1018138493019003,9.64882159590724,0.008399103230003521,-0.0032371085822841153,-0.01117759859052847,2.49
-0.034334165020420554,-0.09656529848298658,9.709876272236501,-0.008909257765784247,0.0025567056229483572,0.020640834441509225,2.5
-0.13365500695722496,-0.1570342239604165,9.769736402522886,-0.01700826519937076,-0.002370214132593693,0.011141217422551471,2.5100000000000002
-0.006840566206014856,0.14881272257687336,9.872096320393918,-0.0020073594505970764,-0.005824807413971269,4.1673962834325216e-06,2.52
-0.04062609140548116,-0.006302162515852365,9.542104538713057,0.0022154703545702067,-0.0013434844923724753,0.007157390729169747,2.5300000000000002
-0.0656683206428561,-0.0839071274846021,10.026900870675082,0.009195605913138708,0.00037133372846672743,-0.00240048384189855,2.54
-0.08797795799064995,0.07681644627474937,9.857354541600543,0.003756478299369545,0.007740135070248925,-0.01889747517770204,2.5500000000000003
0.010240575479134248,0.02986809318537896,9.742587172874067,0.006472634154171373,-0.005372350071686529,-0.0022847269941003207,2.56
-0.22926967894702446,-0.1342588805842645,9.810391135739398,0.010111440334424258,-0.0008553778561031418,-0.02059957783790657,2.57
-0.13073472385234744,-0.08837321557371702,9.776015933888957,0.007794575421670088,0.0012139656242338658,0.0006318628033727245,2.58
0.12417736374792276,-0.03432608190729349,9.696250279384662,-0.0001366045920330057,0.007808467042735603,0.017861493306692698,2.59
0.08093621527532063,-0.04290405348319727,9.66709451881069,-0.014028076448027156,-0.00156243380272041,0.003246094807536294,2.6
0.11468308898568824,-0.24255943592553303,9.780681355631735,-0.00016025683270730386,0.005310280086270317,0.0007377287189103687,2.61
0.017457836310379348,0.08928408194940501,9.822093509201718,0.009936528018139847,-0.02229626966721628,0.004718234577384176,2.62
0.04699258121459213,-0.023485494999010304,9.757015080616279,-0.010069210281993653,-0.001093498577253839,-0.004197204813985145,2.63
-0.05456341782400808,-0.03841086271623391,9.908015909617829,-0.02467096845290856,-0.0025939043342421216,0.006575581247864296,2.64
-0.11134949836820346,0.08535154257916898,9.702725760539641,0.012040840975550374,0.00011041919781453334,-0.0006105728750606368,2.65
0.043923757072234296,-0.02615379513928767,9.820136450515283,-0.006463964647322457,0.0053063305396542386,-0.011300104264235038,2.66
0.0057531113983928595,-0.22267525912794417,9.950420293922758,-0.010172416446587654,-0.008497773088308134,-0.008005750615299827,2.67
-0.10580953860948128,0.35249761136273444,10.021094534389404,0.012622976724648165,-0.01567574789582362,-0.008306657136323687,2.68
0.11683286077847979,0.025965598870268405,9.735290134673502,0.01009292888944511,0.000323004842300952,0.010265606403611403,2.69
0.14707655940999698,-0.07675729829848568,9.74561690671567,0.004296353374471333,0.0008509385507528402,0.008152112890092387,2.7
0.030320682942039913,0.01772643882112108,9.86784702548718,-0.004350605880261533,0.001747036862538684,0.0031491177525371627,2.71
0.04526281171795207,0.048679915586700824,9.838386225688785,0.004475228617484309,-0.011726462105814007,0.003786265631596104,2.72
-0.16118116930140675,-0.010405509484337723,9.713056548303925,-0.003527412295826979,0.016476501538983203,0.004043537895201681,2.73
0.14368893150763093,-0.056691688212008484,9.847462310871268,0.010892686200840622,-0.004046634078522324,0.002313197517030739,2.74
0.2634300352687827,0.06358743892114578,9.725967747453929,0.008695933767619122,0.01949304357610816,-0.0032017159021416335,2.75
0.1473567770386899,-0.05856973415670219,9.783204473727377,-0.010184830893360376,0.002879805865618138,-0.01559783832774633,2.7600000000000002
-0.15705749491692692,-0.13168237725523915,9.767137404886117,0.007084691196193824,-0.004971251345997376,0.0035003374172076795,2.77
-0.13421765025147517,-0.1554022058050078,9.701738583569934,0.0016225207088809421,-0.01034502285378967,-0.0032154768345301022,2.7800000000000002
-0.12742121936044626,-0.07843295058532601,9.790916958179244,-0.006233691461028301,0.001934193657194599,-0.011994136639106734,2.79
0.15301971316423868,-0.007487996413598171,9.692369216083113,-0.0037091634645834417,0.025791659981264023,0.010000855303887725,2.8000000000000003
0.10782029566328684,-0.1447750622203495,9.803752676102485,0.005459731668150656,0.010047819369841908,0.006174177980272667,2.81
0.05664613659579293,0.2388710857211753,9.91538063161983,-0.009127379803334031,0.0006091806296045766,0.009069602830957717,2.82
0.1533345568162754,0.016143602379924262,9.88872103573267,-0.003828621782245895,-0.007559526215606527,-0.007767456159875574,2.83
-0.0042951204346612275,0.05177069448662103,9.79989568277847,-0.008101047150733308,-0.004054386225731051,0.007139384961948165,2.84
-0.12960180414287845,0.04186244349134874,9.715561812025852,-0.007077815032070353,-0.0003294204557867737,0.005369680898955678,2.85
0.042305300440571986,0.10392041241941222,9.851420371757888,-0.0035710650029561366,-0.0106575950824935,-0.012073693184047782,2.86
-0.1367341996491711,-0.08503693149816016,9.868813355029918,-0.009491013260127605,-0.007269817077219284,0.002838231102580725,2.87
0.039782297489072034,0.12667857548884415,9.701128668955237,-0.013267385174126988,0.001525571895875667,-0.0002728215099611182,2.88
-0.04622730751949495,0.06027832300350558,9.743737366767563,-0.0081422279659492,-0.008463865492136622,-0.007159680227600748,2.89
0.06813996035831622,0.03997976678852283,9.889825478359022,-0.004670583426199134,-0.012867057620234415,-0.0016418635621889741,2.9
0.002644303355232358,0.056691950055206136,9.747315779112299,-0.010539280855461334,-0.008765954610797072,-0.003384813455377349,2.91
0.20205551833877278,-0.052228529004326466,9.713729281062987,0.0008501409749238134,-0.0037890278537133066,0.00400343634780837,2.92
-0.016629745424093016,0.1763974290914305,9.871973268897241,-0.00652685981942211,0.007167133517004312,-0.008731009509032174,2.93
0.1201770215493237,0.0983904587416847,9.709503327516567,0.0029018603959489837,-0.005472820492233878,0.0024586172257624913,2.94
-0.065295124883139,0.2013454833500543,9.661307909004936,0.018771382016484952,0.00304595332237475,0.02217363581230206,2.95
-0.17441531173692146,-0.08243812736449328,9.964257793696836,-0.005999137044047589,0.0017368949702292174,0.010854170169480943,2.96
0.20774677261057933,-0.10493788012179328,9.886676902114976,0.009281519857163328,-0.002851443972310098,0.006177404899696607,2.97
0.011180319825309419,0.06554683422269116,9.75203591537874,0.02322866916399353,-0.0002978964375991249,0.013390322107212463,2.98
-0.10807086217813039,0.11579079245327223,9.856081473320248,-0.001417147285283149,-0.009457006443087772,0.025386508250088192,2.99
-0.03417994409290921,0.10405646232231235,9.791451766500256,-0.0010396380225857235,-0.00794013994275731,-0.005676590129552942,3.0
-0.049423990948384094,-0.04620774186173116,9.984727228959756,0.0012442696269470296,0.004999169010567733,-0.023916893088730646,3.0100000000000002
-0.10769677926851587,0.003713845770990749,9.794113105102868,-0.0036450123195198025,0.0019214326515514869,0.0011236796513515003,3.02
0.0684853936382576,0.15718498274214524,9.811610568953917,0.013934361049505415,-0.003046894344123865,0.015012533636526042,3.0300000000000002
-0.14322182985448334,-0.04296735516744652,9.852768524854284,0.009003649558216316,0.007427962136951703,-0.006324898133956654,3.04
0.111591160453906,0.09731781420166977,9.645172735676436,0.006998826110646949,-0.013975847517317461,-0.0108375117965021,3.0500000000000003
0.11679234127054444,0.11276063433961542,9.815224847156577,0.002987790093998733,0.009727713224849369,0.006752568323805718,3.06
-0.06405078572435147,0.0025346659779254335,9.704549328513865,-0.013600565381287916,0.01745593455470569,-0.0196390124466495,3.0700000000000003
-0.027564906957747732,0.122108785310711,9.82661768242675,-0.0021570703099378545,0.007670668003418246,-0.015259446655218365,3.08
-0.05581734778636177,-0.15797071001943294,9.926279537689036,0.01687859674729473,0.007650405372278921,-0.0019509572840064543,3.09
-0.03719483703746884,0.08057745164490174,9.832408922243843,0.009115361847689317,-0.007848636963099972,-0.001018834347002986,3.1
0.10786882180927267,0.11815472574371225,9.698961402274819,-0.0014471050650185662,0.003195542553670404,0.019632003066591963,3.11
0.027671311006605977,-0.07485950747799253,9.692793584242564,-0.005954114736953078,0.0014874669445093195,0.005415615890236575,3.12
-0.09476202081791722,0.1708993584274231,9.999587237907399,0.009721074456875431,-0.004137899259943537,-0.004596960434608591,3.13
-0.06280340832588985,-0.127706380085786,9.903154770452458,-0.019277434176691796,-0.015777387091389226,0.006287777779764034,3.14
0.06851262377950572,-0.060327880464743106,9.925851322757035,0.007731735262785742,-0.0026520985805578616,0.003308881250087199,3.15
0.016133277496290645,-0.01861432231858468,9.830256381319966,0.010592428842047143,-0.0016443552421335599,0.02111379355025564,3.16
-0.008727971504607338,-0.005164774801631695,9.856687006219058,-0.012003661792033316,-0.005049976112252059,-0.01150469304147275,3.17
0.06683908853022388,-0.026470681658770714,9.673480143829492,0.009676716088712414,-0.0013747966888462554,0.004569479340593601,3.18
0.016421283256643816,-0.15224038222594594,9.74419596734026,-0.011117991733368639,-0.012995424698992333,0.002541321119797116,3.19
0.016397892539306343,0.003790405386811635,9.795953734222113,-0.0051598200024352515,0.01605791528231265,0.01667081621793258,3.2
-0.026229548789679636,0.16249129158566267,9.84356708161213,0.01204957399651675,0.010784924365185298,0.004766398403176688,3.21
0.12474558349739065,-0.002008305698498768,9.823274998785953,0.012671337657515278,-0.001934842619250048,0.010436295022469412,3.22
-0.14144363563430898,0.04601168674577355,9.670804869829999,-0.01631491795787214,-0.02294262283774034,-0.026012194802506012,3.23
-0.07096369601853397,0.06611048819944124,9.767537577709229,-0.009416572996165775,-0.006846847182838987,0.00043803383223556,3.24
-0.09252503671755123,-0.1556070027771806,9.753647696975255,-0.007213959784558749,-0.004873329181991809,0.003278863571660499,3.25
0.14247750304261853,0.05062891467209179,9.812416690025957,0.014379226891854937,0.018826131332631797,-0.0098887671746761,3.2600000000000002
-0.06868355995866149,-0.022764054921198193,9.703543013452897,0.001970928907913974,0.0033612629611753236,-0.00489378648698658,3.27
0.0020530643808118363,-0.04227128629436574,9.888500016740496,0.014077742721533289,-0.0078068221766160574,-0.006872173093349385,3.2800000000000002
-0.08980674613007433,-0.15491411670171873,9.630862456160624,0.014294914344756585,0.00807047701688146,0.006527329318179694,3.29
-0.16630500848309357,0.11375161343461851,9.880707858835581,-0.014924115476753355,-0.008343539849869644,0.013366906005934319,3.3000000000000003
0.03801381810278901,-0.16796316805590303,9.744080651867545,0.024933617756622405,-0.01472691820838717,0.014736712296160581,3.31
0.008763328291789453,-0.09458900411357557,9.833498521089549,-0.016561166179938226,-0.001599965104196099,0.0009027771627717067,3.3200000000000003
0.025052126544749916,-0.13736365825346805,9.891303122283569,0.01633439934720386,-0.0073023288124891145,-0.010685094100060992,3.33
-0.23653997344257746,0.32783614499810926,9.647954052632494,0.002512793886710093,-0.005453911169171012,0.0177079203810528,3.34
-0.017640911321409904,-0.0687787234150014,9.871693589230004,0.005301238246901696,-0.0016475225406427855,-0.004289436823808313,3.35
0.08864357011437793,0.003454265694640542,9.804703196220776,0.0013014145463625876,0.02745457802239104,0.008754658450536752,3.36
-0.07890656532654951,-0.06543407437849995,9.84476306101633,0.019094721841402113,0.01206258351321135,-0.013610409212854451,3.37
-0.03153480624110926,0.06391403369307234,9.765773694528772,0.005019916821768197,0.0016588335776684996,0.0024562795706874604,3.38
-0.04167541798293298,0.05784346368535517,9.741754971919683,0.014335043951922914,0.010767426309601591,0.0050911030498849265,3.39
0.1165859362168493,-0.11834840640342162,9.835103667698911,0.00028592796537178474,0.0009586507927169412,0.008566463780158996,3.4
0.014887436011629063,-0.03488715353596922,9.851550761669213,-0.0020524918600336823,-0.005874708091802849,0.008691699408378772,3.41
-0.043144515042708775,0.06966990617173947,9.926410103270621,0.006977533365328893,0.001280174409167697,0.0037371964478256432,3.42
-0.027104065125171512,-0.1977279690617914,9.895746680958453,0.007033139729205393,-0.00045062291205029653,-0.004758594811503631,3.43
-0.06830218158139488,0.007370968975957826,9.701766191911638,0.0020855852986862464,0.012449624077114571,0.011562441711760508,3.44
-0.07821874943708584,0.01898833997107342,9.819965632467671,-0.0002994933719203538,-0.01529510386972649,0.00562184088076328,3.45
-0.0873202349438894,0.06794971898956711,9.859728543374647,0.010296732088531114,-0.00956367797038232,-0.015575006845625919,3.46
0.05185464232830901,0.11642639643191939,9.870966790941155,-0.010097044195027651,0.009319067926924073,-0.02350573665399911,3.47
0.04130257919139649,0.0657594943422361,9.803223062704593,-0.012322020691494281,0.001032539865163122,-0.002278907835227075,3.48
-0.051564765308499454,0.27782569566533155,9.909629509280037,-0.013757843674551356,0.001313643008083621,-0.028492240422121156,3.49
0.11277909100628057,0.02617397369157297,9.603061644287212,-0.0037646110719766986,-0.008785399701531277,-0.011352588306647052,3.5
-0.016121696401856272,-0.03431531670033893,9.70126069426946,0.007173573656022471,0.003274083960185303,0.01788234037224501,3.5100000000000002
0.011349888714185236,0.05619164391654862,9.747749110616464,0.010356167958706364,0.016275496628867358,-0.0037761573349435035,3.52
0.06622091312110738,0.04988373679058855,9.84369739388339,-0.0011675151321315197,-0.00845890754217772,-0.0033853096444492127,3.5300000000000002
-0.2175489462995823,-0.05401203189709635,9.71392437565867,-0.004583136419201214,-0.007888398830359907,0.022815710663414306,3.54
0.03528833565639946,0.17759814373013888,9.97133416606999,0.021451487937048964,0.003265566837138935,0.00584587573385981,3.5500000000000003
0.12293224612525065,0.09829804835466642,9.897135114456624,-0.005046561152759896,0.009291296659708383,-0.009503073402899756,3.56
0.02464686032633758,-0.04705478323228346,9.680989134812847,-0.011696414981100736,-0.012693647011881946,-0.026350683311596877,3.5700000000000003
0.03384054052290937,-0.15056434768499932,9.912559722269586,-0.010234641216784994,-0.013135712359495209,-0.0001873051823170131,3.58
-0.060170991045786375,0.04503408078074473,9.582502773608894,0.005168039043989003,0.002310159345413436,-0.0012243624934938863,3.59
-0.045499623716599595,-0.23485155084351433,9.911301288865591,-0.008791925038932428,0.006487083987202344,-0.006411101370517988,3.6
0.08487514085573604,-0.027802004154038225,9.878006180366166,-0.0034235957589964566,-0.0027768027656045117,0.0013076426977280215,3.61
-0.018301133883213635,0.11367880165044952,9.896318126590208,0.009587110598951265,-0.0064155587102679365,0.007589413399437766,3.62
0.2114187942276482,0.03952507576754714,9.840123476362235,-0.008782195859490064,0.011755932863564252,0.0032325692657391787,3.63
0.0012369759251942242,-0.02113369801709085,9.706006226043012,0.0012205086200538803,0.016725283716644748,0.010392973221836153,3.64
-0.0032374917733524523,0.04347683727806548,9.893828967027972,-0.01031394232931561,0.010606123120574453,0.014610176287325184,3.65
-0.008636647540150585,0.1686120953148595,9.822128047617577,0.00552523566522331,0.0021081199975986234,-0.0047353818787445245,3.66
-0.048599942672739566,0.021540015784362047,9.914116956852547,-0.007195580735646385,-0.02487889965428459,0.0012751562157390036,3.67
-0.055862910564620005,0.029303309533974614,9.964919502461113,0.020331419783035584,0.016100849017146934,-0.0015805085942780812,3.68
-0.036635243246262876,-0.06953723782154628,9.969540762857099,0.009276338947081762,-0.00590246975383053,0.0013917919196435062,3.69
-0.09583161905331894,0.05020107923533841,9.748603637861455,0.002019565740249285,0.010890549787431526,0.010472337022634838,3.7
-0.16508364534995212,0.08562168009140238,9.931089359446606,-0.011657720570281317,0.019875357504304747,-0.01768762935857096,3.71
0.19989536545210881,-0.033353737049642465,9.889255537438878,-0.0048049588903509915,-0.0016403692326623942,0.00847521575278702,3.72
-0.19961216025193246,0.17312335510056,9.979750777372553,0.005688104287987318,-0.0071091877079398,-0.00244195068219044,3.73
0.009495373071735782,0.010309648702036186,9.827697286941074,-0.0033128851533901662,-0.0038604990763448093,0.007361489814047602,3.74
-0.036834481839150106,0.18815643610588811,9.823784841838487,0.008904945426505398,0.011391999839005443,0.007951152883473317,3.75
0.0773103896656554,-0.12992352790427206,9.743933252826286,0.010302967556755796,-0.009419797006818664,-0.008637164207886612,3.7600000000000002
-0.0333487494990296,-0.07209402072373611,9.838920592822996,-0.01419044126517232,0.01831529710676181,-0.0011649175282319845,3.77
0.07849110566256096,0.12572683757341915,9.984806399303537,-0.008801339770070148,-0.01031243389761522,0.015016111258891697,3.7800000000000002
0.07006548734614869,-0.07226519765764337,9.920793105106698,-0.005987215217320449,0.007527842288887559,0.013043606734399613,3.79
0.06658524900185062,0.2165323956087716,9.679577396112457,-0.0026315764952461046,-0.014317518356880917,0.020012243309279303,3.8000000000000003
-0.06851546960103304,0.0068952123916386394,9.77828392711701,-0.009242065119910286,-0.0005295040386208978,0.00010484735783384926,3.81
0.10003688308140397,0.07817827109094974,9.625703602109192,0.01082623735019095,-0.01086803545746936,-0.0011406044578286458,3.8200000000000003
-0.22338475817367176,-0.10496457310597718,9.879487665250355,0.0019305707286969606,0.007089645817578755,-0.0167470935191322,3.83
0.11262799501312215,-0.026722210359991047,9.902312121233953,0.010985877645008331,-0.009080499239746255,-0.02519238123450573,3.84
-0.01953166232123362,-0.2558830972770522,9.748498643253262,0.0022811470668876355,-0.018308100713832706,0.002979498345043387,3.85
0.07184368047595867,-0.08086719999979625,9.860409211325114,-0.004715429430323154,-0.009635455224699132,0.002207682721418306,3.86
0.07591443122028797,0.05194791154506793,9.867311726682553,-0.008254020865722432,-0.017486777661256635,-0.010896016296240284,3.87
-0.03305007442944526,0.03777833570739349,9.82654594668663,-0.008318939987479996,-0.013913987984115528,-0.00628275289776251,3.88
-0.0649866109577596,0.13130974525754283,9.845660384234208,0.012961480710895994,-0.003994532948554126,-0.010848063405327669,3.89
-0.07252166554882995,-0.029399420945840655,9.830527249476697,0.004486557912277595,-0.015535681485625877,0.01087953562752443,3.9
0.14539464895579743,0.11875491620195107,9.935701047897512,0.010974678754364873,-0.010484543731419174,0.015717601624386877,3.91
0.00966059340907333,-0.03071033383003839,9.885726993457402,-0.011060214428344874,-0.0055864108423439845,0.008749963891572891,3.92
-0.04667583488345695,-0.07475686616782624,9.73158981782483,0.0031007573679961075,0.010653701798183925,-0.015519676157833336,3.93
-0.026992678226151187,0.007082707793739193,9.82135687037654,0.0076145998531165215,0.018328737976254096,-0.021435766754092183,3.94
-0.0952713210157938,-0.09817273903568324,9.71909385307781,-0.0007416826957440656,-0.013121238299151228,-0.014109648223738168,3.95
0.08512715209005878,0.13402996980001664,9.727827130050958,0.0018545515722924173,0.00229443950131375,0.002301972845944216,3.96
0.07922762797479527,0.007340893381321484,9.92921821629848,-0.013080047154367693,-0.009550300342386466,-0.005043081814838535,3.97
-0.12037359457822089,-0.020849908011827747,9.760768361193218,-0.013752712197944614,0.0061851509822329846,-0.002012356312976841,3.98
-0.02361906958363144,0.1522762207432004,9.815267472547534,0.008125439489805509,0.0033427033409977346,0.008418267197116828,3.99
-0.047151486258279154,-0.11571720331990543,9.790083380465514,0.0025718002038031,0.00461076547985189,-0.013856207221432082,4.0
-0.1635440950321174,-0.05355150966689141,9.910718504416165,0.002344387704081274,-0.008494201420047136,-0.016857674807099626,4.01
0.007582301249477079,0.02565797901814501,9.826805487516747,0.0038772172164738866,0.00012514907650384418,0.004752630464516294,4.0200000000000005
-0.004920419745513827,0.11374092430212464,9.774819963783127,-0.003152799347206112,-0.0036841888280352217,-0.0035007860118293366,4.03
0.10892432213481154,0.08052468178320682,10.071394903051521,0.012755329319634474,-0.0019368166199124001,-0.00467401383484295,4.04
-0.10563176941592944,0.15201778507979968,9.872258829796275,0.007254658747002263,0.007188927443755167,0.0036716509136220724,4.05
-0.04615608776206967,-0.06806867908417871,9.792629557030143,0.0014605861357028858,-0.005321959609627784,0.004561823943284073,4.0600000000000005
-0.11597769041735694,-0.07026893175906129,9.77915151943427,-0.0013055391428039257,0.00920377688112234,-0.0027229270115490217,4.07
0.09581278763747525,-0.048724459750483604,9.820188481273826,-0.0003243008223385528,-0.018449823227972555,-0.002733943124635635,4.08
-0.11780662941613491,-0.0653961507536866,9.893921449518915,0.007086087337152455,0.008414144376756734,-0.001126261549081631,4.09
0.054545715001785955,0.11243789336030124,9.62921037955801,-0.01550554850312732,0.0007638328538641519,0.013810277319090934,4.1
0.0015046963683320318,-0.04892090613500302,9.838843554104452,0.008132750943802171,0.0034020930318457493,0.003822875988955823,4.11
0.07853992975836406,-0.0030410431709544435,9.773455677770029,-0.017028737706597234,-0.004129841253214572,-0.006855275649194596,4.12
-0.09207576644640121,-0.10474673087585157,9.861866074235879,0.011724822550777328,-0.0003135223169697481,-0.004420898447137618,4.13
-0.12692563693145875,0.0014550790321467056,10.178711736018956,-1.8254057873786982e-05,-0.005786806729142586,0.005973888608131049,4.14
-0.0029468060589192607,0.030257823401718564,9.778161133666295,-0.004414212706437593,0.0013682024651307206,-0.011965912172966364,4.15
0.08624824569038556,-0.09047751327502354,9.6912826638444,0.002577408905019299,0.0042417660271968265,-0.002521876093712133,4.16
0.019838106164381693,-0.08560937702559317,9.743124399126584,-0.0044993011073280196,-0.011104247369724193,0.014024167326026972,4.17
0.029169124507193278,-0.02596296362162235,9.961493366682335,0.012791233671168802,-0.004060255453985942,0.009322055585824218,4.18
-0.04700751046467928,-0.04370520090990565,9.671006569450979,0.012646450355731005,0.02097346439256053,0.0016485403676256905,4.19
-0.048763585822236125,0.005770311510394359,9.926608182677672,-0.0011607839912314074,-0.014616366733830844,0.0020466650169773774,4.2
-0.0761965779786084,0.04867753472364589,9.84607553708245,-0.006097815073315283,-0.01110364529958608,0.006816385628001451,4.21
-0.05976443076435148,-0.03319791445907459,9.80859974903683,-0.011706861760767896,0.01829474666783477,-0.005317907133128098,4.22
-0.09736877261195345,0.1968442811616304,9.94305571269565,0.0028590074194549966,-0.006558317699996616,-0.008633706548313753,4.23
0.03124207102426771,0.2270193607968378,10.005807903034029,-0.003065081564682812,0.014512798575039189,0.019445525509636935,4.24
-0.07644565474485063,0.12625331350890184,9.743189059349618,-0.005303859235546256,0.022378752938011625,-0.016398141818285823,4.25
0.015276919022669037,0.054480284438113494,9.884067297803565,-0.015199548517749056,0.005947099467810078,-0.0008349593812596806,4.26
-0.14894400664031035,-0.20116981388209237,9.826054426312803,0.0021612522537413806,0.007696238131768034,0.006857360098007623,4.2700000000000005
0.055088732674976895,-0.07643490839484485,9.85202340365551,-0.017756608820395172,-0.001513103748544867,-0.01167658657195271,4.28
0.05862206000269482,0.11656792437696842,9.870332928362295,-0.0034916982470692822,0.016680468558649856,-0.015359255129533001,4.29
0.0943634056297422,-0.24310019474407266,9.844517712957881,-0.014697280237202254,-0.010845576335797413,0.008636028362057359,4.3
-0.10201998434839582,0.026103174778705218,9.8262076635866,-0.014200495943223668,0.004498869064458973,0.002771331097546667,4.3100000000000005
0.00848356679015871,0.07115169316516573,9.610704573712551,0.016930053325694593,0.00863456949770455,-0.0076047850186181445,4.32
0.042102484535876644,0.0158523642973527,9.622860277254265,-0.011377840306789663,0.00281407332038715,0.02116745867551617,4.33
-0.02935718688231887,-0.12471924375340034,9.934590804975242,-0.011800816552300683,-0.008789037217205656,-0.0195547893415052,4.34
-0.024200531839464648,-0.07825931249887252,9.81619930138254,0.013080772648986645,-0.0015987960735087232,0.016999309157348163,4.3500000000000005
-0.0495692212689317,-0.14510545258698923,9.866607301571156,4.9353019246110226e-05,0.007115197450136203,-0.005180176502411023,4.36
0.02695711310290156,-0.1746831934784796,9.929647531531149,-0.0016686829541121368,0.012821160493110533,0.004379786486988856,4.37
0.0639537135858663,-0.19514709426901422,9.828736675478105,0.005240838030356258,0.002814249393789415,0.015829902703462066,4.38
-0.10478746445669007,0.01927122632154599,9.816414110822834,0.011388573088604628,-0.005543612581999221,0.00018352244798435006,4.39
-0.1298195577156089,-0.05885603969510592,9.860178021072619,0.0012284988919320935,-0.004254915623808396,0.008079820479585999,4.4
0.02932936981218669,0.1233790289169101,9.74365952614115,-0.006703534613700054,-0.0003685616189340893,0.00217096420037458,4.41
0.04234783157746621,0.03443105726809458,9.765098928403566,0.0051079411622310415,-0.0054482895432915535,0.010886674752927674,4.42
-0.14518066723107367,0.023907500513914902,9.724122717946914,0.021915770481000726,-0.006836930673753222,0.007879714784561615,4.43
0.11628551305851952,-0.09482546475776449,9.921165698315917,0.0041427138936769746,0.006716968229033848,0.003385252413210287,4.44
-0.1354229117618493,0.10100077027102883,9.859042517932494,0.006143717577546161,0.002689375454208241,0.007174796135700671,4.45
-0.07214211012043625,-0.11287897042603041,9.80936194552932,0.013292477044540195,0.0006527182289229495,-0.0036965683183942167,4.46
0.05199906844888154,0.048301095588923114,9.676569113694237,-0.012407469863984326,-0.01217992589393675,0.0011885615091503964,4.47
-0.09642905536189546,-0.09763694843165888,9.914073738380083,0.002720695011242756,-0.013094753049123213,0.017744834875664736,4.48
-0.02235154261678552,0.07827003651270209,9.726157854345006,-0.0011768593046254177,-0.006718780433805542,0.013741853100005169,4.49
-0.03011143969008573,-0.1502566300525449,9.90346290152446,-0.010540179583125073,0.0006120844711518322,0.0015167040725862727,4.5
0.0014703549582512658,-0.045479006081690414,9.823922290915343,-0.021268571643489158,0.0013762614816893374,-0.01016825996437764,4.51
0.0035954877033011175,-0.011712418689110883,9.922851983955637,-0.013489184145245373,0.004438051524446317,0.013690559530610418,4.5200000000000005
0.042036796984271124,-0.09991164341017113,9.979771376520606,0.006755734427338823,0.010237888176747928,-0.00522789619450057,4.53
-0.08438082140146881,0.046428363514347426,9.840590011187087,-0.018295637445489857,-0.01523974273481368,-0.014217503939749304,4.54
-0.0224681151922477,-0.06888744993447359,9.94500315348798,0.01435721877058193,0.007703609201026191,-0.013537169631151636,4.55
-0.1557586703456259,-0.025998266349615586,9.819942779446114,-0.008775756191351269,0.0008549119139069646,-0.003514997031229301,4.5600000000000005
0.024565604624713033,0.06588182391718159,9.814658501866823,0.003998600151304797,0.017681944969389737,-0.0061266585356203815,4.57
0.0306852141549393,0.10395104693131102,9.811071100507803,0.016689105986197734,-0.007736022348158898,0.0036030427011413103,4.58
0.05817619790246617,-0.08198343076557163,9.673509133738468,0.000968335646757499,0.010042430898662039,-0.0013712412284117442,4.59
-0.10355158977116768,0.11889479644815389,9.856690725687985,-0.02779411789330166,0.01912114796863367,0.006162984623137357,4.6000000000000005
-0.02674383317747672,0.06304791741694275,10.036565628940014,-0.0045395325119356855,-0.013908490468120975,0.010562798015454703,4.61
0.01225852699417267,0.12491985577376344,9.603998539679047,-0.011657715596360124,-0.0018670164518450022,0.004925562402944055,4.62
0.0548619820473795,-0.15984964452348485,9.927533162520769,0.002900571216757937,0.009932742405327164,-0.0030416811542329477,4.63
-0.23493835716306127,0.13047068360278766,9.79851072268946,0.005613809795898932,0.004948979193766174,-0.01195887728795454,4.64
0.005053805325607008,0.10483940929817498,9.776793797300021,-0.000689114917626531,0.004422221730844662,0.012252005765229786,4.65
0.09882874727683087,0.04563191236839329,9.889081975078094,-0.007373353929732147,0.0012102464589406235,-0.00584224252396565,4.66
0.042318855006526344,0.22790717674377686,10.043465674827347,0.009667367508877615,-0.023220585789611566,-0.011201136161573392,4.67
-0.03024652686191668,-0.13088107220289855,9.848194656410891,-0.014000436063626854,0.0035730502346218913,0.013472126200788158,4.68
-0.09464344382451849,-0.037520729280830584,9.70947600658988,0.0011798055580584535,-0.0031338848772021993,0.0005848206257746678,4.69
-0.04053225019061598,0.015170520168482197,9.780203612452935,0.0071476488813566556,-0.0012157211897327136,0.0034602724573275607,4.7
-0.1383839973943206,-0.1313622194484689,9.937872160807615,0.014553275763888108,0.0055431768021702976,-0.00892251124643012,4.71
-0.06273383080633568,-0.06921902955800484,9.788787148733032,0.0026315558513442245,-0.00032393259493459137,-0.005173960364611901,4.72
-0.11817355182724135,0.03783294765234833,9.804371251628124,0.010629564574985042,0.03430913047975935,0.02278491358427824,4.73
-0.17867930608536164,0.005072176931684661,9.585699959455798,0.020650049216243978,0.012399337412318174,-0.0020799500583999083,4.74
0.10799131614442775,0.25089207810746006,9.83430722934234,-0.007552838062090022,-0.013293582635940177,0.006709746746910784,4.75
0.11748178241483948,-0.02930422142962787,9.696147552659491,0.003393103714183374,0.0044571636021627685,-0.0011604915153336796,4.76
-0.1558543101098055,0.006527609313448604,9.785152289792496,0.007527320386180915,-0.009891789770549197,-0.0018363175287706578,4.7700000000000005
-0.04009005326113793,0.15404311262581227,9.802333320556434,-0.003910888688618692,-0.0011683527733824038,0.020426302585900235,4.78
-0.16732730254484784,0.1384908139296037,9.803864508889486,0.0057151402991077625,-0.010932681990665395,-0.013797410711490406,4.79
0.10411807595944461,-0.03721970467777205,9.823477883248005,-0.001870387043191224,-0.003020566938819731,0.0059818664360265505,4.8
-0.02519359901551755,0.12921276509211152,9.734520640292562,-0.0017045272320948667,-0.008314739934380281,0.007317352106668666,4.8100000000000005
-0.04393941897674962,0.07236000135124104,9.790798253442698,0.006332531296373568,-0.006569754946336255,-0.009830006747272772,4.82
0.04309455349323435,0.0005335085905343633,9.873019635128047,0.010779204610654118,-0.006507977844002037,-0.005712175452152294,4.83
-0.07761369520283001,-0.005185071836778149,10.027063741367593,-0.001686812819267003,-0.018498104597347277,-0.023365573197712767,4.84
0.011002437178268603,0.02685737570509469,9.906433946350875,-0.002039019202009684,-0.012979818881065482,0.005600922840652726,4.8500000000000005
0.20220492238617288,0.061558292526099484,10.009981024096074,7.760227018111944e-05,-0.01407282595371948,0.005750863980270712,4.86
-0.05734979706748894,-0.15180320956186208,9.924374833471802,0.0027372305389737153,0.0012959449972164431,-0.0001903067949152713,4.87
0.12744575887476148,0.033264576768477265,9.805705227323942,0.016172279041846722,-0.004084063464550919,0.011085154073154375,4.88
0.17141543870148845,-0.01332224679778559,9.956957251066635,0.00020128693741442667,-0.006985586682522906,-0.005187469868304031,4.89
0.09923503075960104,0.03868518413899896,9.618394458756026,0.0021906662461513467,-0.0026370586493654853,-0.004278111967748512,4.9
0.020382752304223734,-0.0689914903527944,9.77997895905284,-0.012575886429598298,0.0020931604626918125,-0.022525684819644325,4.91
-0.011754245639691397,-0.20006543142272992,9.599166540872467,0.0054664633990289604,0.001220207349711396,-0.006308866871100096,4.92
-0.12004167520304188,-0.12235782956854274,9.695319162254886,-0.0099272615686072,0.005564339162671709,0.002537313086251652,4.93
-0.03680014013527523,0.20822211994163126,9.705329117963839,0.016836376360588393,-0.010780588146411392,-0.002723616516487819,4.94
-0.15094787794422393,0.06170457665525223,9.823448419034412,0.014567369220329822,-0.0023266863633535817,-0.0069792037668142334,4.95
-0.05759564525230654,0.1710933731756453,9.70570521578433,-0.00559691629207363,-0.008002487328567651,0.00837273035342975,4.96
0.01042617986109442,0.021034598941241142,9.956485909078179,0.0089384524449828,-0.00989186746099385,0.0003229591244524577,4.97
-0.04779476328768839,0.04078281846017945,9.806981531568807,-0.011891558476817173,0.003657969086744729,0.005904085281999866,4.98
-0.17285353973277104,-0.0462015857428827,9.880623021864736,0.01633064686125139,0.007079423197018744,0.0036423309203278543,4.99
-0.05543459297659445,-0.1643125523380619,9.915145557024903,0.0204401438849141,-0.00023439969443183044,0.01372371939201098,5.0
-0.22689679285038555,0.13237760957898712,9.849275989396943,0.005402697155595625,-0.007399325688420373,0.0022918087733738326,5.01
0.06560383991179905,-0.026876034942471278,9.855094610716082,0.0007886751415438981,-0.01668522466042214,0.006764105338794997,5.0200000000000005
0.06217860426138208,-0.05572212887681787,9.89880362269555,0.007585349915190356,-0.018234434576633044,-0.022918645430873234,5.03
-0.047532786145040175,-0.1871036965123466,9.714390304113149,0.00374864950608627,-0.01674807980180434,0.00490821375916496,5.04
-0.1905630982732115,0.022640935444067485,9.731418149424657,-0.022687682845483798,0.004569146745531699,0.0009667887753776614,5.05
-0.034533010509882896,0.0553709313349878,9.739928111953702,0.0005887689926711697,-0.014603149063514065,-0.0009206116224606041,5.0600000000000005
-0.019458967081491082,-0.08116457961226017,9.759977336114918,0.002566826997092787,0.0031527684546868175,0.004776484305141062,5.07
-0.12804355987779859,-0.06347198671776025,9.651492093300053,0.012859707227501916,0.012816728800654842,0.018982014057361794,5.08
-0.13616465697661667,0.005831441467842827,9.723898099250851,-0.009463810828531562,-0.019688217634092207,0.0014547906388841642,5.09
0.004635916090507357,0.05266775627069684,9.745652270365007,-0.014626496087368868,-0.003472543763546062,-0.010441624722967174,5.1000000000000005
0.1558441520848703,0.07748489167965729,10.023233900519728,0.01607174298674836,0.00275168497562107,-0.004245592972073377,5.11
-0.04181964758309739,-0.1047375718348034,9.739204567580828,-0.007442084378071525,-0.010050053295404555,0.007130920457377189,5.12
0.1484012050468101,-0.13749530752052963,9.76802680675105,0.0009301571532969336,0.006757973910934106,0.011243027440303864,5.13
0.07187329485301194,0.04698263905018976,9.860172421560138,-0.013389132928933137,-0.007874812146604156,0.011693132804198446,5.14
-0.2674925233364394,0.14051381117597697,9.911209603310526,-0.003957717003551005,0.01803012855623047,-0.012990259137898792,5.15
0.1468478391761102,0.17901189375329984,9.878554387813901,-0.00019452153475767013,0.0010461897111560014,0.01970329545160441,5.16
0.06284217771297117,0.19067061971665694,9.705232745840917,0.010365368103182691,0.0006124457653218398,3.436806835243384e-05,5.17
0.0715507860176069,0.09468183016180615,9.931667633530566,-0.008618487802831845,-0.007016197009198805,0.006943754004380216,5.18
0.0023323331352952583,-0.019530908902477866,9.620926919623152,-0.028853198729096943,-0.00916340919491458,0.0003360561426679917,5.19
0.09314333606759566,-0.049865443888762254,9.879420616274857,-0.01957435115923847,0.012014524930959017,-0.00658437211968995,5.2
0.18645614761683446,0.10312280896784276,9.71569734350942,-0.009015253827429643,-0.013406774320207634,0.004264910034052064,5.21
0.062131245818066394,0.06722832721572154,9.97178211644898,-0.006759025975630638,-0.00944078826587643,-0.0050172287934782366,5.22
0.18144039799140066,0.0006181213688072456,9.735667391762458,-0.012561504715608064,0.004818118151994897,0.007080279005761212,5.23
-0.12364653789160113,-0.07275687092679291,9.802209397169701,-0.0010292864647065245,-0.006659780183055071,-0.013669174317474822,5.24
-0.008816755722464457,-0.13032439471120194,10.03857058463349,-0.000387103276210723,-0.0018103944319508368,-0.014440862566820702,5.25
0.17984010194551736,0.26366481912446205,9.858785098566981,0.0021760267345860467,0.0004938906498097749,0.0037058595875289523,5.26
0.12322734967000962,-0.15346690214399122,9.876858069041932,0.002871581003116231,-0.0039781895733809036,-0.007775951075879655,5.2700000000000005
0.011935943456615467,0.03221516752005019,9.791536114369022,-0.009236037396604535,0.012761165439412392,0.024574395680477062,5.28
-0.04578752806652064,0.0697081454598227,9.837916865642741,0.013351127956148172,-0.006942366954762535,-0.006258486782793329,5.29
0.06747340546337104,-0.017319291937033587,9.74405065425361,0.00940965848515247,0.0011347397226100931,-0.018502631056126047,5.3
-0.0009369039091471115,-0.068959616482429,9.712965654523265,-0.0027289951320556716,-0.002031242677908343,0.0018780355292662518,5.3100000000000005
0.028413787749738285,0.11083621359606227,9.762114835047267,-0.0005862976630622846,-0.001207890003230782,0.005140129354630549,5.32
0.06388856590563281,-0.16305543841473075,9.952501500727626,0.006537891726094244,-0.00802264878413404,-0.0017732141354915379,5.33
0.06588866077327075,-0.12901194074680727,9.712384533212909,-0.018177512144281205,-0.0007509975187632717,-0.01545515197259775,5.34
-0.04756686985413451,0.0037279768536735425,9.721105795479026,0.006023382458756714,-0.0017959300019537187,-0.005683285087055336,5.3500000000000005
-0.002148442085929568,0.04446537468717435,9.806814373070365,-0.006393916826353136,-0.006380899406639927,-0.002978458896801854,5.36
0.09192315034988384,0.05984166892703732,9.88908201478301,0.02266864542989056,0.0067166224761300375,0.010744555806421974,5.37
0.06224997155491762,0.07691390208352958,9.7232697643691,-0.009004971708802949,0.010388639197151668,0.003409423003440488,5.38
0.05832795581431795,0.08552484729645243,9.76639677897785,0.0005509760124294038,0.001381734392152276,-0.009264560829506415,5.39
-0.024217227184633004,-0.09784563736107174,9.865871968275929,0.003228503587985883,-0.013596413202979827,-0.007923367900463682,5.4
0.04426497619785666,-0.05584542592154948,9.843253303972528,-0.00701639010983957,-0.01214959353678751,0.016078205387344766,5.41
0.09504745924223656,0.06927855619512988,9.672648573762501,-0.0034345289193045787,0.0049233762040268286,-0.002927395060424694,5.42
0.12406687422314677,0.14003989746760467,9.779764853111951,-0.0005936959465165138,-0.000656791290304956,0.0011852727905899872,5.43
0.12039775088371173,0.06452336396182322,9.915495471352557,-0.015096392930182114,-0.009786750118746627,0.008718500670788045,5.44
-0.07237751213171785,0.009365287965715783,9.755546268483066,0.007138372037810817,0.00491905202978167,0.00405615058861087,5.45
-0.01591097873509749,-0.06798729834709298,10.010031633648095,-0.002021158143283697,0.004258840118906014,-0.013373698094830194,5.46
0.29095307936319126,-0.2166521406478389,9.809217395553034,0.007101244621590499,-0.014076382809896546,-0.009505844492069539,5.47
0.15740372953247636,0.02534565879771184,9.861340038203997,0.01103534984718895,0.007766981513089062,-0.003044379383795043,5.48
-0.16818784602186154,-0.0008092466834358253,9.866067169007229,-0.004343606932890918,0.005882019164503731,0.00554494018222114,5.49
0.01623431377861371,-0.014488171059123554,9.85509030789234,0.004973676737911252,0.0036273864050817483,-8.02661183337186e-05,5.5
-0.0966584830144363,-0.12108807825262156,9.886772093066336,0.020933645300763772,-0.018438900804845507,-0.018808160528706982,5.51
0.010771070131736171,0.10808504869998277,9.82758076869286,-0.02028182901083432,0.014491147063439793,-0.01951726500275797,5.5200000000000005
-0.000474795086066694,0.3050589720504299,9.90162631295997,-0.0013984683346269474,-0.014677231676877034,-0.003320944131248223,5.53
-0.15710534780992033,0.1556675411603943,9.804863747374146,-0.025273213889855865,0.01160196228999803,0.001987226662953236,5.54
-0.0694071933840829,-0.17711654846442987,9.875890655825094,0.017045993571648824,0.0023997196648582143,0.0030346579671953547,5.55
0.22909968194406358,-0.0015231560433594483,9.900673914480706,-0.009362747476083963,0.0019507975196262682,0.011347263189952526,5.5600000000000005
-0.038453202321383606,-0.029323462480138354,9.730444811885182,-0.00692645608806608,-0.01616235876927978,0.0008554934049520264,5.57
-0.2488331423856371,-0.08403462975172182,9.92122013951143,0.0075761232291251335,0.005652511434713759,0.016629491645179833,5.58
0.12196060701217099,0.0936099562166963,9.82912706634099,-0.006978865664994981,0.00889231181806764,0.0034639264768621322,5.59
0.062239331719465385,-0.0047140934011504045,9.818283395509267,0.017195651846134564,0.002293984551710982,-0.00996668385553803,5.6000000000000005
0.14895714130707036,0.12874463121445753,9.771033683461706,-0.0018558943811058627,-0.0012223591349860116,-0.006236781983828432,5.61
-0.029206158108395882,0.011514905846192736,9.917422598300671,-0.006493493575056512,0.0036871868012035612,0.003729807361577013,5.62
-0.11497677047237304,-0.09906241906106415,9.723171075192216,0.005194270393016929,-0.0092161729065114,-0.000226532772282057,5.63
0.15868188306097644,-0.1535444881225016,9.617941301089516,-0.004359069778820059,-0.0015300675896391621,-0.0036106870270908786,5.64
0.021913467292316573,0.026171221521086793,9.969768843558173,-0.002841445664764798,-0.005652465311973105,0.007755140624257451,5.65
-0.05053942759350675,-0.056545159436222285,9.80067217778238,-0.00010544185360549757,0.009653610296869623,0.015228650402058489,5.66
-0.03325023311647243,-0.0029655876505589335,9.745460488753034,-0.01618683478649093,0.005700763168514973,0.019557076150816123,5.67
0.14854897546150478,-0.04145673258074537,9.81117299492882,-0.016910981192686383,0.010891588835518452,-0.000688689478294376,5.68
0.1636116862842855,0.12617217442093775,9.890888184021174,0.0019392433643029715,-0.016719525175031797,0.007800094661967633,5.69
0.024584940459211876,-0.09922515219344656,9.91149910518313,0.001367456162657498,0.001436860855954727,0.004045233847354714,5.7
0.10683507995503774,0.05429770639734473,9.79991929251594,-0.016834580411547548,0.007394038096860958,0.001781043943191874,5.71
-0.025755780684300435,-0.13055050701545798,9.88193185705374,-0.007371679778672965,0.01130505991397392,0.007641580201813268,5.72
0.04528190008438238,-0.07149907366860579,9.879832786633218,-0.012496072593144636,0.004748165203202556,-0.008879939614133707,5.73
-0.016438102738389523,-0.030221298664505777,9.875388306720504,-0.008371568230425118,-0.01313446846564617,0.010904735064196265,5.74
0.01715020135172265,-0.04977961785690715,9.916134668606775,0.012760688516562266,0.0018632203573467354,-0.00503983673822393,5.75
-0.05673192573986472,0.024726243484072055,9.708819546715095,-0.00899233941744625,0.01559877243115007,0.01883821737241995,5.76
0.19832194922211177,-0.053406391926632206,9.853764730145297,-0.0051742149810198815,0.0016977604118712803,0.009654268924979685,5.7700000000000005
-0.001887938745215011,0.012461572141843043,9.751874448348675,0.005367990167185643,0.013386262800656825,0.0053028072818241435,5.78
-0.07555872388223589,-0.12253574214491153,9.866443812505212,0.008698641811407322,0.012443156488631618,-0.008674860213903152,5.79
0.10451489534466221,0.15561364144067388,9.79997108607125,0.003947603131246469,0.0051446990410673925,-0.012918442173436974,5.8
0.027257920162901846,0.10758063228636461,9.762263846966007,0.009361127604461018,-0.0038216723249873503,-0.003930932558669593,5.8100000000000005
-0.15009221185773913,-0.060681641199414084,9.77134886527517,-0.005158405874008919,0.0015112486225226935,0.013278036014275761,5.82
0.11442263742434451,-0.08974177018453322,9.7958376725496,-0.00015814874033466406,-0.013179330953856212,0.0004119230710379652,5.83
-0.12285261982774304,0.004092789435057332,9.933166243311158,-0.003977362253491349,0.005960490729246065,-0.007851582383628363,5.84
-0.10119055832630815,0.1369607264664344,9.77280638890612,0.010322268047056908,-0.0013048611280435688,0.00920731398927138,5.8500000000000005
-0.03577444699153797,-0.10340829618076626,9.797033012479242,-0.020122362658238333,0.02459112622536403,-0.011366099295222509,5.86
0.12275522405024986,0.034564131683383584,9.515485899303995,0.0054366611311584025,-0.019407471578681963,0.02449436559288866,5.87
-0.049940871912098256,0.07699280246844692,9.782819830245568,0.0011580139154062483,-0.01182354106726728,0.013083781280507967,5.88
0.2028191516550456,-0.21062964586833566,9.885123416332501,0.02317974597716259,-0.007688388775876493,-0.00805424335929394,5.89
-0.02323272574494866,-0.04888211886598629,9.85758782906835,-0.011624759047881903,-0.008364842091774653,0.012487632344232802,5.9
0.09364299384735524,0.08290896038512452,9.881166946302937,0.010466105433105001,-0.012465530496325762,0.008276715790978582,5.91
0.002231159463785636,0.10135592321229117,9.887150215872303,-0.009434321356271078,0.006913065748540681,0.005942889494811607,5.92
0.05711413301540757,0.12130070889829636,9.760922078479556,0.023710391308562322,-0.005917435660091891,-0.008528020873165332,5.93
0.02921155798107325,-0.028946651458867115,9.76978687089205,-0.006187138415191348,-0.005816685043089015,-0.0065578046556916385,5.94
0.012953576561539674,-0.04830922396025935,9.810273194128868,-0.005255474592150622,-0.015971341958313887,0.017368601637077836,5.95
0.01755188762588728,0.06790631540995146,9.839419416859707,-0.004941539452436587,0.018439607474760738,-0.006024436089601175,5.96
-0.09242272482706795,0.001674330794977013,9.778661406900952,-0.002791011602243665,-0.0012353631941888574,0.0043058644512322585,5.97
-0.017545857706436543,-0.11594575415017278,9.61645085178249,-0.0007627933587382685,0.0012753687378263714,0.006858849278561911,5.98
-0.06728436967126432,0.13140674812442518,9.950456917366681,0.0011990923933007664,-0.00546045755376055,-0.009698836057737317,5.99
-0.11736216066332167,-0.014366175853989253,9.986409814283729,-0.015472768325749375,0.0071434166678714505,-0.0055803692935515415,6.0
0.06443517377196406,0.06559313960098181,9.700960429812653,-0.0028660550507151696,0.010038186145149917,-0.0019472787287931515,6.01
-0.000796230591394409,0.14308652096055113,9.843866620034776,0.003081354624003494,0.0054123570839590155,-0.016504237506647843,6.0200000000000005
-0.013610595229532146,0.003840874206833675,9.730426746097182,-0.006688324112725727,0.012902726694373303,-0.006450600422312256,6.03
-0.07364349059580731,0.032796990552596626,9.76861168039275,0.004975428700753186,0.01590994966984273,-0.013130986645312205,6.04
-0.010620648530199148,0.06273283912689134,9.844882960084774,0.005227261415907837,-0.00192052002812385,0.005229118290428213,6.05
-0.10440181259727743,-0.08604811968177956,9.802208982206693,0.0022361736776306154,0.001778243726506681,-0.0011355859249555448,6.0600000000000005
0.14708328365138199,-0.15566646790384775,9.761076853866488,0.005061411045909955,0.010744903338580072,-0.026603570961781245,6.07
0.05948617347041166,0.1632162465473091,9.856864637078942,0.005236230007712044,-0.011252218018250078,0.011147903096363366,6.08
0.052852844784477174,-0.049302674736285565,9.95159401527476,-0.005192778850689652,0.006585316748450282,0.00494258181729081,6.09
-0.18629801951598787,0.04585796613843066,9.979723712548624,0.01269302632653339,0.0008128672152126104,-0.004399659498952324,6.1000000000000005
0.006056898135862188,0.1580256992142457,9.833057685285718,0.004775304621482707,-0.0020542862384768995,-0.0029247359470553503,6.11
0.14313262844005537,0.06744774745777861,9.998808762471132,-0.007872932356147673,0.0038108357263735688,-0.01004105085116387,6.12
0.05766382221225757,0.025310534270664615,9.73589461184122,-0.0073069392375534415,-0.017086871394291422,-0.003169026085012226,6.13
0.20569181024410402,0.007090648321616641,9.922703329216107,0.009645234466301196,-0.014862669262642464,0.0034813987769853343,6.140000000000001
-0.006646777726895605,-0.08165178022931614,9.73233997930292,-0.012249141249263566,0.014945484723953755,-0.006169810063511773,6.15
-0.11197051536245786,0.10066127729463772,9.709851403855213,-0.015238299139453647,0.0161553329914536,-0.002384627443005619,6.16
-0.034531654460920005,0.14815580172635084,9.79779054355897,-0.0003058089575137316,-0.005017264425675377,-0.009577773691671771,6.17
-0.12200362206488091,0.031425329737924494,9.825136550584386,0.0026817344902507296,-0.009496241120708933,-0.036672339606810524,6.18
0.029494116899865214,0.019439730508684826,9.899670014369274,0.020866120337686377,0.0005123192851917816,0.002390235482880543,6.19
-0.06292925916510292,0.09008046196052732,9.819497382142721,0.002667206434266319,-0.0011781635699475747,0.0007014293376132126,6.2
-0.0489596905059633,-0.07685762267155112,9.817187083291998,0.008522305970313723,0.005445782917985912,0.011900916783371551,6.21
-0.05383683192130273,-0.0600378017757247,9.782263641794085,0.008017013509994482,-0.0008380027037871563,-0.010974902860444884,6.22
-0.0443167263420337,-0.16357001472448418,9.641853154463861,-0.020736445545723542,-0.005011909140670983,0.0032208658245942625,6.23
0.09155504790985974,0.08332044957963973,9.729366426441482,0.005968667886657745,-0.004845325562429458,-0.01389638286967225,6.24
0.07777580357412434,0.0912011635223382,9.580414500723773,-0.013480178368281023,-0.010473581109437156,0.016382321497154413,6.25
-0.122587743569084,0.009635438460768184,9.785119918033876,-0.0006229837372109169,-0.004166827295972876,-0.017113082444070275,6.26
-0.08860258036384455,-0.10242253308442922,9.73546735782704,-0.01381388468964366,0.0012870196147045435,0.0045404867259228945,6.2700000000000005
0.06314081384098584,-0.023441005584460745,9.843221871594451,-0.0029423646401785216,0.0018572546520669842,-0.01721079409465377,6.28
-0.051423164243871916,-0.24990518172157433,9.86710837356639,0.0008157146003240887,-0.004029954144278878,-0.0028993007448749612,6.29
-0.038691948327461596,0.07572698160832836,9.722459871299554,0.021706091813894393,-0.005597133270715988,-0.0014035405457640128,6.3
0.2052592411127408,-0.04188357016141048,9.841551679374813,-0.007887535050420174,-0.010538362094702665,0.0104654782256838,6.3100000000000005
0.035323440613656575,0.013982094200065449,9.741712056685731,-0.005665503496368267,-0.01211971229797116,-0.0027337249994371644,6.32
0.08105590695173849,0.15543853873674485,9.77554613880027,0.008796308198101425,-0.012166230823341027,-0.014366331336007126,6.33
-0.05807785651813505,-0.01965461600170438,9.899577998097415,0.009589166739658404,-0.007218786463145642,-0.021282920438056806,6.34
-0.05555123114172771,-0.08142495356159699,9.773933790972707,0.018660980428656954,-0.00033603086318408705,0.011877133979121558,6.3500000000000005
-0.054412037965805196,-0.11407931438870184,9.746229068814124,-0.004428836282231748,-0.013005508888158048,-0.00654842383686906,6.36
0.04162482183972502,-0.039579070237190955,9.9108737720854,-0.007669443108304935,-0.01068224110129454,0.004583310659742908,6.37
0.06925543303271947,-0.06818049982098691,9.729782762888481,0.0030207434428270704,7.337275782622182e-06,-0.002698076651467075,6.38
0.0110867204861293,-0.05542149253106841,9.96229548445689,-0.003920266778311007,-0.01308502808044172,-0.018267855916580727,6.390000000000001
0.13439932161708543,0.010649335326921089,9.839265943296079,0.006933924703490837,-0.017985597536776553,-0.021272256197354816,6.4
-0.04059871985381835,-0.060149471841712425,9.657710550092217,-0.0027227789352738687,-0.004591100814514638,-0.021180555245558695,6.41
0.11790846141539253,-0.02015406233893262,9.913796924957618,-0.0035319445489010643,0.010768511875101418,-0.008502765444985709,6.42
-0.03259323205788573,0.12945395242321378,9.954195988183747,-0.0051151256683833355,-0.007098649745725472,-0.00346497807767688,6.43
0.03231879004483645,0.13042761887625048,9.805191247434355,0.011515135721994868,0.008960681723278822,-0.006513052958843207,6.44
0.06247623456639945,-0.02564826931524658,9.650936530589906,-0.007829655478188558,0.009290027589336784,-0.002546497972639448,6.45
0.10946695294928772,-0.21998995206575095,9.831036343706643,-0.010457222090163944,0.014176628585198633,-0.008323995780963012,6.46
0.1919189702524925,0.026657999776748764,9.819546381004539,-0.0004467249764374601,-0.0013310089063392253,0.009380346142788083,6.47
0.01471701983738984,0.08330332676373434,9.95354667676181,0.0052716670222651245,0.0017244449726292795,0.0038680724741122895,6.48
0.10838073981358798,-0.049056847435258295,9.827032728887259,-0.0017746491959480617,-0.007669917993599392,0.006294946313447425,6.49
-0.16384641137331193,-0.15304035081506207,9.797418155453784,-0.005150897918849131,-0.010202532565438679,0.003373081690338135,6.5
0.21363734448379532,0.09430413680920857,9.717865054999924,-0.002460148405601792,0.0015047567297862758,-0.027318967435275444,6.51
0.07684515564272906,0.015390036778032037,9.862450127121528,-0.008937403268749474,0.0035696582185708687,-0.010477256003611038,6.5200000000000005
-0.2322861345394238,0.2129775375268865,9.812626678055432,0.008672571086952765,-0.00692651403044497,0.0013061589622995892,6.53
0.020360974372134966,0.121565624783304,9.753561166683792,-0.011454605181951407,-0.010911421221012864,-0.001327214218493957,6.54
-0.06050365251267991,0.012626226773064228,9.967973666100454,0.002844290991713413,-0.0048018808489354095,-0.014388107906983787,6.55
-0.08958147477655669,0.010136994124356704,9.909326327266331,-0.00791194548216411,-0.009736595753120449,0.00044029520422448866,6.5600000000000005
-0.03592995298405587,0.03173602525026372,9.618319797731594,0.009354186844256204,-0.011709457575805061,0.004980883457658974,6.57
-0.060670029229390056,0.08487009952529748,9.76119097706216,-0.0005539112115427735,-0.0021225454802096147,-0.005242373743102452,6.58
-0.05320685419479844,0.08750870661394106,9.662153528426707,0.015790197534584004,-0.003462867023903937,0.013070802661107928,6.59
-0.060917252578166374,0.237638604204028,9.872464160858497,0.012523568522013695,0.004619788464239033,0.008850207132461626,6.6000000000000005
0.08516923875136474,-0.0746513063737523,9.944428179880106,0.008787163570687206,-0.001546450116872642,0.016411035260742658,6.61
0.042953511330402344,-0.0992707506001453,9.855710769267203,0.000315869147613631,-0.001527268538468635,-0.004582900976987762,6.62
-0.01714373869129795,0.03424234593765806,9.875280601980693,0.013773738293661342,-0.002769879039871285,0.0025188533690696227,6.63
0.22639226686207078,-0.08989645026352164,9.795078826304911,-0.015681670802709234,0.023131315065091584,0.00865750862855227,6.640000000000001
0.07522766282996363,0.004812696736278176,9.935829441635873,0.014983162961608835,0.017843946902812463,-0.0016273553276653586,6.65
0.23773150447727392,-0.13850598530666,9.81541210673697,-0.0069300415646458636,-0.001160087832483805,0.006421766371682116,6.66
-0.013124485896114757,0.10162079592310413,9.952910523993074,0.009497693380415785,-0.005943085274633645,-0.008851595629086426,6.67
0.0008818630318819311,0.024291129118850265,9.99647727809022,-0.01729804043967475,-0.0042678109065212785,-0.014927318850644312,6.68
0.08802008754552607,-0.014208814295011064,9.83202389683428,0.01059493360396238,0.01083018767980131,-0.008827570533709299,6.69
0.020413068042916555,-0.0031863965960324072,9.874573754783212,-0.004164601323377288,0.003192400351515651,-0.008079402265341309,6.7
0.08035553249512985,-0.008525497278338656,10.109913303957017,-0.0059902304126315245,0.00286525732516833,0.0034425146489460707,6.71
-0.15749134321426447,-0.04297515586274085,9.6344383199398,-0.0039032447974472278,0.003942127239161718,0.006395120761250192,6.72
0.006737975558036836,0.022381253164078244,9.751867034724691,0.006644343192289511,-0.00328135872562238,-0.0035280053763556726,6.73
0.12828827706194315,-0.001771615767711447,9.879308342867386,-0.007769707511727394,0.0038378090903678293,-0.008224186710274528,6.74
-0.026472322516111837,0.1255771894401337,9.69882284151224,0.003301188995316352,0.0048768921733285675,0.011403840437108355,6.75
0.1047913317672319,-0.04479969276673223,9.764050979486823,-0.0033938480715810806,-0.00035706054727059443,-0.0018317243472126396,6.76
0.038301570660508384,-0.0030370285778147546,9.709471586443982,-0.013169532342533857,0.0010189131346008359,0.02173471501851163,6.7700000000000005
0.0885524372055956,0.03434244923272436,9.947161673043139,-0.020735393208968677,-0.014247281659092767,-0.015983253562875326,6.78
0.1349938261871849,0.08681404355852752,9.693531708902439,0.0037741322690421765,-0.001827395753293398,0.015264550640832741,6.79
0.1283163325323667,-0.09836697765357671,9.96620841427516,-0.006785860048529683,0.013601091014351141,1.8653823974412656e-05,6.8
-0.023975153391529832,-0.06767020077539025,9.852699525857535,-0.005471561587067464,-0.005758862699418005,0.005714072567377804,6.8100000000000005
-0.16788737544809462,-0.11234737570391976,9.843999503684945,-0.014895695268583989,0.009201102332164177,0.015800457495746732,6.82
-0.09606866821927978,0.03811364158354046,9.773810366331993,0.014919220860083255,-0.010069270358056841,0.005134546924122261,6.83
-0.15353979966846495,-0.05907242221676728,9.782505747514296,-0.003211101019689398,-0.013810758870003362,0.008937460187760848,6.84
0.06650795256912698,-0.12371460116202859,9.673405858493313,-0.006394064930865807,-0.00221058673678769,-0.012633453698582535,6.8500000000000005
-0.023253239928995813,0.048571726299093954,9.845430557770095,0.012462677542964231,-0.008956932680737504,0.00850051637370686,6.86
0.07058747336900263,-0.11475134934121972,9.771155584072911,-0.027376798259196755,-0.013215596465867865,0.004254466670256792,6.87
-0.026713041077415157,0.010554485769754726,9.756638730942782,0.008971252762675788,-0.01432189229609435,6.547029030561534e-05,6.88
-0.14697167957660534,-0.1063075510178644,9.686386529711468,0.006161295867466737,0.001246557703220919,-0.00293207429038906,6.890000000000001
-0.17223231255263222,0.19896224282284533,10.01061414280048,-0.010192739168992248,0.00461150728710325,0.009196419288798078,6.9
-0.008661208306861267,0.0408019974544342,9.732367583399656,-0.007798061426427353,0.002606071650646236,0.00540962403151503,6.91
-0.020562538155881216,0.0038157682394436183,9.798937130470076,0.0005579183310436472,-0.003068125591588844,0.014320331924855108,6.92
0.03260520976462252,-0.10033982360685832,9.683725924110199,9.552705669018516e-05,0.01768880483233409,-0.004294980206254506,6.93
-0.023921856184423478,-0.05307814720524373,10.00445631482919,0.016177396714668998,-0.010695904357008292,-0.0021457956173222925,6.94
0.1286866456340947,0.05272286848725284,9.822835318124627,-0.007198851208637076,-0.0003022136465812638,0.02084750785944573,6.95
-0.03234384694753274,-0.0025910175878665056,9.833625166247643,-0.003198541276037525,-0.002937106474885893,0.004658455599579604,6.96
-0.21184013793876613,0.05914540480573055,9.814874272829954,0.00482601813878421,-0.012201621231613896,-0.02301475318062388,6.97
0.027289006096927255,0.1287923792536605,9.891737332248546,0.002694953790876806,-0.0024129516088638265,-0.012249951222604898,6.98
-0.021295352153853104,-0.005728048284701379,9.606612022776943,0.009654064782665218,-0.007154175837145322,0.0067478901841651565,6.99
-0.17333391097929607,-0.02074441425912276,9.906311750515966,-0.008533943335255265,-0.0066224748088347645,0.005547865409746894,7.0
0.12409084795593757,0.021561787810630006,9.872620508277775,-0.0015767604119226175,-0.0017047450755263822,0.004122952761385911,7.01
-0.15227744835870102,0.0978893645054992,9.690662173636499,-0.012112179512112655,-0.0016464932332130723,-0.015624341690152928,7.0200000000000005
0.006615714123166059,0.13966495782578534,9.740292858550802,0.0019605458034029615,-0.0069858296056248105,-0.02180534170378091,7.03
0.20580740334258796,-0.16395359219079664,9.903069387756897,0.014712356420884623,-0.016534803627316092,0.008390651319490466,7.04
-0.18028376189176237,0.2783864234719295,9.899045142444592,-0.008083142630314458,-0.006507668752168974,-0.015764307094963233,7.05
0.0586739854313808,0.09726392066073634,9.865529485534468,0.012879949807741115,-0.004316921201107698,-0.015385550713678602,7.0600000000000005
-0.05362223976807599,-0.11004861006034886,9.759675646044748,0.011521019783988853,-0.005966951778072865,0.005000330796422377,7.07
-0.05388340470178772,-0.10085633673970602,9.825569052952915,-0.0067679838709030805,0.00857443574593161,-0.0066054437863578945,7.08
-0.06392807331307274,-0.0469062914108932,9.926509648589384,-0.0018390995888595896,0.0057690081954481845,0.0007017656442753774,7.09
0.2309586891988829,0.13192289834077872,9.812731289893108,0.005737138496932784,0.010419625632441523,-0.008601923225004608,7.1000000000000005
0.060860382744314205,0.31692015525783357,10.098594067297888,-0.003962895549958549,-0.0008216689926205409,-0.01614789380545026,7.11
0.04102241359580533,-0.02751822179337723,9.83933398375446,0.0048948398287500935,-0.013631194041494425,0.008049793064352717,7.12
0.013867534840274993,-0.10491515227463809,9.840425942901415,0.005768561496364684,-0.002597827739679259,0.011136262363885145,7.13
-0.041940950330106336,0.08066937521846819,9.748787262526998,0.010107646723948574,0.011798226485881054,-0.01049398107991574,7.140000000000001
0.05757853853245568,0.08907768730470123,9.817379568420497,-0.006595649286806991,-0.011961922166880353,0.014393466218534632,7.15
-0.1281092044606756,-0.23284630519651195,9.786787618778872,0.00031856879195745966,-0.0007092631052872242,-0.012012863697451888,7.16
0.03862429829356073,-0.03556888611603106,9.87679992506429,0.0015607431761974963,-0.002835173515623011,-0.009315235398509014,7.17
-0.08426389330286722,-0.0216113815254248,9.907110705314587,-0.015493035951926642,-0.0017493833967664805,-0.0015709504544022276,7.18
-0.10620228627068495,0.07340650093562817,9.688837574214492,0.0010364175906740053,0.004645056270214954,-0.0017023212947865367,7.19
-0.06690948478281525,0.04990741728551522,9.684186104494204,0.01669802642852894,-0.006944615467715989,0.005022750302477358,7.2
0.11800903605542437,-0.04068974402532529,9.850312238097999,-0.007784409952965412,-0.010479272974349935,0.007160411003309505,7.21
0.13458071087811516,-0.11454666432542647,9.735772906377123,0.0024197485072836736,0.005052395078081374,-0.019204854295833504,7.22
-0.04183169541290092,0.15343253529585257,9.89587681128676,-0.00842599348938861,-0.011554670904384197,0.0038090419790979347,7.23
0.06602690557671097,-0.03955855998726753,9.969003066711563,-0.00920200068884503,-0.01383103715351875,-0.014906155928285371,7.24
0.22391769661964564,-0.11728534935186984,9.766607773108571,-0.010899912208822256,-0.0013586225912297798,-0.0037212914264728603,7.25
0.0508228446585105,-0.07415193691011941,9.768119375021671,0.008295907562854426,-0.004817609761725566,0.011992946367252599,7.26
-0.04924943722543276,-0.0032779803106933007,9.823638587565197,-0.00470641493223066,-0.01767394084284051,-0.007627191271677061,7.2700000000000005
-0.14626621819159732,0.004847858417346985,9.8933453649699,0.009970936206120797,0.016812996672486744,-0.0022820204799590196,7.28
0.00547434980115446,-0.05725787116632101,9.768094678350394,0.021236149087921676,-0.00687837238875405,0.0051975263634192175,7.29
0.05599953567523474,0.18566970292458052,9.914533686833337,0.0010962031429609163,0.011914804631799714,-0.009229017365925723,7.3
0.04436331488651255,0.0014198334587642717,9.728630147866863,-0.006782582028565135,-0.002798741963164268,-0.004266673644321492,7.3100000000000005
0.09567759793712952,0.11302309247927828,9.872035900889767,0.0078037701557286026,0.008040335927347523,-0.006400898591438145,7.32
-0.01838102328145057,0.1391407291224824,9.829873101873417,0.007148582952001328,0.008969297636252614,-0.008229167563604365,7.33
-0.02484299327062714,-0.14522399023515667,9.777682965162667,0.002020664011204924,-0.014351184998379916,0.0076067705907101645,7.34
-0.09522366774715829,-0.06689278807895642,10.034617410889506,0.0013525433365223212,-0.006561556058101337,0.004998890462307562,7.3500000000000005
-0.011794161095665353,0.062481577042118056,9.790950607720497,-0.00348619387559314,0.006602520120477926,-0.004312980076339488,7.36
-0.16825490551470978,-0.14199693265112684,9.767190050110568,-0.002490196599469788,-0.0067188850043283215,-0.010113897666512944,7.37
0.08358646534790595,0.12807009521455293,9.974034896726376,0.003893505705042388,0.011765181894819532,-0.00033038791990796216,7.38
0.07611912083169647,-0.031895070483825415,9.88273207755703,0.0067065380396381016,-0.01735733018931871,0.0007699845774936921,7.390000000000001
0.1545507034113731,-0.008772754774190919,9.923728888362046,0.011695646088440145,0.004402555206368346,0.022321657175728368,7.4
-0.042972128283928775,0.09836015921607676,9.731147921002918,0.004433072896573297,0.009530447770201443,-0.004993409476692924,7.41
-0.1221165292197458,-0.19534589471646846,9.84683057398456,0.001495017208519893,-0.00520437630549868,-0.0020981970474076884,7.42
-0.0686952737570599,0.02475677693740615,9.95175505008873,-0.013720501612054395,0.011748807296498694,-0.024922626788035418,7.43
0.003900919564973266,-0.18459978716014117,9.725986953206974,0.006419044811690552,0.00030162624460486684,0.0024038581402791937,7.44
-0.034711774834229124,-0.21450035616052296,9.831989337560302,0.003414355234178242,0.006757310240872888,-0.0060536031175974295,7.45
-0.03524890565328197,-0.16516694400641163,9.774047147031203,0.010429441250206365,0.015455483482664973,-0.012350122029260977,7.46
-0.005642846038848281,-0.06399319703159727,9.74377077043818,0.01893379611059097,0.01707306779371047,-0.016416494862994513,7.47
-0.05210016612766286,-0.10511795304027222,9.696985582692498,0.00038125311489268593,0.007098456029222885,0.009929548017319588,7.48
0.012047737260724249,-0.06333530321594803,9.635846531987532,0.004619654899921892,-0.005776938581088814,-0.0005331571927872178,7.49
0.1553757965270509,0.2035628697199762,9.741333325417479,-0.003161894760310017,-0.004658465745806507,0.0055994060944110444,7.5
0.1133248130122157,-0.119718288203516,9.851162447648452,0.0009138990236979,0.004502127001362178,0.021419699261526644,7.51
0.07641532405597996,0.19267841342409642,9.963230176433616,0.005311216721814468,-0.015153613331180944,-0.005291210387962229,7.5200000000000005
-0.2742734770404014,0.0684975065672534,9.812217626838073,0.005588150608681912,0.006528572322557708,-0.005980187113609285,7.53
-0.21486924271021374,-0.030365893970096165,9.81361626484787,0.008148930798779515,0.0019882740935596942,0.006745733972142908,7.54
0.10039857307551098,-0.15526465345489615,9.832138960168832,-0.010076897500020355,-0.0075853525480152895,0.003547118971366622,7.55
0.05927523236597751,0.05150357450085846,9.676295265278997,-0.01665564569704095,-0.012948870831102967,-0.002627603179548601,7.5600000000000005
-0.08132329844750283,0.04932104496330755,9.693519856346567,-0.0069911739029040534,0.016374381821267964,0.021984816678609898,7.57
0.2116068891767987,0.02090695224033791,9.991815578964037,0.008598126738492867,0.012844971234371592,0.010273703163248205,7.58
0.011953834359928361,-0.1047553650758884,9.870452644342093,0.008637233051385149,-0.004966449742894868,-0.010879817724115901,7.59
-0.13636648052747102,0.0710528203467426,9.893933198072517,0.012780813359031425,-0.003339273538159235,-0.0022965103788245775,7.6000000000000005
-0.1480470040588529,0.09650055088738242,9.911659471814291,-0.023750009180125535,-0.004171031117157655,-0.012244409186253163,7.61
-0.08165619444473239,0.054739725858316504,9.934379985940085,0.008168552423698627,0.0005025674075067651,0.004688836340491665,7.62
0.028696323248838404,0.022145334887547545,9.720081497521148,-0.007291867390871173,0.0024328228199231574,-0.004830804052192552,7.63
-0.07277541927743629,-0.04713786983931309,9.795847468114552,-0.0022685698242285524,-0.02841012355421013,-0.007610582318458241,7.640000000000001
-0.08123807694076707,0.28145253585591445,9.807605485227365,-0.015960979740335505,-0.017014512342678128,-0.00276279329986429,7.65
-0.03256564111196888,-0.2220259495649864,9.788449274208265,0.010267543980961564,-0.0005071047468441708,0.012295442362079894,7.66
0.09274100698287395,0.1234787697553723,9.82800606132518,-0.013755355862194223,-0.005664432421854952,-0.012857504747871062,7.67
0.043569914538238774,0.07194865484420711,9.698516104894486,-0.0067793561897893885,0.004976240955562168,0.001757037158258,7.68
0.01828621752723541,0.10272814166670463,9.879650267810712,-0.0006500410507502605,-0.017586810806194,-0.005644013485154193,7.69
-0.044687900326286195,-0.03240981759425135,9.932955268918988,0.0009247611168688093,-0.0013194693900507222,0.013037319480781285,7.7
-0.061897407814843854,0.14572878436339334,9.766395965491455,0.015331460899929513,-0.003786364231810519,-0.006442716875718801,7.71
0.02753279104335707,-0.043933090081857216,9.67562150306939,0.014396149985015701,0.016603117348378486,0.0022511061248869433,7.72
-0.0025240169860711935,0.15606072578198368,9.734590961258462,-0.001460204303560604,0.0040261244538595566,-0.011670776049877204,7.73
0.18384458184843422,0.021028141662447195,9.748027456531219,0.00993974727111006,0.0024766858378784764,-0.006054114562608351,7.74
-0.028763464558326252,-0.04047100154773225,9.90772808456771,-0.014735795342246377,-0.0021035951383695417,-0.00817082721980977,7.75
0.043261949928819314,0.07980508048698706,9.703625436696951,0.0023561793803209296,-0.004150612103610102,-0.002567242456528443,7.76
0.22046828651451433,-0.030585063822059874,9.66849010502597,-0.001893889652876555,-0.014257203904342975,-0.017189857110405014,7.7700000000000005
-0.026059148549028178,-0.02748199675709699,9.878069673630966,0.00955200788043244,-0.0102394286344232,0.006826156490814218,7.78
0.2277358123452892,0.01469568094275204,9.746412527018556,-0.013763743113921976,-0.004992460866313896,-0.0034533996806036106,7.79
-0.07638938887427756,0.028456679940006682,9.810010166770192,-0.01310576798549562,0.010577708857579691,-0.014471983762990463,7.8
0.06747039613502999,0.018921860236244568,9.79987469710584,-0.012418873122741245,-0.0008217075990200829,-0.0046132264388071735,7.8100000000000005
-0.06645520744970373,0.06981526443869963,9.920887432944028,-0.008867097791166033,0.025235766092628866,-0.011762681944562134,7.82
0.10201806619620819,-0.0671848084965525,9.83158404871004,-0.005601857117474037,-0.007062343762427301,-0.015573295186013709,7.83
0.14659900631493802,-0.11408169527763035,9.691606007723875,-0.004857509372944573,-0.001096062745985231,-0.0021231763168491494,7.84
-0.0761903319177675,0.22013063533154048,9.816314467976738,-0.00048420301394442314,0.004754276760515478,0.005284007614992651,7.8500000000000005
0.03059780403558803,0.14422885115152526,9.79681722866111,-0.005941120969135169,-0.0011291953417707245,0.009461925047074039,7.86
0.04285213484317875,4.70118279108189e-06,9.867697951264418,-0.0008943128378982896,0.0033484153697028564,0.023800285025891085,7.87
0.02314355650747082,0.14226373100969256,9.79081185933657,-0.004052825603608108,-0.0020519669742664775,-0.010375023874562381,7.88
-0.000908999995059312,-0.030090964371726786,9.891279277475112,0.00427640671113162,0.008378680905503087,0.014225431641704261,7.890000000000001
0.06001527994623906,0.16892896925558087,9.932448042485413,0.006975236897851511,-0.015161846757798136,-0.014788791995125795,7.9
0.0603265894000452,0.055520064769807864,9.910673468032781,0.014392861814866039,0.022565100889914046,0.0033007717900397633,7.91
0.12051847185249441,-0.12170632052497513,9.583255397965518,0.004173809748396041,0.02366324974150797,-0.007081337410445136,7.92
0.0008706777564682737,0.19588070271254476,9.77956048316663,-0.007111656049658167,0.006745289782543621,0.00600240658037852,7.930000000000001
0.08007031238506324,0.06025366823636156,9.89206592620752,0.002263099569202016,-0.009554974798451637,0.01007640201453243,7.94
-0.09166601209567254,-0.17282437910430476,9.736332155157717,0.008491591495460785,0.008126404403834619,0.0016789700975848136,7.95
-0.07206189444793648,-0.07767271614788615,9.813762869278284,-0.00020967869632063012,0.0067715748236405375,-0.00221132599862612,7.96
0.0271402095551196,0.13940525693308936,9.934085400336368,-0.008043115108220616,0.00904931995082906,0.0022527885370544017,7.97
0.06587323679307143,0.038764402490139585,9.987885622021102,0.01977058016588001,0.0060392700840871906,-0.013592884775443344,7.98
-0.09621863768460814,-0.20634272862679373,9.913835998345121,-0.0003024381532559939,0.003155854452564218,0.002565511138341225,7.99
0.09396958199664944,0.01162600289128519,9.92603328253172,-0.001793346091280623,-0.01700483861423866,0.0020585121004482133,8.0
0.15117100005375714,-0.04545950515979102,9.7865669802639,-0.004343117567085965,0.00058382859645194,-0.019166703057261862,8.01
-0.12981086719672327,0.04899978202533436,9.81529408048029,-0.0033287314696715184,0.012350930132232247,0.01398052861977237,8.02
-0.017163814385401818,-0.23453400885744258,9.826577860245546,0.015919852715435452,-0.019407553357583242,0.0070681601405474985,8.03
0.011310423162338327,-0.06452142425418507,9.781935557668776,0.0055324170662,-0.0037770736503795537,-0.0013443282537382324,8.040000000000001
0.24641902096120966,-0.03331147963507301,10.025567369873666,0.004769237675807264,0.002697042061341694,0.008676325365166259,8.05
-0.026236285849302227,-0.05470639708767186,9.73308896531575,-0.019077537771010525,0.006161422033236388,-0.011473101478532963,8.06
-0.10348949464845421,-0.06442560847856679,10.008768062153083,0.001165825503038558,0.004330580926069519,0.0031625251460795333,8.07
0.07589423062754447,0.05922945890761321,9.938497334595533,0.005382623964663062,0.006103217673027034,0.02648234704650996,8.08
-0.07533690648536677,-0.1514264806061356,9.745645154348558,0.002035590408033372,-0.004808039860517299,-0.009094226181368495,8.09
-0.16012706660174514,-0.012365875304205938,9.770191155425051,-0.0015631910405380406,0.0021095218539705102,-0.0061029926395599985,8.1
-0.2777001384528421,0.19630389681570531,9.816016801171715,0.001775538202139857,-0.0003810575589360102,-0.005420170837053476,8.11
0.018368987296627715,-0.03261698712775473,9.910225664451243,0.008611746319065885,0.00953474408542161,-0.0028368925608294356,8.120000000000001
0.08265472848730498,0.010230754099414423,9.792595491591879,-0.010734218601938468,-0.005533388179858485,0.013202046190652232,8.13
-0.10886766510247936,0.13103166037956887,9.892539527491996,0.0019881425612927484,-0.004773588394225799,0.013500841963954234,8.14
0.08040619828420292,-0.23944793423354827,9.921778045148482,0.00830525846832796,-0.013157333952122348,0.0031947933531931284,8.15
0.07980671378537074,-0.06362186277674471,9.758724995483824,-0.018867904294270377,0.002365022096907335,0.005745924812563054,8.16
-0.04397846307716111,-0.24430998026075465,9.873833730812354,0.0018170910293845621,-0.0010856154607660588,-0.0005676066611141121,8.17
0.1760341132227562,-0.037096486445226985,9.78655282394385,0.006648530554043958,0.005032961389333199,-0.025501754824561264,8.18
-0.11781105568085802,0.06838062490541601,9.798779172636994,-0.006500369848249497,0.0014562319797421022,0.00023270467057367168,8.19
0.10251598093383377,0.22317874889640266,9.701424290603159,0.0068470420530749474,0.009195159075111443,-0.007333478388632733,8.2
-0.0667948745193227,0.020150082771386614,9.87265993208643,0.0005303313972869519,-0.0009086053625745865,-0.0027667191005527943,8.21
-0.07965078734049084,0.22838380477930614,9.904837805901549,-0.007601087715524994,0.002078433203512656,-0.00022390065000342082,8.22
0.05368711394321283,0.08548060129123353,9.75219122052473,-0.004636464694214499,0.015288925077212379,-0.016062632911995233,8.23
0.028934915322264484,0.08222819533556186,9.940989205636832,-0.0026898248411221593,-0.00100323379813111,-0.0035557028022921095,8.24
-0.08564826962141125,-0.11635285823746887,9.899154946499705,0.010491500650466503,-0.024978598215524377,-0.0025432077444529698,8.25
-0.18380630350722532,-0.0002736542361680309,9.910423950321468,0.01291133246027451,0.01461725393998067,-0.016566191932550007,8.26
-0.06721525600264071,0.014099024454409451,9.794267516425899,-0.021042505022418143,0.007011694503159344,-0.014574057451709706,8.27
0.03732273744220216,-0.049863960217811996,9.705657309091809,-0.0054971912871362785,0.001270880675974186,-0.0036124723053491473,8.28
-0.026586469230482763,0.13417807284905672,9.803913711121911,-0.011576192828838051,-0.0268883621715032,-7.475982283952738e-05,8.290000000000001
-0.13375115117976405,-0.15024399191819526,9.783252040584085,0.014337968450811232,-0.006359855604486261,-0.003776087122230055,8.3
-0.012716753187868697,-0.10959244467500942,9.800653355520334,-0.019915810819529776,-0.009385941314770944,0.001328699497288887,8.31
-0.09272965915281475,0.13134198946324546,9.647301684978023,-0.011142574679161884,-0.0017101320722490885,0.0005118868032951017,8.32
0.15689254086094906,-0.05468524982885207,9.891775554989277,0.001042511041081259,-0.020441953010866643,-0.019409375753262143,8.33
-0.10034795202756792,0.11259771299785773,9.864408963589893,0.0017365017786925168,0.013568735816368185,0.01040828509651226,8.34
0.03265259411842694,-0.0002760743180260246,9.821379718359672,0.012451107675811448,0.010615759758759292,-0.01890855824886765,8.35
-0.020839264862484233,0.012427950012552516,9.724074215421242,0.0063939084116997605,0.0017198581615237435,0.0038446437404651103,8.36
-0.03731945121233678,0.15649786978824537,9.995539509104841,0.00938177546374217,0.004442508192684353,-0.02042809920338103,8.370000000000001
-0.03601751897609839,0.16244404533679496,9.824148574436068,0.004290511581921116,-0.003266906475579765,0.00345617571306504,8.38
0.043610720857023805,0.0034955533198026568,9.811503874750052,-0.011092103265956523,0.007233237131320426,0.0025678767746378944,8.39
0.12005172332581959,0.007948782370676862,9.931414304473279,-0.020909190230990707,-0.009407718107856294,0.0033616178565205523,8.4
0.02851813083650286,0.013131998810229577,9.912691040878993,-0.001692331196111227,0.004328298572385033,0.011522836781113873,8.41
-0.015485445456948793,-0.04707517586382011,9.856722922092,-0.00712439619789447,0.004362372066011811,-0.012097212242718074,8.42
-0.009712698424152698,0.001316487780294475,9.904614891648674,-0.015896028215564267,-0.01000272211993017,-0.009021808399656453,8.43
-0.026981798250454686,0.04756388364899363,9.86154837919731,-0.00607027278005318,-0.0019346738809559517,-0.01591923209901646,8.44
0.008395846215531431,0.036238944986491356,9.661350624408506,0.0012302339060639013,-0.015478457817300418,0.0017853265663206742,8.45
-0.0728258448424303,0.10818489414292887,9.791397867934283,0.002978491263222049,-0.003872906860646244,-0.014149637038671338,8.46
-0.07345501647161454,-0.23100140261348404,9.766749330448816,-0.022287682737444192,0.012422116117059548,-0.007483770628500537,8.47
0.055619802554499526,-0.14673223294556556,9.876706405194097,0.017636085423151055,-0.014224094266734946,-0.005331104321451329,8.48
-0.2096559047383344,0.14652126693716783,9.80199978339578,-0.0008964543915307174,0.0012801426389276926,-0.006238363946182371,8.49
-0.0626208091487309,-0.02489742369114902,9.78433998155065,-0.011303135746804983,-0.003207191822820905,-0.011618413827877183,8.5
0.050605019722022374,-0.058285879221232254,9.776921004838226,-0.012574184747629643,-0.0006818219266829739,0.01132220166831004,8.51
0.10586884356056353,-0.030468767151727146,9.76872549638698,0.01936774313418223,-0.006047209313134855,-0.011819477943786447,8.52
-0.16334087944226908,0.09075231906008374,9.79032498202889,-0.007349620002533707,-0.022249861334214537,-0.015850270895684773,8.53
0.10872425164700279,-0.1161900434884961,9.814991761594932,-0.002420739709025511,-0.0031895551639097826,-0.0015898670153971287,8.540000000000001
0.005920422310324824,0.040044226845809765,9.758827546088371,0.007353738707513045,-0.008115123307336136,0.0027634943457125376,8.55
0.06167245009700315,0.08655001706176024,9.929107178674752,0.0066171229144139435,-0.011611622624885494,0.013648298156157587,8.56
0.024513579746118078,-0.20021280393000437,9.613233555407797,-0.010355796129796035,0.017327757465765845,-0.006127128872456858,8.57
0.07013429842884726,-0.024772813952242647,9.965953873290424,-0.0037571434386392735,-0.003753397190211721,-0.010156603985896849,8.58
0.027454458393299824,-0.04295761823460725,9.971507064818034,-0.00560936481503575,-0.004356965201384709,0.016424740855909867,8.59
0.14751913232560473,0.11489111889978006,9.704312324245047,0.006005042327838959,-0.004868934868927656,0.005202783022119597,8.6
0.06282089183167765,0.030569336530945658,9.976242619085129,0.0006828427800942034,-0.015201877370697248,0.004934388740334254,8.61
-0.03594077124292606,0.07194461994918748,9.738132156323552,0.027111628471150593,-0.017620426481680662,0.0013169283904565798,8.620000000000001
0.12678297557858306,-0.018473674835161248,9.793341900850105,-0.002440355156961337,-0.004629125395265558,-0.0027403591358966172,8.63
-0.11693922857806974,-0.06439766224841462,9.906111626562673,-0.00034147760731165574,0.006581044231872409,-0.008283862142339544,8.64
-0.000853432221490509,-0.08888593517455863,9.793807404560132,-0.011356779020780847,-0.01554628126788745,0.002283651055596938,8.65
0.09344367930294908,-0.08567017295113852,9.815090148452327,-0.012033840865451903,-0.011180335993102338,0.007998150114564784,8.66
0.056991360557152676,0.007567146270939383,9.621512096136376,0.003188987231231913,-0.005203888242124382,0.011360467393828202,8.67
0.08766720586072729,-0.08429907727324945,9.828439679221228,0.000803224666529617,0.001883377973563902,0.005749182904663116,8.68
-0.005407630621404908,0.018074612857994273,9.902353432361988,-0.014796825242278355,0.003795901837070687,0.011877839822535744,8.69
0.12583058109538547,-0.04787787731270524,9.795065963423394,0.004379016879985086,0.001340637232303219,-0.00907086335150036,8.700000000000001
0.05965186981313706,0.032430923246507495,9.925734417446872,-0.002679472630759231,-0.006903333719437568,0.000992551623561876,8.71
-0.07677451316042386,-0.09023592907363275,9.78800756159245,0.0008218777625315315,0.008501498760501594,0.0003469810805343817,8.72
0.020026884997464217,-0.033670960342131524,9.739724929218854,0.0023421927235879898,-0.011145484804635904,0.013196664593662904,8.73
0.19080387277445968,0.10006184910078031,9.799361978010175,0.0051144780163472035,0.0028703090798780063,0.012806044866901328,8.74
-0.063883532209507,0.11248323520288801,9.774824647005453,0.008866527326819609,-0.0029271786031165176,0.004681227966951129,8.75
-0.04707584804438156,-0.058503131444517534,9.867953592629783,0.002134155107956629,-0.006784984352730315,-0.0003421034828190241,8.76
-0.07389082183190612,-0.05995219634809201,9.65754271531915,-0.005196326661973278,-0.00722565350052879,-0.002708070366018371,8.77
0.06332775466592426,0.19130281474938982,9.926854787402316,0.010539051125831657,-0.00685157564387917,0.0146394327776766,8.78
-0.1171377364762261,-0.05009206682387814,9.763409504833577,0.013224296657110581,0.004489005091848783,-0.010407072573777987,8.790000000000001
-0.0023346085213296858,-0.08863334008321298,9.848434798662987,-0.007389359796999391,0.0096417397329048,0.00496260588640574,8.8
-0.054970690666761225,-0.07127547233579982,9.729053931292267,0.00473646303187679,-0.007699762652587404,0.013585413063255182,8.81
-0.04283666838023309,-0.06729114109866262,9.978836008954971,0.003132613383552944,-0.0046850043709203,0.013047689910733443,8.82
-0.06284832273746281,-0.06717657664233516,9.894021588780467,-0.010789126892153375,0.01111169977919846,-0.009675713702778374,8.83
0.048284984810100205,-0.010570479208076243,9.909017746542697,-0.0014558513081143634,0.0007037013438440115,0.013766598735514073,8.84
0.007030799989124441,0.013989513891958405,9.807968668867627,-0.0013055104365096231,-0.00977460021315318,-0.010213060793170508,8.85
0.09552736680712284,0.12412690797596913,9.724874544952536,-0.002374915893484285,-0.002257260866455386,0.004326506467250963,8.86
-0.002031828492103964,0.11109712979935367,9.86643647297957,0.010855776923323061,-0.008409212963380088,-0.018974892609781198,8.870000000000001
0.05848695317236766,-0.0001738703451685845,9.824832223430828,0.01069071332880172,-0.006381199405372201,-0.0031072415604397404,8.88
-0.15964641905780463,-0.16346543089786655,9.77789877363767,-0.0037258950281384958,0.009467099320031112,0.009052913743191072,8.89
-0.11804616928543486,0.01924797777953517,9.850058450089243,-0.00577413045924174,-0.002396251795861236,-0.0001292589004784817,8.9
0.03961830866559088,-0.25043263820180744,9.793524076121626,-0.0016831843421629706,-0.0062597490883445905,0.0028598299750124505,8.91
0.08349237761185911,0.082527119284034,9.752427316042485,0.008160294827224319,-0.005831541742419929,0.0019294707050990212,8.92
0.03368850219749992,-0.07799859642601581,9.876764892148996,0.005511555248413371,0.002223333502004771,-0.004758606840508504,8.93
0.04573686491617942,0.025859832505281267,9.759375396242362,-0.007461150044304568,0.003933074937129566,-0.01327312997473294,8.94
0.01927183329373682,0.03341591562367401,9.776286117297772,-0.015072434259437629,0.008462105368096818,-0.0005207022637088418,8.950000000000001
0.06080238220696282,-0.10068139515040882,9.654850979724333,-0.005831763334672426,-0.0026198673695418903,-0.008285252362359743,8.96
-0.2694091851584625,-0.001456902678591348,9.842641553625354,-0.011357019068876014,-0.0026150905952480015,-0.012175454827858034,8.97
0.09082516340354274,-0.04820428483083017,9.625077364049718,-0.005966398832445991,0.00944965321749652,0.007962482271875411,8.98
0.010718845619052918,-0.018935662628220773,9.792674106564379,-0.01847422431726104,-0.0006256969322801705,-0.007948199965585821,8.99
-0.07517579886215128,-0.11450171657170057,9.960687486974702,-0.0023779166690693922,0.016919097071624253,0.00637658431034244,9.0
0.15684305055543818,0.023954869800760316,9.866075723996294,0.00459888272796924,-0.0006737830958722585,0.007453252830271472,9.01
-0.06020355430368199,0.10616836085947341,9.7064859441526,0.008325876082103858,0.0035037468025429187,-0.006759833675503254,9.02
-0.0720686994415748,-0.0382189394124165,9.687026784425576,-0.011200558324685621,0.017856551634964885,-0.009240779101565613,9.03
0.004763461790286986,-0.07056035721248552,9.893093861516403,0.020773737869047675,-0.016103962148158717,0.003155496716617939,9.040000000000001
0.06844965703792807,0.020862765179879672,9.864279807029149,-0.006520036987547414,-0.01032400736263299,-0.020558285785286953,9.05
-0.044235025567574776,-0.016669557822251924,10.027122084623409,0.009489430979128181,0.000246929116306695,-0.010218461676805268,9.06
-0.0038271648351480957,0.07685549951985338,9.657807902598751,-0.021434486772164255,0.0012294795991753232,-0.0042026057300371825,9.07
-0.03510862120927102,-0.1269492436390698,9.694697063714356,-0.022960408743153554,-0.004781114937246442,-0.010573087007271793,9.08
0.10586523467981407,0.1513842434615501,9.9117111876906,0.005364625723022357,0.002239061174160558,0.007531879015951358,9.09
0.19924603019632245,0.10102716623244178,9.682707364705559,0.01542204905344441,0.009271339517178965,0.00037580604317371294,9.1
0.08638226545698441,-0.2008931861563589,9.887232766047141,-0.0026652284126767,-0.0034997564529820834,-0.006778591363222721,9.11
-0.017535216885945674,0.020186614481989842,9.78935290730712,-0.010920303271540518,0.009264026380046133,-0.004031577842397062,9.120000000000001
-0.01991685375038144,0.11460996992161032,9.697589364402418,-0.0073495203492584815,0.007318092194571591,-0.001975892605872877,9.13
-0.04335336861619985,0.0918952276793679,9.658274947898235,0.006195521182422601,0.00867366308413764,0.005081033408004429,9.14
0.04809246423893612,-0.20969900067096067,9.85909476438268,-0.015381926823195596,-0.01143874196890558,0.01285091720409686,9.15
-0.020993069571143608,-0.12324173638184893,9.903280476740106,-0.0031872617733522336,-0.013824344263768362,-0.007914412391154521,9.16
