ax,ay,az,gx,gy,gz,timestamp
0.04522229017222774,-0.08489151260052093,9.899348690514355,-0.010443985613395275,0.0050633328991299045,0.008778461077459861,0.0
0.016057978044483362,0.026774651292041436,9.906289862165547,0.0005769938604490827,-0.010916790294997767,-0.0028145576000087285,0.01
-0.08525021522387051,0.008657080062696712,10.035204708602594,-0.01750684772377194,-0.005985887245114341,0.005670655996618684,0.02
0.06097275821484242,0.06868483904035189,9.870717642772643,0.005134228155552756,-0.020717569442146547,-0.0024386208610374274,0.03
0.11415690367769962,0.021628564963534963,9.932002485408118,-0.005730336581550568,-0.0058749112271250774,-0.006512552158987836,0.04
0.16581223937016465,-0.05412937155829725,9.773914055774728,-0.023249284132900425,-0.009616804040957284,-0.009052350550670855,0.05
-0.0051773570232541,-0.0508941911511237,9.822413095237838,-0.004394644429228076,-0.002705263189137961,0.010290713428002758,0.06
0.11000653661188718,-0.04855281664313079,9.838429151390468,-0.0060564549453592355,-0.0027877570260958257,0.0034757814437325384,0.07
-0.1694313134364449,0.01930229996451744,9.85142452173895,-0.00942347274105295,-0.008656552638012497,-0.0011071910854171473,0.08
0.0682844817593986,0.0167372732055355,9.83621258491845,0.007373945441929482,0.01552127584544047,-0.018396984691391068,0.09
0.020885744635095627,-0.0374986117943943,9.67046283970241,0.014343313287652242,-0.007862024743792311,0.027544157980037332,0.1
0.11966992153325672,-0.1448912411703149,9.866604741612528,-0.020530644662796464,-0.01364050200050918,-0.00010875705675075406,0.11
-0.02703316543306908,-0.1706066394467361,9.959728538501619,-0.009299819738429301,-0.016440670119678806,-0.0040242656814632495,0.12
0.02993549727490871,0.033344722781346516,9.843292632841742,0.0068529821129498635,-0.01699226650621961,0.018410174617369334,0.13
0.02789814339458055,-0.03189735113481701,9.682614217728764,0.018010196346690523,0.01360244529855988,0.0022582399493833254,0.14
0.05644278272537093,-0.20960520764976998,9.889944997375808,-0.011369528336397157,-0.0038747011250504066,-0.0010539954589510272,0.15
-0.020457741019149284,0.19743758711822196,9.874475044781832,-0.003380530598563597,0.008724688114145802,-0.004138688721820855,0.16
0.0625346523240267,0.012129501207656622,9.763705396823005,-0.005741886377808098,0.0012666514120281257,-0.005010975150530958,0.17
-0.039885845596655777,0.0260134178465701,9.805169729907645,0.014356272899165815,-0.020886082527112087,0.014755610784204546,0.18
-0.018709339948532484,0.08804163875612762,9.843032588106093,-0.01984709078194919,0.0007864992623497677,5.318964574637006e-05,0.19
-0.14845852576789875,0.22391144849883815,9.959235231319031,0.0071065050159406055,0.021423907280552133,-0.006858692634299404,0.2
0.032742482327908023,-0.006885249769127775,9.915927653176638,-0.004211865188533403,-0.006926252038072867,-0.0035329790963054596,0.21
0.08458106823498808,0.08522782115497217,9.771249578165952,0.013878609085838328,-0.0036186246567549807,-0.0002885312969662174,0.22
0.055250290392233364,-0.013449849638128711,9.920633055627121,-0.008272626230288826,0.005548549606910135,-0.0014273718851615653,0.23
-0.00887016052655811,-0.039991659512751854,9.720857473707598,0.017040603196133302,-0.001812701930930205,-0.0013248330623072818,0.24
0.009603347761238947,-0.08398731020506539,9.90004209779745,0.0026530636056490324,0.0016004195536569014,0.005186182042956836,0.25
-0.007138356644147199,-0.06752755912479132,9.836504877338786,0.015368206280435717,0.004238771617974414,-0.0017984536220148955,0.26
0.20122468628964799,0.028057224857404486,9.95943105789888,-0.0022296695878949945,-0.009638083097054604,-0.007160801324274162,0.27
0.004190100243266592,0.03363461289142429,9.741418519070686,-0.009669162258278489,0.019899418240690088,0.0025759718513254037,0.28
-0.2787901997794088,0.12109045986304479,9.817557321384239,0.018453660215091955,0.0035048954425848924,0.0007898270791459239,0.29
0.03825622746369659,-0.03476677735951599,9.825394830934577,-0.00918998376542143,0.0034026269283064683,-0.0105360698026572,0.3
-0.07593409915362724,-0.14824055479536705,9.906652988237127,-0.008070493373135505,-0.007704165479376685,0.0058449982547916215,0.31
-0.13703738549915542,0.13632603629564619,9.862790654918552,0.013462772211879812,-0.005804630972829164,0.017940186437791966,0.32
-0.027872160404301505,-0.09822353540507833,9.965347014610769,0.010521793569416555,-0.006942854278979199,-0.004162503249706423,0.33
0.07303617287069915,0.02180261611358373,9.671298794156627,0.009770381080799652,0.007284811097573981,-0.016449832777974606,0.34
0.08404519687481894,-0.0061754990040621995,9.9796581982036,0.014958983152733807,-0.0025824240857673757,-0.008650082638957302,0.35000000000000003
0.012196463819459375,-0.17316077547902914,9.818299488268117,0.015878661333672828,0.020045574815736728,0.005764576702656793,0.36
0.01814826568753701,-0.20828410294989316,9.671173929911081,0.016879575932263503,0.010286337171102704,0.0006653203996800286,0.37
-0.126889858503902,-0.058791502684114864,9.679224703015551,0.014911585901393336,-0.0033579351456620057,-0.001875309718677684,0.38
-0.0370858604636369,0.21449035048274903,9.873135307383325,-0.01824560974282684,0.007377090347269667,0.020616166955180856,0.39
0.09294010492371393,-0.11148927415765515,9.801308621731991,0.01860237905864311,0.0062898315169676025,-0.003510032039787936,0.4
0.08987293955705551,0.0422256056791534,9.70675004117742,0.003960235519043364,0.011693811349813866,-0.0003655432803516418,0.41000000000000003
-0.024513354183937214,0.0417880098077765,9.898963744973432,-0.015904318991901988,0.008408656279816892,-0.01238899519655868,0.42
-0.09088692313429587,0.0633712302102453,9.881504335166351,0.009828471598473346,0.009266735264549167,-0.027807302125651714,0.43
0.06627342460231324,-0.08627196500483786,10.055091117117621,-0.0029980207881856714,0.014180024273916238,-0.012882790669969644,0.44
0.06801085849762138,-0.07673145444544356,9.79059110431255,0.007458448973748398,0.0016452254476397247,-0.0008201593909073091,0.45
-0.05641172965432473,0.07300027602467139,9.608242064824726,0.00965299384344455,-0.008196314535543986,0.005200271121242194,0.46
0.07831822947404261,0.10303612589457874,10.004080269060642,-0.015697532781271777,-0.01470624261763873,-0.0044935761401337935,0.47000000000000003
0.05441819584254479,0.0935423007230517,9.772540069817456,-0.010189918815653454,-0.0011076028553941497,0.021354856592043614,0.48
-0.01191665327609374,-0.16559857877391992,9.746464890554606,-0.0047215692341662655,0.0059380635789919416,-0.004403263171164323,0.49
0.032855941177772255,-0.005876283800712505,9.893928348317365,0.0022147507005086677,-0.006243867610070385,0.006015716448592402,0.5
-0.006475631626923982,0.014121147630039006,9.652633239811093,0.009477421692667527,0.005900995911519665,0.012622104995291664,0.51
0.12626452337687805,0.09535431369516575,10.041545185223484,0.0035108470353485467,0.0022804858287853915,-0.014874618268360227,0.52
0.052485387055195676,-0.06241814477386773,9.809956117802175,-0.005033262958221266,-0.00977848240964452,0.0050765149613918835,0.53
0.12688053980804279,-0.06843364915613942,9.76196757487593,0.007650215050113612,0.011269769259706328,0.012800340400111163,0.54
-0.05744875417209945,-0.07702983585972671,9.766567785785512,0.005974421686498328,-0.008166267835767085,-0.023750285238593457,0.55
0.03602921373380246,-0.033934242459706186,9.913432356973301,-0.005497740310700303,0.00985115887494512,0.01022071536730172,0.56
-0.07655038314014301,-0.07101678594216097,9.757306778457792,0.02164651020895279,-0.02280930926070014,0.004893839417163516,0.5700000000000001
0.14990748301690654,-0.04112335642178612,9.81534219674992,0.018008030587032615,-0.02030694048707011,-0.01222362696528254,0.58
0.054278563295433895,0.07369077016025682,9.892676658061085,-0.012356759443301812,-0.004654224971357904,-0.010672989076006905,0.59
0.05890174318951468,-0.18249039039139592,9.997815383309293,-0.0026431574159290028,0.0034102739918178268,-0.007514467338536985,0.6
-0.09809576228736398,-0.055776484185708346,9.769331343727712,-0.0123099096343264,-0.025030920507040352,0.005921122223430983,0.61
0.06916840375417516,0.030400720146182565,9.777132317884567,-0.00456207427508812,0.013507972646744254,0.0032159078751038965,0.62
0.13652190541312811,0.02021846004414276,9.899448059090028,0.010744556077863607,0.015586032408628102,0.014391514045137659,0.63
-0.011419492780853087,-0.17808133901727774,9.732881649216989,0.0018997624798671737,0.013514277733731393,0.0035110252329601283,0.64
0.15191466699831163,0.07817971701916916,9.65564334444875,0.004368448039838165,-0.0014989991404835046,0.0035600758830941293,0.65
-0.07384935232966292,0.0039011009415316996,9.854548612960214,-0.008012293738532078,-8.790900041742724e-05,-0.006854958618242924,0.66
0.004064572312552282,-0.06158674471272038,9.722343248340477,-0.003295683598920178,0.016367991755789017,0.01231869692355887,0.67
0.012726895089883214,-0.16733195095730985,9.939812066213033,-0.006163887344281878,-0.004925511007493551,-0.011257338725343107,0.68
0.01783027044773921,-0.06903008240707208,9.762399451471772,-0.007135685572101429,-0.005232323346003519,-0.023069162186966502,0.6900000000000001
-0.07826065182587723,-0.05170881877638905,9.954889833200111,0.018969347957335396,0.004238775823427222,-0.005327934313593102,0.7000000000000001
-0.20304068606527395,-0.0160725320067142,9.773492388671773,-0.013761098698733024,-0.0078063531597603745,-0.012536917392749607,0.71
-0.11666011793676159,0.2242087303963826,9.69890185483467,-0.010101759774035551,-0.008407455801677698,0.015009022764479308,0.72
-0.08687236438567159,0.07853505299919267,9.894021213443377,-0.0072365407253311064,-0.012854130786395884,-0.0016780798518824481,0.73
-0.10335690935679775,-0.05979318014117255,9.960228789858395,0.004207782588194855,0.005013886238733033,-0.0032619714266767146,0.74
-0.09037005613442062,-0.019303129933729162,9.779072992902924,0.024910601911287068,0.016304594879046282,0.012556476801533796,0.75
0.03522514600952952,0.023959086191700764,10.000483755694933,0.03311786709300992,0.005296397819083991,0.002874911986045445,0.76
0.1987689756023127,-0.03780826091993355,9.783837224476736,-0.004625477867606152,0.007129628581736618,0.01386246078015117,0.77
0.08627926484677986,-0.023713269322266375,9.736558924345614,-0.00903155877461312,-0.006056601829398789,-0.0045397881131372525,0.78
0.06375962662246805,-0.23304091966615992,9.965954150713438,-0.006029127358010234,0.00905007060762211,-0.009288563344690247,0.79
0.024071914839344982,-0.08902796095724881,9.712232308966707,-3.473537156069181e-05,-0.0026541887537744014,0.00884267097800127,0.8
-0.009971699507969764,0.1011257515187079,9.983746144923725,-0.0005788901723392132,0.005822784910506073,-0.0002609797158872512,0.81
-0.1165369674556722,-0.06042278627188727,9.744012762954165,-0.00010202407778351856,-0.007663995702346706,-0.004682611119984436,0.8200000000000001
-0.16979685784331996,-0.016223097430366182,9.708075825720655,0.0010401199000515736,-0.010456168127893595,-0.0038588368344410137,0.8300000000000001
-0.06859195438779163,0.10969036112576953,9.647691997175851,0.005941322254588857,0.0016902229240390921,-0.000399264617153366,0.84
-0.006853415389907403,0.04917872706155444,9.889101080579247,-0.002920305442887607,-0.009010149026421957,-0.011069118736556869,0.85
-0.06750449750351542,0.18088577859421007,9.8743635216499,0.012719824622274589,0.01852515463365433,0.011341131461990957,0.86
0.009890565486897422,-0.04306781215260279,9.71617500381045,0.0007998111495969161,-0.008232032743459716,-0.0007855982118693265,0.87
0.0007895998558875722,0.18585087230646935,9.81261052557615,0.01145947919634028,-0.0008107016879312703,-0.009432463614207028,0.88
0.020289957207761226,-0.02362903276109582,9.84774206095677,-0.011158304512373849,-0.012815518320295333,-0.002372188333423641,0.89
0.014547665292469609,-0.06921942468586964,10.032218244165952,-0.008395357832827728,0.016594491472031347,-0.005774237829621806,0.9
-0.0050247747559762565,0.2187204823401274,9.901354581309542,-0.005197206525863378,-0.005331457148746478,0.0031740294881872724,0.91
0.05431961627571134,0.08116064007053297,9.917216059072778,0.011639768998899465,0.011207057009890331,-0.009079954516226589,0.92
0.0645373364381104,-0.06204573991261411,9.599540345651434,0.010493679840105697,0.002837781673755117,-0.0010615203332561588,0.93
0.10288743681264634,-0.15349155696616984,9.810896432103869,-5.834719998768652e-05,-0.009952864984059687,-0.006634108390549866,0.9400000000000001
0.03955783607515297,-0.014685718404462532,9.855106655468678,-0.012531840248589476,0.0017197216330040543,0.005661498800675135,0.9500000000000001
0.09043780091654834,-0.012484266740094922,9.818256452308997,0.005063128048632431,0.0019974423111111363,-0.013581541358923886,0.96
-0.15546467809715403,-0.0017390007628941694,9.653415690422493,-0.0019578330503035243,-0.0020639103705462312,-0.0035622876169953644,0.97
0.0500075439497579,-0.018580809991779242,9.479184523212782,0.0009638990402492669,0.016136929822597863,-0.0028066419243783164,0.98
0.11863111546559302,-0.03743150487585999,9.759529104130166,0.008899632026309652,8.303731788299886e-06,-0.011267520892700642,0.99
0.0595671177988997,-0.17384890717798246,9.837876485548003,0.0013306198639587321,-0.025374150466808982,-0.010790897320328811,1.0
0.03419843492198527,0.12929285568967705,9.796273693480444,0.0017616782785090355,0.013837497967228628,-0.0008635042177652943,1.01
-0.16658016661923106,0.06409432352987525,9.824652631135734,0.0013444243408332404,0.017137194204554413,0.0057736824182805235,1.02
0.002035934305244767,-0.02723773150942871,9.675904889165427,0.016355112372210323,0.005303837495578441,-0.007189336025972166,1.03
-0.036125386982980526,0.08206758496818824,10.132946706338641,0.0037624785717301906,-0.013126137879804217,0.022566297159646465,1.04
-0.01938261602805526,-0.14678044061825987,9.855086524417231,0.0029336813233409092,0.0068188960956138195,-0.02097350758018466,1.05
-0.03978381053357865,-0.12254293592615235,9.76413652708006,-0.002993006852910034,0.009717107537508471,0.00110734733750604,1.06
-0.14852629651428792,0.10081883656904,9.873079723987868,0.004813688409990406,-0.002765280290996393,-0.0027416632624209913,1.07
0.1985408651368834,-0.08671732573303821,9.868443783701736,-0.0027456389187862184,0.0019076548467951116,-0.0024650025066030212,1.08
0.08551620484170425,-0.13479102066039092,9.736275521826132,-0.0025315761286308193,0.014466614782986229,0.010262759070175513,1.09
0.20604646326074616,0.12706446590940051,9.652290945334224,-0.0006979853737192183,0.00645844877430478,-0.011428578686193621,1.1
-0.07021479673511788,0.2429258607056721,9.866280181393606,-0.007658159843201977,-0.013465368378482381,-0.002897269136352478,1.11
-0.03636276624291772,0.171332257396081,9.84701305167897,0.02659311915566557,0.012399465792466606,-0.014805629894258984,1.12
0.05546701899552523,0.06008590506896671,9.78945751033831,0.011240460482792607,-0.005390533302614995,0.02007029370637143,1.1300000000000001
0.08815872607906873,-0.06619609028487605,9.713231589629421,-0.004776053002197685,-0.004635687461467959,0.0018857470060325864,1.1400000000000001
-0.04271319227228862,-0.1204607646608648,9.693846006006577,-0.004008014173887599,-0.0022046254537328616,-0.012120556439910233,1.1500000000000001
0.07561716821310807,-0.11105892266659759,9.816893222197464,0.0016792972844186604,0.0006197159163067764,-0.009851478120434057,1.16
-0.07846583094116019,0.0006387262179686742,9.801066400040014,0.021908649362253535,0.007279158746721437,0.012185569196451718,1.17
-0.048219715461816616,0.008501062037284042,9.76402819320701,-0.00974504849712716,-0.010495899996709204,0.001465227569459564,1.18
0.014705843366636535,0.18326482793787988,9.904429429962267,-0.013419858949735642,0.0021067517889434184,-0.007139525622484963,1.19
0.10252628328806027,-0.060950912616780144,9.823892351055164,-0.015161595909478763,0.0065713731981184055,0.0017830644829717537,1.2
0.03619719128377263,0.009159333043637962,9.741420320311637,0.010765236391576026,0.004064571204826854,0.005095696651581477,1.21
0.11354765379966841,0.16273855535115406,9.861347639357815,0.005405814233492941,0.003814376068074227,0.008035267151493419,1.22
0.28270001180559645,-0.1590704387094591,9.824413199726282,0.008239731072244419,-0.004081993876433784,0.012879465732814087,1.23
-0.0538857749631973,0.018522943802904247,9.836694721410618,-0.003961612720309172,0.004388457352824027,-0.012708274611287053,1.24
0.0922455821333823,0.06674982590681526,10.01451374194041,-0.00397264448802342,-0.0017071186789396537,0.0014571175975201345,1.25
0.08791232868822868,-0.004386738504580303,9.846345113816085,-0.010869556618405345,-0.0006034997512869074,0.009226604786336537,1.26
0.009738646831722236,-0.13393443054701867,9.767110134577617,0.0005845702901259424,-0.0042649797702577945,0.008589100798236063,1.27
0.02985751212634441,0.08003483629102137,9.862953764817846,-0.013917102426411886,-0.005427454911248178,0.008377245059327272,1.28
-0.06752560576817616,-0.11849324110933711,9.601876558060448,0.014087239409715673,-0.01244852244545164,0.005128653053189512,1.29
0.20454697192180393,0.11935439777934072,9.985276102323054,0.013374925046030441,-0.007101255071688818,0.00566519097877613,1.3
-0.3443804851569141,-0.07886341932706456,9.728253896443666,0.0007236771418394419,-0.0026493814889906172,-0.007716844216959858,1.31
-0.04887258876684748,-0.14495866722158587,9.746992737481724,-0.001044361931324735,-0.01094019174130855,0.01921423604473127,1.32
-0.11170098587721755,0.036597358945246024,9.809526074983829,-0.009708112504756903,-0.0111936901188435,0.023914272793402837,1.33
-0.03809593159822533,0.01048709398941031,9.630760042401715,0.008984570343406741,-0.0029520974941672114,-0.0024337563667877326,1.34
0.04501503212719783,0.10674753361954435,9.771374668819982,-0.005526849403264105,0.0031069697214295977,0.0054002699162915245,1.35
0.0733442004074442,0.10930740147417853,9.824497790364552,0.0028047408580451527,0.00936419802194722,-0.015553729087790813,1.36
0.16151195630107718,-0.08011054300207908,9.832733378068859,0.0010609345026670054,0.01337392462122039,0.00573190711013462,1.37
-0.014718652777567785,-0.129741977438131,9.854062250124324,-0.0026598530294853102,-0.007707819630878719,-0.000839368549723359,1.3800000000000001
-0.1075976541501858,-0.0017435350056363517,9.845724266302629,0.025395236769538185,-0.009433756085646621,0.0031291802615926144,1.3900000000000001
0.026583787323903787,-0.15880565841524175,9.940125381207562,0.004267247768910321,0.005624987772699893,-0.0031665942722346567,1.4000000000000001
0.0004743136555350961,-0.0017202769981668545,9.794760235727946,0.0032206897989657812,-0.015211421012759824,0.009804109993382578,1.41
-0.12713338747328215,-0.015910114567702898,9.651709107542299,-0.0006499721772596523,0.004095919798904269,0.0045145330272173675,1.42
0.04488671963253659,0.037758478243529035,9.80138714346811,-0.007024908202575098,-0.005814732542155286,-0.0023609157403758356,1.43
-0.05601944979681183,0.012671336894052776,9.839162492480503,-0.004327940189350417,0.009819986972451069,-0.008344876720998089,1.44
0.010817701820772777,-0.19619950158768207,9.562670602959994,-0.0015187377694712914,0.008132104221801403,0.007586264310685156,1.45
-0.019526220903783954,0.09818065718131386,9.700734326438806,-0.0061559442567272775,0.007612529654579084,-0.014407013629501357,1.46
-0.212647332573763,0.11542306204114001,9.779806406170692,0.0011522704483927168,-0.01835244655814959,-0.012204720904947388,1.47
0.21975051757273062,-0.0972727323383647,9.780811984723718,0.00364363619162618,-0.003999503938934741,0.007962024121222244,1.48
0.0508667540156731,0.05256461280833141,9.903573547636697,0.01653094425301005,0.017780141156949144,-0.005151573462964504,1.49
-0.11474560669253225,-0.11644897146782174,9.566046952064859,0.007078512983183953,-0.002506269275491399,-0.0030132900315401247,1.5
0.00702249572143982,-0.11972836493834776,9.670853215619443,0.020133025588405365,0.004449602523972453,-0.013914910747163889,1.51
-0.11269102654319876,0.032046127080063797,9.728147630045802,-0.002754578818677828,0.008850240237779802,-0.011429531198302414,1.52
0.09301299946672396,-0.12360048792367213,9.914594043261879,-0.011163189518328578,-0.003541586840005464,-0.011836661700279255,1.53
0.04968317718470387,-0.10097222895352648,9.788509165252519,-0.0009159752073869816,-0.01505398589927534,-0.017172955634688875,1.54
0.21245196362913255,0.099135144313082,9.957318938327685,-0.022180015244713542,0.014159028250291724,-0.008915015792550806,1.55
-0.030030824597746076,-0.15642427985273816,9.843041448597841,0.009039219125659978,0.01603659286586611,-3.5192094179041885e-06,1.56
0.13726083125423236,-0.3183927374190336,9.825492525712328,-0.023728084158316218,-0.002461397594387959,-0.01172650655510803,1.57
0.22072662405668414,0.06534773215069382,9.751729697956806,0.01405257753679815,-0.004344856470028023,-0.0022084857031092614,1.58
0.1057680922996315,-0.04461002721910072,9.854261403125205,0.009175089441418198,-0.012924756380625518,0.00539803528675825,1.59
-0.07010056044606677,0.08205776817578225,9.800196680638875,0.012160000849710303,-0.026848711224342355,-0.0016017657183694711,1.6
-0.14108668868884733,0.06190552866072744,9.764654527413649,-0.00572765678031548,-0.011742775253923062,0.007634979701493126,1.61
-0.0018920081040689153,0.07450171998404724,9.892164218879037,-0.021031384846948012,0.019244588356521538,-0.012944158958027365,1.62
0.15123435376571898,0.006978795983314657,9.836793390986259,0.011753041007526385,0.0008730779626730216,0.004549502865535532,1.6300000000000001
-0.20112805902028752,-0.1478135842509856,9.8259800179228,0.0070102137000943926,0.010897270531926207,0.008840688906453254,1.6400000000000001
-0.028079304046330557,0.05915933680849775,9.776883133000526,0.006525080909347344,-0.0039008567666216827,0.00817820434334602,1.6500000000000001
0.15611277399837764,0.010340419614966737,9.841544151579003,-5.396022776816704e-05,-0.009422599612832866,0.011028185210801969,1.6600000000000001
0.11682160812767706,-0.052404678334871,9.964285178102479,-0.0007001635378371397,0.0012243914436891772,0.007686275763878421,1.67
0.04097698841321758,-0.1973816880379735,9.751478123421906,-0.01538592292805037,-0.01321949296681171,-0.01316405366811549,1.68
0.08730708061053233,-0.06560378254289499,9.747183770661183,-0.019646367788540498,-0.004354543530621587,-0.014571025270194927,1.69
0.1410145845329971,0.12325484555780447,9.777934395487462,-0.009439072992601893,-0.01029916493533565,0.003469950925887501,1.7
-0.017121610506872526,0.1420934674356833,9.843666923475366,-0.011105984627739025,-0.005701743204889452,-0.013068861650539363,1.71
-0.035842478653524974,0.06777485855818417,9.751683044700764,-0.0016124342715850867,-0.00023259588134031905,0.004593720230318265,1.72
-0.0019394194457086592,0.10148981064768209,9.853262326793088,0.0010718739617025254,-0.009798967717035142,-0.012125571201704013,1.73
0.14639504858080732,-0.07171785502110857,9.931849818617595,-0.002544131964006195,-0.009411370323386875,-0.017396686278397546,1.74
-0.08240453726529498,0.0896143021064542,9.822149222859782,0.0012518414968456214,0.01910697054006712,-0.00356305411353779,1.75
-0.07058548971177034,-0.06394987781416878,9.80862594090475,-0.007508288499256246,0.010562987882771355,0.005384972127922908,1.76
-0.04953319504547099,-0.05576971808951701,9.876913065457407,-0.010572772472698968,-0.02423929118153878,-0.0017070795773742558,1.77
-0.12939040813756372,-0.03593633479356582,9.800295871486082,-0.0009861076436266075,-0.00468429157189018,0.00535657999099301,1.78
0.05687701207013678,-0.04608247157871259,9.899880668288242,-0.033979705176464876,-0.0034778534364621285,0.02377249100180249,1.79
0.017460346358546146,-0.06844201563422579,9.82146890327635,0.004598851867691898,0.01072810234451579,-0.006671324203890993,1.8
0.13725707102071788,-0.03384510529768441,9.69567178458529,0.005173199340698802,0.006140632634391436,0.006255583523878521,1.81
-0.009108191647019379,-0.2770507267729176,9.813689071610188,-0.000725273296731796,0.00027444969001167466,-0.0023950279997032695,1.82
-0.09430946465311689,-0.040551129614326956,9.906459315475235,-0.002330904405686745,0.004445914977120569,-0.010072263638294936,1.83
0.15246347214447475,0.11508360717410691,9.819897302400822,-0.007332331586796298,-0.0073058425622273965,0.014852065775465956,1.84
0.004935881185330098,0.021392032423945228,9.794067536281322,-0.019835923554376033,0.0024887704270816135,0.012383489907093908,1.85
-0.02447328502847787,0.08618052081974459,9.798983617824385,-0.008496789284454147,0.009080774073097478,-0.006112145069727536,1.86
0.012417170577510937,-0.0015966126666385448,9.729009883077147,0.01745510324904177,0.0015681432363268853,0.0026008146685422475,1.87
-0.15060200946144786,-0.06888143989005592,9.812418059246138,0.0037267174530104747,0.016893349150394473,0.012341533437766197,1.8800000000000001
0.006130481814206675,0.07547842915280684,9.694160179288069,-0.00220918713061753,0.0037031565410346368,-0.019936780083387073,1.8900000000000001
-0.018294445462352333,-0.013603372700222015,9.79207627297455,-0.01706609158751556,-0.011304688460358477,-0.0020924733116522492,1.9000000000000001
0.2193601612554984,-0.022659579666069157,9.8814664444518,0.027175607500897328,0.0014951080532826248,-0.0013759488557073354,1.9100000000000001
-0.0633101911796386,-0.04597914300886546,9.807801199118494,0.0025203526763092963,0.0033028793626528967,-0.006956040343915232,1.92
-0.0817023547445331,-0.14842016997279645,9.823918439678733,0.024624953841584807,-0.0025831403817467564,0.007803978141547912,1.93
-0.09505966183293593,0.09551711057516872,9.86137625190748,-0.006199969930544689,0.0026621117543224023,0.0007169969193608908,1.94
0.09431680208582045,0.06946305744007068,9.746549908441619,0.00593137809695556,-0.014124913306101348,-0.007485910799690091,1.95
0.1736444969239489,0.03977118454555133,9.641897862856554,-0.018416377074520582,-0.004298614874719642,0.012220828811896452,1.96
0.02008985262512828,-0.1336470186315997,9.77870160129563,0.003790162892511946,0.010136403032898974,-0.02755095310058443,1.97
-0.06924832202671062,0.08048711393161656,9.866306649756739,-0.029626109319336406,-0.0018447551893853889,-0.003891583444359259,1.98
-0.02187044658457609,-0.07508354548160083,9.985169697966455,-0.0036951453119150874,0.01285884890653499,-0.0014532789822072059,1.99
0.12097382709926728,-0.05081350995963743,9.76280983829722,-0.0024888795655078825,0.006631610227701978,0.01122399547314424,2.0
-0.1434067829400945,-0.05802083108792171,9.778493216305577,0.00520692288891011,0.013389575295069317,-0.004601147598789246,2.0100000000000002
0.12702117933394694,0.05563979729008877,9.808557131645951,0.0022720191603992908,-0.010466058145763535,-0.00452315645185891,2.02
-0.02599685398794145,0.05518102866462964,9.899344639183724,0.007029677236538586,0.005813706276214303,-0.01917457446089033,2.0300000000000002
0.12742987024968794,0.01243051339927037,9.572145607119294,-0.01326880856645997,0.001030891934365204,-0.004851414912168348,2.04
0.14364296957050618,0.08323127619259545,9.8075169392235,0.008274319589290932,0.004830422799303546,0.005301841507892257,2.05
0.05652983144640892,-0.17976764810524626,9.798069730418609,-0.006851048597141464,0.006140955079160773,0.005871856251370552,2.06
-0.05478700985670686,-0.013611528183267036,9.831493178129621,-0.0009117439334772019,-0.016730151933803564,-0.017344392927629366,2.07
-0.015531277210217338,-0.03837392885317603,9.976593837617768,-0.003910367381373816,-0.009402532141336498,-0.002346874942228514,2.08
-0.06223555671367823,-0.06586742538738366,9.906564409929489,0.010130634239606352,0.006022099270321997,-0.001912442077261408,2.09
0.04378370848932951,0.02612358013886698,9.828480401437565,-0.006601286884460973,0.004581163144086535,0.007366403625628907,2.1
-0.009878940518949424,0.10685019755118341,9.917580933281185,-0.011545151732001603,0.000795635042824745,0.005100683914970535,2.11
-0.10994557247521175,-0.0170972645594795,9.816390237891591,0.010082435696756709,0.0023729276075652476,0.006602032136242646,2.12
0.019720016270083546,-0.0020661392760048677,9.75845756011315,0.002100018073239067,-0.00519495944119122,0.004561120814549175,2.13
-0.06296343545518583,0.18640555973898343,9.764597480699143,-0.029202292671906972,0.005058834365262443,0.01534468396480801,2.14
-0.06240066164713597,-0.14148851416244243,9.95867111745116,-0.010730167317807258,-0.006850072964848341,0.0005033135817573814,2.15
0.05034770432112337,0.08055576065009658,9.916505121062837,-0.0061337021242959455,0.0006632881369567007,0.009028519023173911,2.16
0.06621271308985059,0.21011686163016013,9.586864279700471,0.0011213216100044287,-9.067021201712263e-05,0.005040609205350719,2.17
0.1870308173453832,-0.017212522395559336,9.830852339931228,0.014967649816380846,-0.01295992683977252,-0.009766659095775804,2.18
-0.08102506099038886,-0.1125624517885542,9.883023041158484,-0.0008893977809014597,0.010292507724450402,0.00813491046506626,2.19
0.07194395979204138,-0.1926009199726168,9.651644257417372,0.0015894621874449194,-0.004276667937372332,-0.005845632902254612,2.2
-0.013016457707873958,0.037620569756457674,9.73881906988195,-0.008012172336711991,-0.008444459704296942,0.018684713276474373,2.21
-0.08507010607910787,-0.08920093920996833,9.911572191583522,0.0010607291103090488,0.004795692622214015,-0.004078152209303234,2.22
-0.059641313108208804,-0.21657254147388827,9.67949970061692,-0.009512927687392005,-0.0032044926269981055,0.00117861953679237,2.23
0.07296838303414653,-0.0025044711707196167,9.87760538721044,-0.0042120135451508625,0.0023333818858342105,-0.002378575526183822,2.24
-0.057202659546641256,0.1232369834156569,9.893226422838332,0.000364248351951392,0.002207925077837503,-0.017660873120936362,2.25
0.036502056745529754,0.1265461932093156,9.780517597910892,-0.016585098168291405,0.009549695894702141,-0.00044503796494758247,2.2600000000000002
-0.055187343565964275,0.02217959110806373,9.73294458795647,-0.0034483070856861885,0.004389857729752521,0.0027396689123253743,2.27
-0.07304921531960804,0.11970263661348016,9.831870977528396,0.008080159876053927,0.000491064676969373,-0.008537073623222648,2.2800000000000002
-0.04916965676229377,0.04274279096765497,9.646637613769663,0.00417420544625885,-0.008181259956087176,0.0237036531249092,2.29
0.01777358277495043,0.02318720582517191,9.694941660892768,0.02200642488599431,0.007550152533932708,0.007135622573680851,2.3000000000000003
0.06700920455875059,0.15448107982809342,9.841442236482976,-0.005642162667109195,0.01154241528169173,-9.594524587465621e-06,2.31
0.04986608459450559,0.01347899658358763,9.669531930637564,0.006973342018384109,-0.000146652376575369,-0.00574922363768422,2.32
0.07369199355567946,-0.0343188119077926,9.948299419849729,0.009657536049098029,-0.015349701127228624,-0.005707070282348687,2.33
-0.008957376487602316,-0.055157506218436625,9.836786796583931,0.0014943431300757546,0.015950799713358842,0.0037583932173248296,2.34
-0.009893326371818851,-0.09679451254490079,9.777984143069643,0.005627330408192168,-0.006810140716854561,-0.020625426934894626,2.35
-0.09797584882148132,-0.0180844349659494,9.952767398538713,0.009925226638567665,0.0021414396637412566,0.004716126507151186,2.36
-0.031350004672398346,0.1148743355166888,9.939213524497681,-0.014027523140484128,-0.003047047250115608,-0.0007331204735698283,2.37
-0.07541264476599349,0.10172171539589694,10.018932268835567,0.0137721648165077,0.00373487735903514,-0.0008703257015185964,2.38
-0.20380089175044783,-0.01784472702383388,9.845523569022369,0.002853720945556564,0.012227890967536322,0.0016418067898901802,2.39
-0.05858826380017584,-0.09638832937137692,9.830049438278527,-0.028933382815631733,0.0059807111152413725,-0.002140159615623757,2.4
0.028672484951858215,-0.01257864897888558,9.787074628656251,0.009313376836184951,-0.0036877471490393654,-0.0065472748631375645,2.41
0.1521684696359925,-0.08941169886521773,9.774993982250708,-0.02317256911827267,0.007577259626310184,-0.009755957091822708,2.42
0.005977903732550885,-0.15856537758456773,9.81802707695456,-0.005329482746969546,0.014311435649564249,-0.0059781037414166184,2.43
-0.08384185766682321,-0.18000959606884062,10.030637715062712,-0.009708211470397866,-0.00043062454011012194,-0.001739330985453163,2.44
0.011052145063285,-0.007519145437840106,9.913909674171645,0.005545453501121742,-0.003755935573940178,-0.009118428739882847,2.45
-0.09878629404644718,0.11066031320483286,9.980497637519873,0.007853613413261306,-0.009173634637376612,0.00012861038451259373,2.46
-0.023503514232254823,0.05241790273802254,9.651806177759925,0.00892250776509844,-0.0007639902641490188,0.013309619444478143,2.47
-0.06434498200176374,-0.1334140219526144,9.929868137841549,0.01166866923823002,0.008594364014631971,-0.014016369161392497,2.48
0.02955861010293108,0.00035640781443263303,9.883236661820044,0.018234412390755166,0.004257336055393284,-0.012846928946674947,2.49
0.05371248222797073,0.1153532633912793,9.611697442106033,-0.011618390327750236,-0.018855727149984364,0.0164340129326887,2.5
-0.14204002779560926,0.0826477513670732,9.891829406126796,-0.00928366951423936,0.006211122477441345,-0.01037482624947986,2.5100000000000002
0.11630500082415735,-0.032767357759820946,9.61619247092466,0.012312055547129155,-0.01320830935838383,-0.01110850237690958,2.52
-0.012497977915066205,0.01915667373705188,9.816685609754838,0.004128256915545598,-0.001693830312552651,0.019802746257933247,2.5300000000000002
0.1444541979362825,0.22759819515707147,9.695631725024178,0.006161455068090622,0.0015476327898697746,0.0031298629283556013,2.54
-0.06952223688490794,0.1426858860640536,10.027802535216049,0.005386321090489642,0.0015798380305290657,0.007974025683323895,2.5500000000000003
0.18670126499564182,-0.1214038806099471,9.697256280237799,-0.00660674452473367,-0.0017781836490748432,0.013456393629532933,2.56
-0.09532447149183922,-0.016466310339738256,9.857916304521517,0.007093193428625167,0.003999247550834097,0.001538846684128863,2.57
-0.036465827596598575,0.04396299921761662,9.884824390228937,0.006887921102659574,-0.02289764973363032,0.012501119558256748,2.58
-0.19369565633538993,0.09616445367516001,9.839740866804622,0.004412127823893975,-0.009029300794768548,-0.004634986963905135,2.59
0.01815034245775093,-0.11918233866916504,9.684418803589491,-0.0070162966323539175,-0.005002421676219364,-0.008986100873077975,2.6
0.07990740014463156,0.033404218472661895,9.97289262511528,0.007793587989273627,-0.010117166933665172,0.009567004105202998,2.61
0.05625867332075044,0.02319767593914477,9.750377326969417,0.025894483396514956,0.006554449600518182,-0.008218341905141969,2.62
-0.18835109550953621,0.04543602865873575,9.947636898708659,0.008613753683663787,-0.008944137909589353,0.005964946845121178,2.63
-0.025461261486109662,0.02603788133875032,9.761941885282848,-0.007680549003660466,-0.003563431899990922,-0.019808183485080757,2.64
0.1827433388099688,0.02755533507412756,9.808141949545407,0.005813654076196982,0.004732257558879819,0.014902332503414557,2.65
0.1191524758428164,0.1011011334792769,9.807346132078031,-0.017291280889180766,0.01026223631914317,0.013375861775843066,2.66
0.05048272251730536,0.13065886704119745,9.720285156186034,-0.0024967954237952086,-0.011902034525912902,-0.0032960286845516774,2.67
-0.113115835125037,0.001131780850280087,9.865283680155166,0.00862216525708712,0.00834233669326828,0.0039702015214256965,2.68
0.02137391777518185,0.05485706363443929,9.930293163875687,-0.0057028964180562145,-0.0069319850809764025,0.012408256142061183,2.69
0.03616118987542322,-1.4992264888349463e-05,9.692811569362993,-0.021728267954913148,0.001088010310212889,-0.004045523228000635,2.7
0.08579312802110005,0.18227992471753696,9.983019104893936,0.008159430454568609,-0.010171666101298852,0.008507515104471635,2.71
-0.13192048758883843,-0.2840166107395122,9.670431678709498,0.007669456178923156,0.00148694391907282,-0.007672592192435101,2.72
0.17378851940128243,0.03194379303585566,9.753253836520354,-0.0006325412901108968,0.01308920537025296,0.00941052829310724,2.73
0.007777400006055421,-0.06123711939549881,9.697699747291258,6.592677618284364e-05,-0.013612764116675025,0.0006468972127362066,2.74
0.12852936289014444,0.010435800916475856,9.69910232057126,0.008969640847822027,-0.01965422073634169,0.0031584195187399308,2.75
0.05483104470730424,0.015141190011770667,9.839430920839417,-0.001248715818597664,0.0032022471774208485,0.004354479695716413,2.7600000000000002
-0.021452417362258856,-0.10588447219593554,9.774755654869947,0.003391903546896349,-0.006678261390328814,6.675814024716554e-05,2.77
0.1550237389020996,-0.017924776315191376,9.766188604933294,0.01681882666499554,-0.011955826963478876,-0.007789518455343405,2.7800000000000002
-0.1325597781385826,0.06936586935089888,9.885641563393033,0.0003375484853661416,-0.0012830254381131943,0.01956467994806234,2.79
-0.02469810953304336,-0.07092342135282607,9.967208070118515,-0.008759639170495829,-0.006957671155192766,-0.004705732572209866,2.8000000000000003
0.07218172666394214,0.024298375371264752,9.705154770885805,0.0029115153009884476,-0.0004924429149570919,0.0018090473498119223,2.81
-0.14421258087282574,0.006013644971216304,9.883553047123385,0.029985638432803302,0.005260131225485426,-0.014608575252680276,2.82
-0.09582183104426206,0.026239241338817526,9.990142914152303,0.005896415272094505,-0.004946280887177763,0.001301390509495451,2.83
-0.007470440909560477,-0.10166049213595683,9.77093701180708,0.005258926722257269,0.004305662602159598,-0.0002130181110030718,2.84
0.015567020310637687,0.03192970154604172,9.935620741577646,0.006415502806579597,0.009316967840679782,0.0018483330064616276,2.85
0.03423121609647924,-0.12126497146063686,9.822421075317559,0.009421391180216966,0.013638086209039859,0.006129385225884192,2.86
0.024995522739611573,0.08795873896257679,9.806267912579433,0.006789816681920794,0.014432296245797886,0.0059478456986162675,2.87
-0.07811962169331209,0.09719543009713896,9.695035157985027,0.001116198950249516,0.018454554048345055,-0.016076810772171175,2.88
0.1683761266304194,0.0795382835022686,9.71585986982984,-0.0073272871742448165,0.0047005787005897385,0.008348373327457798,2.89
0.002538067084598414,-0.13635230902970938,9.972547953781827,-0.008540645069596193,-0.005660590932208434,0.006764876948958487,2.9
0.04915153148302179,-0.12358450139763877,9.709970446120245,0.009622802488731033,0.005462380119254794,0.0005178925979256176,2.91
0.10032511826618314,-0.0715596108797622,9.941532893643824,-0.0024055389263620895,-0.004677591035414544,-0.006849159149169615,2.92
-0.04683484089317679,-0.06230512762807568,9.727416708393656,-0.01263069291831616,-0.00405045660230336,-0.000719649543416049,2.93
-0.07880553960359578,0.04451413369261742,9.851093867424487,0.00462300087025979,-0.0009669390951829704,0.0038025566925580087,2.94
-0.09929687477468693,-0.14745087416809685,9.949915525075061,0.0028814584559367314,0.005991960701084184,-0.006104642465816746,2.95
0.031645040772269636,0.09139522755752899,10.047426497104183,0.005174771132384213,-0.0064353019224988785,-0.0034600243690268134,2.96
0.05331444015206874,0.032682939419311614,9.714112987920348,0.004814266415221078,-0.0016813854017776165,-0.015365632810822566,2.97
-0.050948177121437024,-0.1408835557751226,9.835068467463307,0.012230923365812251,0.007687744580063427,0.00843543803593328,2.98
-0.011708714752568673,-0.042893053071147685,9.785138462273135,0.007215944980823264,0.015930877978598525,0.010490362419877266,2.99
-0.0986366843176387,-0.058561221375501495,9.685504180063232,-0.0051326355460458726,-0.011788512822380009,0.013519239038168181,3.0
-0.012222695265511552,0.029445186462308228,9.809754711801222,-0.005537806560416608,0.006259318012953494,0.006089671437310009,3.0100000000000002
-0.09110647432879393,0.13377025215968275,9.851362211095983,-0.003476544830021577,0.013429010614880084,0.001527251346158975,3.02
-0.126403361243243,-0.10429041955638518,9.83432481131142,0.018389767177660842,-0.00245997413807962,0.00867290461167399,3.0300000000000002
0.05698501977269489,-0.04005216047497267,9.517052228562468,-0.012816604665725111,0.009528354213778198,0.002945876465087072,3.04
0.008488959246451957,0.05838376643450532,9.705223491169567,-0.01963419553684107,0.0012257344527047927,-0.0009963487976362598,3.0500000000000003
0.1013094857433668,0.03727635613120623,9.885111443030887,0.00027110336653503076,0.006693030744712416,0.002484602621276791,3.06
-0.02980392283989482,-0.08176383348694444,9.782399433880531,0.007495895077136768,0.011968005516168213,-0.001811971908941825,3.0700000000000003
0.1281907186705298,-0.09154134223462224,9.644474636039309,0.026567604385249046,0.006826603676106999,-0.00013273039809086234,3.08
0.06507157171166515,-0.13547779202039442,9.840605431637798,-0.007801660168771793,0.005266970857623922,0.005812140801671225,3.09
-0.06107484491584273,-0.021008791491289147,9.635742157944257,0.0022982922430336158,-0.007143183391074086,-0.009520302805903753,3.1
-0.0665703379667863,-0.19479456679797924,9.880565311565235,-0.013021391367988166,-0.0011388696424948408,-0.007676262909274284,3.11
-0.022444705009647306,-0.06177968550837407,9.746119670095565,0.002056992553014801,-0.000666129595051672,-0.0022561964349318638,3.12
0.07909548569121032,-0.06301154323131673,9.703131933947763,0.004384523132795599,0.0049184836784047685,-0.0034339404059943496,3.13
0.054656749411123064,-0.0014986339128752963,9.74945388833671,0.002947293774347965,0.0004414543962146111,0.0016182429891966699,3.14
0.04992315866699402,-0.025556422819242128,9.873553453686352,-0.013989891902176664,-0.008774150853192601,0.002301857916419207,3.15
-0.06681025133167283,0.14894665574415175,9.872231404857866,-0.005183714113928963,-0.002116715408535102,-0.007621412182849425,3.16
-0.06290609879805963,-0.12425578681097971,9.877087565376506,-0.0066809478547362,-0.007107436872895698,0.0047163203851080275,3.17
-0.06500619907093469,0.02778969591217252,9.867316405726653,0.011629528328756801,-0.0140433437779969,0.0012156314619126553,3.18
-0.10474514076840845,0.05538459961226799,9.920446322836632,0.011333871974804262,-0.011421358875305739,-0.0013426424217954649,3.19
-0.14298246005613724,-0.10352452893731141,9.9270830148818,-0.00786777452698091,-0.0071409790395734075,-0.006079967042426452,3.2
0.23038960965396496,-0.1996088640637163,9.709132005572089,0.00597512312551189,0.0004706012674697673,-0.002620689163894674,3.21
-0.03146024627005027,0.07274132328230468,9.747920355550983,-0.006327727026980469,0.008888874078571177,0.001408796813417911,3.22
0.235255415699412,-0.14924322528877218,9.779042962161437,-0.006454360157922238,-0.0028831333445937446,-0.01004362148593088,3.23
0.04085315831256774,-0.09026113588469134,9.784571790093631,-0.009897188256544193,0.0014665820031439024,-0.0024765209277593063,3.24
0.10477244928517693,-3.550199475195799e-05,9.767153611270265,0.0025193383509025005,0.016640045815586355,0.012027332986926377,3.25
-0.01871970590459913,-0.04321604590439083,9.7855916381678,-0.0014744218690504569,-0.0141782316723241,0.014502753902738188,3.2600000000000002
0.03221897787237495,-0.041578863509123924,9.887393028116021,0.0009873824053444169,0.013471078716733096,-0.006366916614225947,3.27
0.12898348237576332,0.032509160800519854,10.02204992493446,-0.0029030589057248975,-0.0069961493982521866,0.004850670054157538,3.2800000000000002
0.03785517139901463,-0.04880365910099959,9.78950706469897,-0.004060654639251409,-0.001779583822972948,-0.012954690068386197,3.29
0.017903199982742923,-0.040522144804286724,9.883745264170535,-0.000884019205367461,-0.005425851420500827,-0.0005600541174087681,3.3000000000000003
-0.008506160069669469,0.20660441846286434,9.570123373542923,-0.0017459908792980842,-9.496234720405678e-06,-0.0046943322185312095,3.31
0.07149132970062975,-0.3014058562985653,9.755280890548178,-0.005707684728315235,-0.02271281210067242,-0.009016910124396108,3.3200000000000003
0.0037894370315111727,-0.03269429618153056,9.72819899119871,0.004853864627895548,-0.007724625813480246,-0.004526418270845762,3.33
0.07773751400152985,-0.21845857761887844,9.860910127261283,0.0009762015166929481,0.00694152938167043,-0.012745170547964686,3.34
0.03645903391778236,-0.08496827835431212,9.847439131589384,-0.0030740134163278515,-0.011093792399561837,-0.002206108531197773,3.35
0.08909353776045464,-0.04167019413265757,9.77858375116865,-0.0003444309373834549,0.005666059455617422,0.007576011799895019,3.36
-0.1834488018111988,0.2234426871628283,9.833275132242818,0.009140267787833035,-0.0019835579388513182,-0.004561519131005387,3.37
-0.0007720896749292055,0.07922555093289453,9.757779858011194,-0.004964404923224215,-0.004643541517045371,-0.004844803001175079,3.38
-0.14298768454650765,-0.11687261947829297,9.889805345209988,-0.007291050704549068,-0.0030945930072318723,-0.00015228274305703312,3.39
0.17508059359725806,-0.08448587063913243,9.745802186048481,-0.00042702280931087135,-0.0036442196884147733,0.0018763411046348974,3.4
0.05038357581376382,0.06611955885457114,9.857723455889637,-0.015547184732999292,-0.008055244566879451,0.0020039048372983074,3.41
0.1456161552840864,0.1539241054529708,9.84483747468777,-0.011496592356964578,0.017755005965237162,0.013680961151404797,3.42
-0.06449504857159791,0.025866063405836276,9.856182985233897,-0.0012139641989244829,0.014791529085833111,0.0032122476404600675,3.43
0.007913649628057448,-0.09849080190119178,10.021572947005856,-0.018494921292960174,-0.0006264077444179135,-0.009133170673147725,3.44
-0.12685572810817464,0.17400211833757304,9.858359857523364,0.0031641454555110873,-0.0030670839448938437,-0.0027382306429802866,3.45
0.031474106604403834,0.19122709071909352,9.840600809177388,-0.006548280056466376,0.006359326944483421,-0.0077901767114294685,3.46
0.11888039934949182,-0.02796278371237393,9.70461332012171,-0.003046952846781802,0.006418631007136534,-0.0008920844262494709,3.47
-0.21247330346788096,0.1318867561722042,9.84844271122064,-0.0010721463777554243,-0.0026397231637060176,0.009023412087240775,3.48
0.04245422247735145,-0.13471890053930854,9.797211179913866,0.016452082350681376,-0.010154688984984197,-0.0023338871821874984,3.49
0.004758599501425665,0.0113747484486867,9.684969536978343,-0.01771616421751575,-0.0018205865929648494,-0.004560361713910645,3.5
-0.055664757582000374,0.06971672429630624,9.853153396999174,-0.006341199642112312,0.010995522424977151,0.007130175504589041,3.5100000000000002
-0.14357901583115554,0.11944299190619174,9.860480873844446,-0.00029700610421751455,0.0058007303502261845,-0.024015476580277837,3.52
-0.0452188177290202,0.136461281456428,9.80820490064991,-0.01212698941514627,-0.004925588386393993,0.011730111832364845,3.5300000000000002
-0.12149461407468697,-0.1640088787806172,9.721343243360813,0.0008240448402065444,0.00852038717500949,-0.008801779265732978,3.54
-0.06764152337625912,-0.09307371880392015,9.700029403728662,0.002437453591623266,0.01692121954634535,-0.008743923738611728,3.5500000000000003
-0.021508125224626248,-0.06126997250319724,9.964704410449682,-0.0029166519211680426,-0.008085240704180206,-0.005438406465362885,3.56
-0.06184961947675194,-0.1608442855035779,9.957202807404673,-0.010610857247372407,-0.0019652138624640025,-0.007933030402699898,3.5700000000000003
-0.10497431416945775,0.09745207489314407,9.764366042054027,0.0026294710153422557,-0.003023656226483159,-0.00901784348445608,3.58
0.07852972279500582,0.02103497887037859,9.904110991323511,-0.0050782935939292515,0.003910466942798918,0.005054730086551641,3.59
0.24728586539042907,-0.11766945856872835,9.617555129682044,-0.02197839040461691,-0.0063424399797887086,-0.007315245422105589,3.6
0.18788440162583808,-0.10475410453384391,9.882120304260818,-0.03125123160914761,-0.0007023868085239116,0.00025257582678249723,3.61
0.03857215719363438,-0.05537908608386316,9.854792202999853,0.011360359598079836,0.003509260575689402,-0.0071169498276366415,3.62
0.11690254776574963,0.05617029848374029,9.801161515164402,-0.010590666053935254,-0.0011470352317692256,0.01824622437735543,3.63
0.02526156486092202,0.04002306901689698,9.704660100863949,0.0022541109196170094,0.0011571526654256075,0.00770799714328383,3.64
-0.13001942584212042,-0.18018407605044282,9.821182897014232,0.00546265106379564,0.0001949231452298234,-0.007301434983589333,3.65
0.05286319894716412,-0.03419492095567441,9.727716420296487,0.0027285388185496508,0.009370435657436175,-0.017476493725377733,3.66
-0.1046440474185324,-0.030614069836134683,9.810306966382324,0.01923688503679713,-0.00850481131527547,-0.000572439673041037,3.67
-0.03699985861582549,0.02208090364208612,9.67258997407631,0.0007815900787155794,0.004283234746660611,0.003721282133087194,3.68
0.23493172372176174,-0.052695740338183694,9.759249817079349,-0.0009818916123396997,0.008792096513796224,0.003521484741681749,3.69
0.04156347313301052,0.08581702458390318,9.869548499555597,0.0035104418408951348,-0.005704498640701622,0.004707983464283844,3.7
-0.02179057693303193,0.0470048201019788,9.805833519805235,-0.01148535847293783,0.005840373659943959,-0.001663876974002915,3.71
-0.06919448702217078,0.23266414740456112,9.79980507460262,-0.00548632308671879,0.01598086478030668,0.00859078687059914,3.72
0.025999900527806305,0.024829632113585774,9.894091807124122,-0.0016690186355680856,-0.00519618172715419,-0.0017872680227026337,3.73
-0.14533391101001883,-0.04956120977888716,9.804675699283647,-0.0019472018936258471,0.010141130554299913,0.0058917271065779195,3.74
0.09510435377876748,-0.2407368827781885,9.972774255544584,-0.01366095560044076,0.00913367621948528,0.0016887162732393325,3.75
-0.03473266813997995,-0.045877672098098995,9.684356460229369,-0.005079297776485798,-0.004026683056891855,-0.004695253977663244,3.7600000000000002
-0.08035553279328343,-0.11209629566794917,9.755370428944632,0.0056444771837348365,-0.013559570653385977,-0.0024774586174365993,3.77
-0.004780956797113495,0.146611787063883,9.948245741817162,0.004453322778563813,-0.005593670270168742,0.0027498622471388966,3.7800000000000002
-0.043273916794392006,0.03277948405946941,9.820980946360192,-0.004803659711384382,-0.009711953228195463,-0.004519907454464243,3.79
0.03731807546828025,-0.024857010290556897,9.722297618419281,-0.012319197677966366,0.006432872623502221,-0.008477534043846326,3.8000000000000003
-0.06861418164865461,0.14666364631253248,9.733648098538008,-0.003618957503808654,0.023185863471836755,0.0029252349096042423,3.81
-0.0383581149683148,0.2490186399370265,9.870328689704124,-0.005472330090399461,0.027160608353787658,-0.0015612489520256258,3.8200000000000003
-0.002193545832460404,-0.04945125927863234,9.891136439983347,-0.02382060320192059,-0.0012466314665214963,0.007789600982932295,3.83
-0.1688088633519597,0.044992622315970995,9.685702064384095,0.016889964016088516,0.003425836792127752,-0.0017879978981964716,3.84
-0.027775552068380584,-0.0214076024565257,10.029107657222148,-0.0024854974288870523,-0.00976059851140196,0.014972440541810832,3.85
0.03215067484135435,0.0345417675497084,9.76377993039912,-0.010820513941180665,0.025707012557957758,0.008636027447664351,3.86
0.11367154530608081,0.004129506454871224,9.894439559079872,0.0013932436395449007,0.012676734990450236,-0.013439878984589457,3.87
0.07932888089838526,-0.038791682889003615,9.864113499702283,0.004475061171994653,-0.00037313771830959784,0.0039135049118321176,3.88
0.13979833202828917,-0.07834328713048871,9.87403775726571,0.004517513489594476,-0.0022758611117641683,-0.01702846331210435,3.89
0.0020944210344254087,-0.032877348453128806,9.83860311348708,-0.0008657400004661805,-0.017430540331878953,0.009287642571327104,3.9
0.08924378165376429,-0.06780574636111517,9.84295632765919,-0.006894918310380236,0.016958788246135763,0.011766220794577951,3.91
0.20453784516464482,-0.011007332725158919,9.73581257095152,0.011331384463625345,-0.0190806391351596,0.013940005605879378,3.92
0.04051494956436555,0.04947283655570851,9.875747675129752,-0.0066644506456421835,0.004133042905175152,-0.00568348355699765,3.93
0.06743717111220396,-0.04841407157736666,9.901946549734713,-0.013078650358929491,-0.0026146818426882952,0.010993938352282438,3.94
0.100691985646013,0.03991310462543242,9.832297350951492,0.01201103807479897,-0.00850730859668127,0.009246289304730006,3.95
-0.2047413571525595,-0.07491190326159665,9.906537281579055,-0.0159367266951266,0.0033157432485470552,-0.010100367615982287,3.96
-0.011939041313603151,0.075557449300862,9.856178909928465,-0.004793435577891357,-0.0046140480546091696,0.00022950781218603744,3.97
0.09683805921706354,-0.08114096048769526,9.892173937357036,0.005312894008274485,0.013133344110192036,-0.003404368897998057,3.98
0.08140291539486523,0.06069984414073636,9.63107349671456,-0.014730184660466359,-0.004221301622976878,0.015252915277761835,3.99
0.08174955237316296,-0.19435134583639008,9.910763652563043,-0.013308815331741101,0.004249730699831443,-0.011487094316047356,4.0
-0.21207353763038705,-0.0056819751275120406,9.84095379437667,-0.014273011933425965,0.008434753990872438,0.0046942903114167425,4.01
-0.01882736409089908,-0.08106808948555673,9.790035532098663,0.0009436053127870604,0.009632630222021465,-0.016295067057184788,4.0200000000000005
0.05212238652300488,-0.0361421038038606,9.732288572349786,0.015335925052143618,-0.015575630280909459,-0.0012838537187671755,4.03
-0.10915742358554655,0.204085597234239,9.668241714227669,-0.0011434526769419206,-0.007712284068280597,0.009941894288745779,4.04
-0.04054501155131633,0.04713902670386744,9.750328050393808,0.018279686285585513,-0.01191103653937247,-0.00804840381102876,4.05
-0.132569848937121,-0.04404108064002082,9.887865778995039,0.004538837669487068,-0.0008507018286399569,-0.013683847225234157,4.0600000000000005
0.03619448511273845,0.054279905703898616,9.777291131371122,0.014918936328787213,0.006426892775870852,0.014854526658088101,4.07
0.09376688316140036,0.21434837434338344,10.014813834023496,0.010781124296969058,-0.012193001245098685,0.004493571249618058,4.08
0.19424408781999858,0.015116752947623489,9.681457803430105,0.00597825692044888,-0.005564711816112678,0.0039030792291738278,4.09
-0.13587821819963483,-0.012470030945295566,9.634357155898694,0.005810744187754968,-0.004986368801951656,0.0070707375132367505,4.1
-0.116433384229295,-0.1748933256545948,9.804890482791391,0.012852078096386405,0.003453197921711498,-0.006119877090055408,4.11
0.15381399212660185,-0.04248647606407419,9.841178816410643,-0.0005666347714978229,0.0194809277889906,0.0071797160283942184,4.12
-0.15614337545377743,-0.06030779935934858,9.767831421739528,0.014458437877783186,-0.008299549468272641,0.01897580035757788,4.13
0.1474375079725338,-0.05248119519372674,9.746227315988147,0.0030966140932201505,0.00999861654896008,-0.017509495799590793,4.14
-0.10483981019065972,0.05019426248170925,9.81686209266937,0.00858807823456326,-0.003783938855721979,-0.008741320410007362,4.15
0.028108158935642148,-0.11987634121364917,9.719743771019202,0.014177389763473089,0.0021748700624786804,0.0015697632021754505,4.16
-0.02356767024291764,0.0110830455228556,9.689405312361064,0.006468045783852921,0.00801707475716881,-0.004188266054162948,4.17
-0.049310968240998454,-0.07097183624194468,9.796357096751429,-0.010890221763966944,0.002319651291227955,0.013314432027598806,4.18
-0.1290807000682405,0.02282875378934046,9.712905925802191,0.00042846984974890195,0.029778128038993778,1.9069918413202507e-05,4.19
-0.08493333303558732,0.021322911638018034,9.677441691728234,-0.0004762621056976698,0.005410017133018114,0.00020218368188421908,4.2
-0.016896858363707433,0.041798056633904374,9.954148682771079,0.020162824905642897,-0.012507853338420171,0.011550357289320096,4.21
-0.06885301480537576,-0.1818136049787587,9.843069588957427,0.0025567623321244323,-0.0015508431444636284,-0.007400117942107438,4.22
-0.027065828827736827,0.046988267259029354,9.988683876517383,0.019638145934100435,-0.0014189284758866483,0.004670755609379564,4.23
0.10107466981062443,0.008187025178310846,9.83439701220039,-0.006205790576229668,-0.004027432916593456,0.010613932498888028,4.24
-0.017353671050588732,-0.040447179917418634,9.740662850470592,-0.01748999744580016,-0.0052457389431511,-0.014733016011004622,4.25
0.11663537807198665,-0.0574470234504875,9.809377955898269,-0.014582478566933389,0.009807099415505486,-0.002931120040274454,4.26
0.022985302999058377,-0.06291313463912133,9.603410708729653,0.0074226615591382866,0.0063945426249790915,-0.0002896227445558603,4.2700000000000005
-0.005300024835174092,-0.059134749534024415,9.8182157896107,-0.00876641965167861,0.006506599462239613,-0.004645132998261226,4.28
0.0022510998158927448,-0.026004597637308943,9.955016484562494,0.012887569939141653,-0.00716966235669279,-0.009919609676407967,4.29
-0.04217579659943575,-0.00042736899422575003,9.832301190559905,-0.008581027212942328,0.007365900865692205,-0.008362521651792486,4.3
-0.14544045340957187,-0.027558909636785985,9.817343637269696,-0.010167803971955333,0.018475857734821237,0.00015171900038668095,4.3100000000000005
0.10795350926402403,0.0485503594058663,9.86273522753121,0.005412782113242005,0.002682766692748554,0.021037211651145485,4.32
-0.055420860810875605,-0.05334955502213681,9.971166144969688,-0.010513146954923792,-0.019301377968643757,-0.0012919185333698949,4.33
-0.05169601520968099,0.19295865422477532,9.931771504048063,0.01284424814742286,0.008526728907982615,-0.006572157338683158,4.34
-0.0830710756462839,-0.020228661508935746,9.767447499122126,-0.001459885806336943,-0.00517907775242605,0.004634888041815833,4.3500000000000005
-0.09757648638399262,-0.09026263444375286,9.792753103608995,0.01765186866813408,-0.0008974585081989826,-0.023542757620394945,4.36
-0.022573286905459816,0.032822736275076196,9.862889148046628,0.0023775962943938544,-0.008652640664321752,0.010474032428093978,4.37
0.1408653314307692,-0.07024825141737047,9.845148969486116,-0.006274023694301816,0.015932705456091472,-0.0030431882491559815,4.38
-0.07875642141553303,0.12170713426911511,9.982380349645185,0.0010645621379586562,-0.0011690180939385399,0.004051593166993333,4.39
-0.08833827590351388,-0.051245117788031605,9.736918390885798,-0.024096462328555335,-0.00015025978484753521,-0.035549356035572195,4.4
-0.020817994819802083,0.0935265491591103,9.89667348180813,-0.007524883643146877,-0.013502564518004377,0.009431687447475386,4.41
-0.11454620904021501,0.017532916936505227,9.853248770267365,-0.005477226011367595,0.00998812919384142,0.0014432898525568217,4.42
0.14909664403164796,0.06588758986766641,9.76717781732245,0.0027871411582084575,0.0027557342679318383,-0.015063604611184354,4.43
-0.08093910157316356,0.050186669178850875,9.810609746893807,0.0018555593956991732,-0.013166262050383546,0.001308042561956431,4.44
-0.09267813568075366,-0.15135115795582585,10.131940730713879,0.01745416859471747,0.021242948158779567,-0.003187098920361047,4.45
0.15636330559060313,0.19723942704954528,9.824519391650737,-0.022147388445013735,-0.003875631856054176,-0.0007418644583590652,4.46
0.18121609171593694,-0.06827322864373872,9.800487661570012,0.01481598975450218,0.0012209825438938696,-0.005630409133890992,4.47
0.06703720727019782,-0.05287001828819926,9.895280173936081,-0.0005000696588987563,0.0008432839351694708,0.01100391054340674,4.48
-0.22245854290790096,0.030936633178118594,9.668621271653823,0.0034439356522097233,-0.005085672933175946,0.004243463780535344,4.49
0.08040850472846178,0.08492105711295256,9.709673211778874,-0.0005543144367735715,0.019858427340916054,-0.00959083253039231,4.5
-0.07849821329423434,0.18076755454972768,9.886862889701689,-0.004129363343485905,-0.0055624795256350845,0.009785873948279957,4.51
-0.15761800110349256,-0.012099884596743035,9.732781301173468,0.01006238273928696,0.02417674050207086,0.011310621570629176,4.5200000000000005
-0.051971774018619535,0.15430061808631393,9.74984127468636,-0.008828984163890871,-0.009262961729188994,-0.00248727319538418,4.53
-0.17391615102143698,-0.16480234187521345,9.763310460659621,0.008645257463850085,0.0035344094656137247,0.0019580683581793264,4.54
0.0011923167118969282,0.06635282222769737,9.535198242308512,-0.006153721329232589,-0.007915046038809204,-0.00721168221665565,4.55
-0.21496106978072804,-0.06132793121948924,9.7383534439084,0.010992546307269266,0.0014360824387968118,0.00456115710161402,4.5600000000000005
-0.04795813711637489,0.16244167105006785,9.733535044882677,2.638031584038969e-05,0.001502116514743856,0.0016317588681206197,4.57
0.12032323156245968,0.059206143220347666,9.738690720580506,-0.006624288346093422,0.0003497539337593426,0.00815565558760037,4.58
-0.09704677466800804,0.07170282166900933,9.81416666250934,0.009251961083242988,0.00857796414496615,0.01329039540201841,4.59
-0.10336092758202378,-0.13157171598030828,9.794905345203027,-0.007536807148289082,0.0018532951225075475,0.0034619599225327235,4.6000000000000005
-0.04145093618891112,-0.026595227037290343,9.848628399761893,0.017246358843226114,-0.002293935946743777,-0.005250520040542061,4.61
-0.11151854901405428,-0.04008538991484621,9.700836041252085,-0.0009572937271849818,0.011841960778274497,-0.01160019321324824,4.62
-0.0911755179821359,0.045658285023467964,9.891357451985854,0.0019330152213819654,0.001112678395521723,0.020202630742842596,4.63
0.10000442508569443,0.07069963209605698,9.797076376793786,-0.010432151575343227,-0.01778826049515006,-0.00445316186116095,4.64
0.026118595114874056,0.23838625101233468,9.878558015321193,-0.013357407411959373,0.0031488942630870697,0.007577538420127449,4.65
-0.036040935596169416,0.019777641367293847,9.83348588315613,-0.003071071113105232,0.014620908471287558,0.003768091471943426,4.66
-0.043485190083214435,0.01672147804024928,9.726621901890049,-0.010812814327139904,-0.007127480485589002,-0.004840764417123595,4.67
-0.08386580459935179,-0.029711053506525892,9.835296154862883,-0.010626645312597242,0.005379856046757538,-0.003317936521595589,4.68
0.02721338095088215,-0.08598942538061582,9.838547918218453,0.00797026594099604,0.022107749224275372,-0.01041110575779036,4.69
0.019933617868198274,-0.025294200521673995,9.831586968333012,0.009803197127477216,-0.006618103656047635,0.015308617567068571,4.7
0.029756030746745932,0.0806295659772767,9.749200629753261,0.003035694464706911,-0.0072985466363075305,-0.0012405030771076198,4.71
-0.07791108500003985,0.043062849756647724,9.660398255543122,-0.007655263024352419,-0.0020998160697506844,0.0050001915367825145,4.72
0.22864364843753462,0.06715931780022899,9.748603524414763,0.02771571526201777,0.01648900960979275,-0.007912573378310299,4.73
-0.04116581256408008,0.014941967739417392,9.747457359329019,0.021050730013726888,0.008502755867465935,0.012331332071276808,4.74
0.0355858375332539,0.06358995174552912,9.789521971477091,0.01621412343804427,-0.010212145746770816,-0.02233795252224479,4.75
-0.12392351089957553,0.032136449394747545,9.83575051190146,-0.012232560681593604,-0.003346495173997686,0.008423260327777718,4.76
0.03210223155811553,-0.022710489776079288,9.88587910536774,0.005729927031518443,-0.008326815837713475,-0.006552315366200815,4.7700000000000005
-0.05498297244541889,0.1251144349688016,9.837971506418004,0.007459155157312161,-0.004713743364534616,-0.02115516791155073,4.78
-0.07760588412891561,-0.11772422897291102,9.688197177227469,-0.006743432233083653,-0.0042484827119001626,0.0022766857589332076,4.79
0.2805838578654167,0.003975921314083512,9.911032326179066,0.012478958537945357,-0.003142279993424398,-0.006816848179217565,4.8
0.12291864009800002,0.13005850813064673,9.766879817191269,0.006955574582692488,-0.0011782401894794932,0.008476496035459203,4.8100000000000005
-0.2084445494851384,0.0027794416233863865,10.00203638501292,0.008642036086417346,-0.01098510781002925,0.003548188552168128,4.82
-0.08480787598872401,0.011115358660917967,9.909233667973501,0.0028603420243173455,-0.026389044638607695,-0.003583199205113394,4.83
0.026662502099451514,-0.11185125137185928,9.79184589110206,0.006023149257850114,0.005786446029110722,-0.0040144676732469875,4.84
-0.0457003446718413,-0.05864659793745654,9.690770921404615,0.0031505677165213504,-0.007683629528786064,0.0050792218725337415,4.8500000000000005
-0.13534064050233105,0.0019136098060300952,9.842241979355556,-0.020530160988686257,0.0042636669192573735,-0.012217153714541223,4.86
0.010537454446623573,0.08641389339501171,9.599433065508371,0.00951449446800938,0.010287569621421293,0.006597549215997294,4.87
-0.012960551415117597,-0.09805597943434358,9.794385073585294,-0.019897004483787225,-0.008799612624161113,-0.007223535312392756,4.88
0.00035656361307708515,0.14700670933155754,9.82345587628232,-0.010821163302080697,0.007347980200607312,0.0015527934105560954,4.89
-0.028231677805746376,0.14172445271701628,9.877139321479815,0.005994854110890571,-0.008033277703385171,-0.015349034001998605,4.9
0.03008786383351198,-0.15302161294117,9.707789612970451,0.002179405306638643,0.018671536280779565,0.0024036677797917394,4.91
0.03786093489387348,-0.13630884621943748,9.930765373450113,-0.00833404058036171,0.006240608208230831,-0.0030725795505697003,4.92
0.012966008084508249,0.045976950859613404,9.756979654249317,-0.0020238892735719455,0.0057366993206865195,-0.001452832598911122,4.93
0.01161635710689627,0.19139208634712004,9.936534254708139,-0.013689502838746757,0.0007588153251790815,0.008281659361172103,4.94
0.011128191028855924,0.0755314013427443,9.805907553878187,0.001324492541590772,-0.014428613623920226,-0.001569908392000603,4.95
-0.03815253477972632,0.023758738711943336,9.994779226074012,0.007047454258635012,0.00025925589403670053,-0.004481783700256471,4.96
-0.08527877798482353,-0.0351690235509392,9.856799994071562,0.010366680026923843,0.02932184137341292,0.002222099023035575,4.97
0.1934100167604134,0.009336288728384963,9.870230896249732,0.004970418386190493,0.023934429034790008,-0.004192201079104199,4.98
0.012785296000370967,-0.0035775626823553886,9.863617905821307,0.013396420717295967,-0.010364856040076406,0.0014397230187022823,4.99
0.09142942937783788,-0.14358415281466638,9.722083782755792,0.016499025104349585,0.007700567085026081,-0.017245788506018222,5.0
0.1366672293624116,0.24445929284093673,9.867913576964922,0.007628570740213827,-0.003941059343009859,-0.00487383668704777,5.01
-0.05130942046997734,0.038212348102159635,9.928260785169181,0.028437651355016635,0.018265104421665523,0.0027679630891301165,5.0200000000000005
0.1173487544112629,-0.031155889069916017,9.737565969508369,-0.0038976068119348623,-0.0034559517160698684,-0.00924072343645114,5.03
0.06074921755681295,0.0027085743449199256,9.827229239791514,0.0038089456542312787,0.004899241643740884,0.003099514908747772,5.04
-0.08447460897239059,-0.09796271585042188,9.740371662402662,-0.012559452695101619,-0.001746928584307029,0.019221187760300566,5.05
0.022177112803229364,-0.07387992171136738,9.713444798056672,0.00752123430582655,0.0009300262265848049,-0.008723233866818943,5.0600000000000005
0.07932960712393841,-0.06150028915573344,9.718592963423923,0.010991921547921422,0.01014715154705624,0.007095930063655758,5.07
0.053272967369457094,0.1321902675878449,9.839377288594546,0.0003211294689934666,0.0032289037745714894,0.0013075554247917506,5.08
0.15282824862155525,-0.17865187294656826,9.76172372553799,-0.009735362686517318,-0.008616031060419586,0.0019767828331479767,5.09
0.09643327572022894,0.004552887045672297,9.801304649678293,0.01541739940836422,-0.0034269460338160534,-0.016668454596639508,5.1000000000000005
0.13034108153366264,-0.06836578138784226,9.753042356029587,0.016522505875717918,0.0033136875015195404,0.0029396711305198706,5.11
-0.20633025361278312,-0.10255751674256755,9.688464125614917,-0.023205726745788167,-0.011830190884408289,-0.027448500881733198,5.12
-0.011509909664980599,0.03102007392844863,9.971059883316345,0.003348391000883888,-0.002263220286626171,-0.0025473224791269095,5.13
0.029869400123844037,0.013262147418750276,9.894234928541259,-0.0002025937692453864,0.004458289959267187,0.0016971927726494049,5.14
-0.1751793361947811,-0.07400761387674108,9.82567832607142,0.007646654339373317,0.0042745524244814335,-0.0006567339011782829,5.15
-0.06770662673808732,0.09110785685514057,9.800816822689892,-0.009318321243917672,0.0028979677880632214,0.0008245818519913466,5.16
0.08261866369985338,-0.022622310161877907,9.749695816332638,-0.0033312254757784003,0.010277328388414999,0.013901380651538637,5.17
0.0025439444712087892,-0.05651710509342727,9.729231976195628,0.010985061311589312,0.007039064093264197,-0.004032406904062231,5.18
-0.12643611918221628,0.04581434068928747,9.854984904259775,0.017594111338610236,-0.00208213965941214,-0.008615078909726437,5.19
-0.041898392954336235,-0.05152419918975562,9.868678087683667,-0.017899259318706322,-0.0034461160014223023,0.0005797349791569227,5.2
-0.04927447938585318,-0.20841925538799783,9.835053419027735,-0.004146831504443876,-0.00956398520494984,0.005627201028882516,5.21
-0.0023802339357639926,0.10553718916188977,9.764187148787881,-0.008454167734376189,0.011135715890337024,-0.0044163616022881115,5.22
-0.04468039150296302,0.13640606547228526,9.918292723526491,-0.008013117018882843,-0.0066416894849976975,-0.008088954973568024,5.23
-0.045227702678447945,-0.047695608159526365,9.749958622849393,0.0013876691476090212,0.008015713819750669,9.622324793176322e-05,5.24
-0.07882289861741115,-0.14397419112480894,9.592866364475505,0.004716685408895458,-0.0036983244402201618,-0.005754942947099134,5.25
0.02214774604255018,0.18937165272717923,9.732277822972982,0.021439096648513938,0.0029707883166504236,0.002077516938031948,5.26
0.0009211256036938431,-0.15289100908953968,9.717798383277264,0.006024409417731523,-0.013177083143594556,0.0035094240064333948,5.2700000000000005
0.07111340891687846,-0.03732669400816716,9.892736085320589,0.005931075722881893,-0.0023166450685087824,0.011364912981527734,5.28
-0.05674858280642669,0.0389525899349864,9.934327756317282,0.004581483543142705,0.0063447762931557565,-0.012865282057894268,5.29
-0.03773597472738864,-0.016439827455984223,9.735223572365555,0.009359184037175795,-0.007199064366856468,-0.008116531174038315,5.3
-0.05548953548572014,0.21228060693086884,9.822027065084704,-0.009207513504995999,0.014810189266964025,0.004457453301763482,5.3100000000000005
0.1924917102470155,0.012453694587681715,9.679931094952833,0.012837760667327067,0.0026105101249626283,-0.0019419672160334782,5.32
-0.08964199569699899,-0.0442973021667787,9.868582561524606,0.014675980641873832,0.008901909012897969,0.012184682494884363,5.33
-0.05410126298958691,0.11682266704920137,9.742735361157616,-0.005570124101977088,0.00971157812127413,-0.009466406127422913,5.34
-0.05791973996845933,-0.013350646258694442,9.871513640724737,0.004652987858606685,0.011784860710687463,-0.004699031715771749,5.3500000000000005
-0.10404460801891169,-0.019961575943519886,9.904439888623266,-0.0008581522819812102,0.004099873655808597,-0.0018254000664340994,5.36
0.02902642882141686,-0.06692220930179398,9.793014646823195,-0.012200517818855767,0.006752843870134343,-0.007670128458331389,5.37
0.06476275049956236,-0.11970344241656722,9.811260634016913,-0.010333661091585272,0.0007376530377143062,0.0011477573495446837,5.38
0.07342767892632189,0.037572524246329675,9.687646191846062,-0.0065179034569229554,-0.010587411874533324,-0.0021302500000097598,5.39
0.03649476007353454,-0.03062285463749298,9.629439557931574,0.0037896258061386025,-0.0004846576906617271,0.007639718306533041,5.4
-0.11568881914797534,-0.004639670062073825,9.943840266527253,0.00919997573128198,-0.03762355112053072,0.006429745459970345,5.41
0.05915600092947701,0.14898915777526267,9.76332259224061,0.006861078182944448,0.00041252164738622026,-0.005456404561757041,5.42
0.017014404246089104,0.0598425874830387,9.863671407403105,-0.0022949638615366655,0.004224382096345038,0.003718809113479707,5.43
-0.06027082541036219,-0.005952918792044999,9.886822462757292,0.002848677849720555,-0.0043646000637268,0.0019950055027174655,5.44
-0.011036074895905598,-0.16132166017533098,9.754510440176002,0.00628919794177342,-0.0107590908793087,-0.008886673807660053,5.45
0.0362110753699896,0.09340763667552904,10.060135899688682,0.0013685751589851513,0.002863899731475923,0.010973160245161578,5.46
0.17554499848630178,0.07222336317225753,9.70047134640538,-0.009000711927472715,0.002042716429705604,-0.007173145273624314,5.47
0.14217946096405046,0.11031027466482678,9.769334755947291,0.0049551132707014766,0.0028992764567550193,-0.00190741703142727,5.48
0.04583098899287234,-0.03624872918009247,9.936598962040975,0.013085780978548645,0.004950253342603757,-0.009150564917977715,5.49
-0.10270750983101769,0.15731037361259553,9.724463932010407,0.017403491122164078,0.0016263291714985187,-0.006012707793720413,5.5
-0.034951675063993236,-0.059310903927298375,9.682078887112517,-0.004057961443267528,-0.020561797571646695,0.009241069423985237,5.51
0.046942107526205416,0.19507038020752335,9.956152147787774,-0.00875507533813866,0.01344453899750694,0.0024073818362294512,5.5200000000000005
-0.010757553803477935,0.12514752357305714,9.707183586136617,0.00046331874812004936,-0.0037056200230668585,-0.010134702117466674,5.53
0.08504274014563988,-0.13568419419214595,9.795268138927192,0.0005554085924986137,0.006089765763378583,0.01122494888477112,5.54
0.08753663725833614,0.025452358675760095,9.774133325436091,-0.0027913451424360055,0.0014641945559778836,0.010276128582873346,5.55
-0.047102076406054474,-0.2548153667050778,9.73026291404502,0.002976337744747637,-0.004083506759265277,-0.010289612743830048,5.5600000000000005
-0.0767991961939123,0.14124642466639115,9.999058335444497,-0.00020830513564546114,0.007657640377320135,0.0035227909724921897,5.57
0.08934860811243425,0.0038354538126477,9.806335511221038,-0.0019299256440657268,-0.005137488201277584,-0.011037650917919679,5.58
0.03275087361299755,0.044869161946018365,9.77555967449162,0.0071018003544374075,0.0003643550892827737,0.008995625693525985,5.59
0.13146834777807717,0.11971927067911287,9.760798072564077,0.01650088263304674,0.0071631395708971965,0.01542907727774079,5.6000000000000005
-0.1314363661845439,-0.1844788142672449,9.90608237176366,-0.00902936219394388,-0.0064502822853983325,-0.01015235892430037,5.61
-0.12766070248469027,-0.09345094860426485,9.799302532976036,0.014070569936254248,0.014766046968454806,-0.004882086530868407,5.62
0.0902353534756086,-0.023435187467464383,9.6673410852991,0.006205600420455079,0.006906673562486515,0.0025653963908693306,5.63
-0.0329218614092839,-0.2027129834938536,9.80791959951116,-0.01626737536044396,0.012597763819519372,0.0038546653997665625,5.64
-0.10111190632543919,-0.046856763456414395,9.873340195230083,-0.005626922699815117,0.014687065008083706,0.0011140708570485471,5.65
-0.009725561021990388,0.009543120413621415,9.8388255583009,0.007099946880877874,-0.010504695377469233,-0.006612552371319428,5.66
0.059192776329088564,0.04927348123149206,9.674536882740417,-0.003952546875515563,-0.0011516519094031392,0.010485512952223702,5.67
0.02318913771869944,-0.039658608163524324,9.650300983719776,0.010070162817213846,0.008401081352919552,-0.010723274680555632,5.68
-0.16973445252687153,-0.10228995629760623,9.826075758480764,-0.005625043428580556,-0.009972638530971878,0.003411283723544049,5.69
0.02635939708847565,0.09735071982462695,9.801025743115458,-0.0018297822502438936,-0.00024033554687804783,-0.002526776854859991,5.7
-0.03344616685604667,0.061228698417577665,9.865980542638818,-0.0009166909530724198,-0.013481414024418745,-0.0005209366089889027,5.71
0.011127723804165116,0.20756857796782266,9.793638116018995,0.00245024997571044,-0.0012134674291923464,-0.01423134709502953,5.72
-0.04181744574086557,0.022714734208569086,9.869708356975607,0.0020423511659706803,0.009798758832781956,0.0095262412511922,5.73
-0.12367332285800117,-0.05552649461958867,9.684651632294438,-0.017343418910240604,-0.002989987353194874,-0.006095646168225934,5.74
0.009721417725255602,0.12793988996689107,9.826814063543356,-0.01498879502760203,-0.009880518728714805,-0.011154210290958755,5.75
-0.10866117476668152,0.10072234594187635,9.75547594959661,0.0017532187222277945,-0.0011013660667718503,-0.0023449094154592777,5.76
-0.19268824393637043,-0.033952096867073685,9.913927503543718,-0.022521004195391128,-0.0024452379228351835,-0.001625774566475591,5.7700000000000005
-0.06416724504773974,0.011994537423455805,9.656147320884294,-0.005642424903419842,-0.0014309810983237567,-0.009877964481802566,5.78
-0.11607525302050357,0.13069701134666153,9.961421253236999,-0.004502431176273212,-0.0011481078874139123,-0.00015124816205835077,5.79
0.07105323308069655,-0.09004213042667325,9.655857003643744,0.005232052392213852,-0.009547723231191853,0.0048357328726223,5.8
-0.08166027548917876,-0.11229045878124251,9.676989287294221,-0.00298376652201169,-0.001239636143129783,-0.00836128626228042,5.8100000000000005
-0.1566163870597644,-0.04425797902951314,9.779551535797223,-0.010751048404860781,-0.011082993146377347,-0.007800797912935747,5.82
-0.026916652045542,0.1013831743369144,9.880827443469446,0.00932721956280435,0.009465977965668195,-0.010232153967329974,5.83
0.07211842582443617,0.05422128329677796,9.90984718427382,0.009167828840333268,0.0182182687363934,0.0013591786468910394,5.84
0.020969942316936385,0.11325097515159609,9.791664547966256,-0.011477560027216114,0.02225114297312902,-0.011602358628757603,5.8500000000000005
0.03575664038918704,0.13234926772664798,9.988212192716972,-0.005373991179492396,-0.00810259273692855,-0.013099056002555818,5.86
-0.00033964505299868955,0.01516374869322118,9.707604873335663,-0.004523852931398468,-0.008201682457882092,-0.007763532673421844,5.87
-0.10198037743722524,0.18463331186863532,9.939879970702933,-0.004428974381300856,0.007980338856345607,0.001980472817116507,5.88
-0.05421842403944041,-0.008011414526061491,9.863861094409067,0.01714401968909268,0.009356602673290217,-0.008564325225871866,5.89
-0.18257403042852505,0.10176112938534594,9.61614163000754,0.000775781961246045,0.011566568946832443,0.0010152698454965392,5.9
-0.03931877097075287,0.13030965276654283,9.925616547788117,-0.02105127951641656,0.01083944214557492,0.000800755998981375,5.91
-0.004607971289252259,0.007536982678883102,9.907798244086935,-0.01336481612136308,0.012923355026549226,0.009217579974658411,5.92
0.0386669954432562,-0.1261102828684598,9.859901945158507,-0.00014521070240857954,0.012733814476357913,-0.012452690844670935,5.93
-0.002837167020860765,0.14310546358995088,9.837175848842685,-0.005536268856178778,0.021351398775948174,-0.0020657773954433903,5.94
-0.059984359664121384,0.05679863123401727,9.787860336761296,-0.01633388250375193,0.012719636890074838,0.00718716906236675,5.95
-0.30881798554107787,0.14238508179625725,9.703198234893728,0.005305209698338015,-0.0013864995497843266,-0.007903852192011356,5.96
0.0460742772604261,0.025245138157381632,9.83982373625611,-0.007726871322026625,0.0015470672192607934,-0.014545363849574992,5.97
-0.051742618518728724,0.017954701425250005,9.731884058878471,-0.002668865727147818,0.006796847707822633,0.011261363468087766,5.98
-0.18114297006478058,-0.008760680148269168,9.916148549509936,-0.0034794246970271253,-0.0008309485709976172,0.012562639299726605,5.99
-0.10034696926980478,0.04891621529070986,9.661693569019661,-0.014694595879969661,0.0016504437052796146,-0.005458179244987961,6.0
-0.171013592249719,-0.020734348372239367,9.881294025279598,0.016055487050764605,-0.0009069652502210038,0.018687350152517244,6.01
-0.16046355181092065,0.08680252297301813,9.901615497178046,0.006429087032482422,0.010039890299395168,-0.011226345597227499,6.0200000000000005
-0.006314669967421744,-0.1613200814078365,9.845342672990762,-0.005649463342846194,-0.004066910356497403,-0.0034156318043598206,6.03
0.08501594566204776,-0.1729269755225882,9.803857913016087,-0.00451973541053517,-0.010532136056740683,-0.0070866167635407875,6.04
-0.19437227172834828,-0.06658987530712517,9.85379225724587,0.0015067775839851805,-0.00027944852735469616,-0.015699541963359674,6.05
-0.19345700226798748,0.07669459111258711,9.749002276844761,-0.0183787780028429,-0.023611344454321465,0.01132332300265033,6.0600000000000005
-0.1884342709231671,0.03778556850278267,9.754689849503583,0.0003612251312519157,-0.007032594507798056,-0.0010094100053987189,6.07
0.08707722921640854,-0.03347685719401891,9.851876005872928,0.004593625453452207,0.003255978956836539,0.007217907577635378,6.08
-0.010783800883410893,-0.18986995607310728,9.809279429054373,0.008303801283087322,-0.019821537726051174,-0.005963003179407162,6.09
-0.0473840421345882,-0.09505476964754252,9.916712764602723,-0.0010967475015494577,0.011618802381990086,-0.015401099128086947,6.1000000000000005
0.03959418174984842,0.08154349243879228,9.825965206322795,-0.0015268727364331845,-0.007800619730852783,-0.019253517229283975,6.11
0.07899135068703475,-0.20323057591118068,9.951442232852878,0.0012507364442550873,0.007814912627561036,-0.0025452297229490496,6.12
-0.0044323019668591574,0.02857143980218038,9.774629717758843,-0.001503486366398684,-0.0004172655511889818,0.0073472970123609265,6.13
0.13570968770097466,-0.18468141097128787,9.903843822193291,0.0003303567595368131,-0.002804601252468619,-0.02096472430495718,6.140000000000001
-0.11675637715800323,-0.08293940248390361,9.83939241890044,-0.004317636165674125,-0.010135759095939213,-0.0038456538369524046,6.15
-0.09055034949729183,0.1338100318302384,9.720358149531137,-0.000840084042948173,0.004031681155062501,0.012193301870022447,6.16
-0.1224350040393817,0.07358503695711559,9.879204689152749,-0.014214793698945632,0.013304081611588588,0.01068764288007335,6.17
0.10999252055818275,0.02776222547812451,9.783030528503978,0.0036621462294883305,0.008371563646665532,0.001703391196546509,6.18
0.24640899750619713,0.049632949420831615,9.70170087334801,-0.012547779228287403,0.018284756871701356,-0.000998358946728438,6.19
-0.023156468935509673,-0.18041246645672177,9.730711440738974,0.007416205512849175,-0.014037950566185411,0.01801807616815061,6.2
0.027769949031241282,0.052597094281655876,9.478535611817767,0.011771445406436862,-0.0006549425627407305,-0.0029107771409701885,6.21
0.042494134602981334,-0.08444601461283423,9.64437717561421,0.0057253150584543,-0.005414582533216609,0.0024874856674578266,6.22
0.0355107861732986,0.025170725010565984,9.82596297648303,-0.007542800769287227,-0.00733537995235795,-0.020436964562735693,6.23
0.16877270860901686,0.07981917983416781,9.514826606205633,-0.013388071909040624,-0.011561015972600631,-0.0045882789217139,6.24
0.07820592221303801,0.031619157511530625,9.841376902100386,0.012047097838083963,0.00340210082423644,0.009448496205675736,6.25
-0.026644852883159195,0.021198634254999536,9.830132231344344,-0.01635625468617264,-0.013815008713703374,3.695761393750843e-05,6.26
0.02984352188388009,-0.022628653556919755,9.70316090637379,-0.007924631540540461,0.002634701272112078,-0.00444031084797926,6.2700000000000005
0.06410391785198091,0.0696848568876125,9.673602655447535,0.00495195376502554,-0.012227178356097409,-0.012709860845607206,6.28
-0.003143203052181179,0.04494590585033629,9.860778219444889,-0.008961582533631704,-0.003055024778078787,-0.005387208660390016,6.29
-0.1445091599312727,0.05195881973376202,9.88981697635108,0.008264143720704194,0.0032664854158264704,0.009904463570166801,6.3
-0.08579115387186718,0.10425214561823026,9.900182108799568,-0.0011476106680042817,-0.004663714002611187,-0.0033537330120889048,6.3100000000000005
0.039409391059265914,0.013653557213019134,9.952495629011008,0.011478348409145427,-0.002882170912313424,0.004367891596911398,6.32
0.17166593553962706,0.11783032191183734,9.794312293590673,0.001570455019167664,-0.0004859571139673189,0.015304602821310695,6.33
0.1083564330274865,0.08992493724570393,9.828078621140342,-0.003079313779974993,0.0032739018626570388,-0.005166082320290676,6.34
0.01174052030234881,0.006477238872990432,9.771240220394334,-0.01674291777745916,0.002916051716260137,8.248004616983209e-05,6.3500000000000005
-0.12870687126494024,0.03774564071843485,9.724453957178223,0.0006680401126548285,-0.0004445696971114082,0.0015183481305794195,6.36
0.07976588491190102,0.11814154510248812,9.788427897724358,0.011452151105144389,0.003305237314880297,0.005877001382136941,6.37
-0.06978391723696709,-0.13369428196882407,9.851076195739807,-0.009604762987926637,0.005788788067542474,0.0046286186567296925,6.38
0.10809315493772231,-0.007589819291070835,9.785907475283466,0.019683527573048854,-0.01023982145692774,0.010658638942709556,6.390000000000001
0.07640043024967391,0.02681774305195861,9.70353011875575,0.007334941246885043,-0.003398099863999732,0.016091765157119752,6.4
0.10614072525922742,-0.09879347036914565,9.721337159409563,0.0008610066068288902,-0.009212692848460149,-0.0021904382978405806,6.41
0.06205488867756771,-0.0049566121141906075,10.021501232327537,0.006442035229899733,0.004889523788907131,-0.0049489443523542,6.42
-0.10029568250594807,0.09673621406602813,9.727236733684105,0.01625014859108624,-0.0015434726807085494,-0.00833845250542677,6.43
0.06465587327578619,-0.04196952559368997,9.857871394016392,0.0008946677508905324,-0.002035503120566246,-0.018530389121346563,6.44
-0.16373892434738557,0.13846368058826405,9.822636907316218,0.014995710771530849,-0.0034140326025185732,0.01233705948968036,6.45
0.02106102730799075,-0.1504397059649245,9.823504185817727,-0.008173986476596257,-0.010314611098568318,-0.01701389641349399,6.46
0.03016989464444876,0.14685792930604707,9.897302317290832,0.0013309670828543733,0.01571707804822621,-0.009740764741131547,6.47
0.0842823055785238,0.047892827853485205,9.633597743176445,-0.005776238154164234,0.012309490296513218,0.016049335812896786,6.48
-0.16628782770060585,-0.015443807653202808,9.963035846057728,0.002583358599248484,-0.021469835418113554,0.0019590515810589963,6.49
-0.20235252797643338,0.11983227890070736,9.813007687078555,0.012423663513589643,-0.0036738795708078607,-0.004960442700153906,6.5
-0.024852036488540032,0.16008396215558973,9.832106696450527,0.011852413712451666,-0.020635529711452234,-0.005188594729676818,6.51
-0.08777168690820426,0.029351232862911886,9.843338540956589,-0.00984005243561742,-0.003174619580508607,-0.0013990234984824401,6.5200000000000005
-0.08077824410422656,0.026872086264719094,9.684604623893737,-0.011080823675755032,0.01454270217188397,-0.020083801645315064,6.53
0.05002284271394397,-0.009047789863771551,9.923359671979876,-0.0236292150928083,0.008771157217080923,0.002886467808533178,6.54
0.0040398543269441365,-0.07250116912501511,9.689443700094511,0.002999223525169155,0.005916033187328331,0.0036683951031938125,6.55
0.09097230917443924,0.141222339458824,9.653395017372405,0.012491827979543164,-0.006100846041951121,-0.01078917761219285,6.5600000000000005
0.13314457585603298,0.06687193708265332,9.759214730124379,0.0011850022549864789,-0.02680275100335921,0.0013065954946430561,6.57
0.03989394577386591,-0.026262162625668335,9.618671791055856,-0.0042726597027561725,-0.004832830438568256,0.004355928118525548,6.58
0.045768614073000854,-0.08449873853939756,9.825118944378449,0.001536917213136753,-0.006969705747111146,-0.011427232396060775,6.59
0.04562097848370211,-0.03293489486014355,10.017096756581632,0.022187020341169407,-0.0065893478600988035,-0.006686238630277726,6.6000000000000005
0.13878687128401807,0.10205017590828963,9.746317519881845,0.007727868430855353,0.010926753412841293,0.008052148059284916,6.61
-0.038891645143434406,0.006775917002839019,9.724979790617278,0.00044476643408928527,0.001424471255220279,-0.005609005380889554,6.62
0.19849839722331586,0.17845093279273458,9.886658563775288,0.001361664582005958,-0.005622777648524068,0.010127263391549504,6.63
0.03175980314659201,0.08181690756169127,9.88269459154611,0.008967300729246832,-0.006315336203188374,0.003070281986073683,6.640000000000001
-0.17565425114028102,-0.17085249779290232,9.725700843708925,0.0002295668017248724,-0.0013079014932142205,-0.006584518170596195,6.65
0.021453492367182855,0.1666482039943962,9.831161560066072,0.013066299737966181,0.01595938255922302,-0.012542140543024107,6.66
0.022831788968454635,-0.024749519578069163,9.78634352339064,-0.004220757184233006,-0.019185988989396177,0.005127342985897644,6.67
-0.08295737121202824,-0.10523522451641505,9.709151770578499,0.0180449581663239,-0.02138792698333268,-0.001469809555086465,6.68
-0.023261617606787563,-0.11958877206628882,9.9120627058677,-0.008004254978715146,0.002868369706708929,0.005857918106129833,6.69
-0.10359657501492081,0.0947704605133357,9.752493090020929,0.007751061247188158,-0.022064946943306157,0.0004000314168654335,6.7
0.028224026809381117,0.14563707546051544,9.979384177106846,-0.0026126428072000335,-0.012905969054507154,-0.0124953746360567,6.71
0.02118188303173263,-0.14864465573994465,9.852968014030086,-0.01534799681990974,0.009285170513628515,-0.0024899514244904703,6.72
-0.008068087146167718,0.009403775068167322,9.790474136003487,-0.002081966164678224,-0.010884610512021458,0.019498457628252436,6.73
0.1124660019799516,0.06663388564150519,9.720483737305186,0.011000602991943054,-0.0079273300770582,0.00635904966802496,6.74
0.010493762161893358,0.23485450370860433,9.7152867595936,0.013253173395577106,0.012120557300480155,0.009976608297503792,6.75
-0.06954089688320951,0.09344139002800063,9.797359611352377,-0.009795107512629497,0.0016266784991238585,-0.009489659620424772,6.76
-0.0159107094735042,0.00784884562145492,9.84385449886497,0.004130152248762085,-0.008936211996851332,0.0020428032558578047,6.7700000000000005
0.19464372685317,0.0448481100197329,9.949635009735788,-0.0022894231408231796,0.01930227928950869,-0.011865743795107337,6.78
-0.07611550329088623,-0.07499474427540288,9.787306009541595,-0.015791344893270397,0.004594942482907185,-0.0058591174520470505,6.79
0.057437294397526976,0.11307812021734064,9.780745605879188,0.002419326581647222,0.021282460076205684,-0.015698404256502315,6.8
0.19489412580057092,-0.16867361034767978,9.72663286185732,-0.013147592485128158,0.005157340953216003,0.02711685265262168,6.8100000000000005
-0.12250891488294223,0.22394353197965144,9.745966437418037,-0.006085376403099447,-0.016740561479422357,0.006576541717044305,6.82
0.01024234691757582,-0.1614975321999476,9.847724573480997,0.020236430467851476,-0.02372274735376875,0.009651838567876155,6.83
-0.17295486380585257,-0.09085522194834122,9.7537745253099,0.0005763867398209644,-0.0028412132393342737,-0.01183755285125625,6.84
0.10905730986289582,0.041666860173722564,9.942633396425961,-0.007479261448871006,-0.02146402367638329,0.00034351406115626024,6.8500000000000005
0.05084317198531593,-0.11713688928316668,9.845419551389998,-0.016454322893148732,-0.007446134562927946,-0.004423535630087846,6.86
0.04321766270117742,-0.13627560749766274,9.77358746922742,0.0005006747739628581,0.0018110518910983329,0.007835888861093274,6.87
-0.05939541002246369,-0.1351537863622976,9.86799477071902,0.015743278057310732,0.007892515292003627,0.010285937472030212,6.88
0.08621529928465557,0.10308938648317666,9.926390789839564,0.005990465930793588,0.00856094002443057,-0.008611586263541622,6.890000000000001
-0.05674512048695719,0.011949088193132625,9.712205274993666,-0.015975479155900727,0.01032400185553552,0.0004095918211705291,6.9
-8.340453175880546e-05,-0.11986380584742101,9.729151668024253,0.01665165806091977,0.02939895253153889,0.0025987848712664386,6.91
0.14425381671769189,0.06962964717283475,9.891286970569384,-0.0021058875113890113,0.004924121834847723,0.0011787038158652537,6.92
-0.06970359985786016,-0.038375431971317625,9.790061577229585,0.02428462188832108,-0.017902090189158438,0.018959932526572628,6.93
0.04920685150156093,0.029906297737955057,9.801959454879908,0.01009257498967694,0.011209878245871868,-0.01735288341746494,6.94
-0.1417126478799319,0.11479509340806296,9.75652434935748,0.005557868397107863,0.011313089176606363,0.007470660349696392,6.95
0.0804400998211038,-0.08260959548243962,9.68154938728854,0.015260264057241926,0.0032098643267594157,-0.0029651683117446473,6.96
-0.04010001547712237,0.05220150580554213,9.871822959953525,0.004582086032176501,0.0007899703174575645,-0.007192856452682996,6.97
-0.07284131354998617,0.09534471721995245,9.827015149135503,-0.02302551704299102,0.0036272966006851504,-0.013781965627601915,6.98
-0.000797179846068173,0.21259333035207728,9.899900846230269,-0.004646375459214509,0.0037073929970953233,-0.011461822122750223,6.99
0.04741633318240297,-0.06755327520786517,9.724894244241206,-0.0028603437668917302,-0.006410739655939361,-0.003379943761405562,7.0
-0.07123108740482213,-0.2932223724820408,9.818300887881081,-0.00806291615068821,-0.00777369079963531,0.003497494422958037,7.01
0.09732587215896663,0.02847769223116661,9.855342237351012,0.006890470509645701,0.004361058614547589,0.012015386635011085,7.0200000000000005
0.09914812442699039,-0.06055997441170349,9.753567742082847,0.009044117296432152,-0.005788368916552596,0.005150399649165898,7.03
-0.030383440106016762,-0.08528748383306277,9.803477682854217,-0.017482073982846534,0.011261784862638784,-0.009482125064210202,7.04
0.022228699668177497,-0.1715018583104263,9.878613982790274,-0.01701506795427174,-0.005456685564968703,0.011618366875486397,7.05
-0.01477239148645606,-0.05923883117713381,9.827828557367917,-0.0030579690940117166,-0.006966734443423584,-0.009650004121056063,7.0600000000000005
-0.007030091544603933,0.02513167807623586,9.848352589843326,0.002667652487680244,0.005278615991329765,0.010743094500944135,7.07
-0.023392627869364947,-0.1654086283712566,9.719368089180758,0.009965345820110933,0.005908825839205846,-0.0002809606372600196,7.08
0.13107628270693597,-0.03160450075930806,9.837317664345766,-0.006304941339761765,-0.008071208699858771,0.002038955189998518,7.09
0.06537463303158492,0.10963462458231105,9.87986297189801,-0.009310234575152804,0.0035962873062256634,0.006208294010888658,7.1000000000000005
0.09492316897246049,0.012958795470120271,9.861269458350609,-0.004433975782998962,0.008024991395463251,0.012133437691860401,7.11
-0.3574941427218834,-0.10479885502379034,9.842569751607243,-0.0055258956765528566,0.001095147979067457,0.0009089519866155051,7.12
0.03185147287269514,0.12753703704749328,9.826699966325348,0.0007793815327153604,0.004700856929613243,-0.023623124665772176,7.13
0.01781742196952863,-0.03315955459008901,9.756862830088377,0.0012738975696937555,-0.000814146234907103,-0.00885944078124945,7.140000000000001
-0.05801688946011584,-0.02920729899391622,9.797437708959803,-0.009988507014135808,-0.008777802174911444,-0.008477244437696228,7.15
-0.08882813399661323,0.169362345226325,9.876962691866805,-0.012490369436943195,-0.002281847795153374,-0.002859241170081983,7.16
-0.04845036403849279,-0.003891646287645015,9.782605774278855,0.009285413790804522,-0.0067777357683672405,-0.004522800243953807,7.17
0.17959694504505075,-0.09316398164950779,9.85580041157985,-0.006566212525810782,-0.017558226343329878,-0.016049198993738568,7.18
-0.04734487543853305,-0.1168950705395834,9.735515416495579,0.018107787705003726,-0.011901575298429438,0.00224388832305757,7.19
-0.17137984233016937,-0.058499126898208964,9.87340880838801,0.014193379300522248,0.012665273168354434,0.007276214826765812,7.2
0.1437444825571987,-0.05327069240898185,9.709270882887717,-0.009632177345484084,-0.0038322854071113095,0.009725902280217831,7.21
-0.029229679976414066,-0.18590072641640742,9.700548105891972,0.002782805873091937,-0.008163439863764159,-0.013173783482055857,7.22
-0.034064047366875065,-0.1735419827402467,9.917851700565553,-0.005384666629622948,0.025270923412354925,-0.006891707676749573,7.23
0.07525719747088355,0.1588949881085384,9.893342174262083,-0.004687653606486842,-0.004636060236356831,0.0009615183155472609,7.24
-0.09073393852587511,-0.04309724373174941,9.929333286798206,-0.010525127424493099,-0.0016446125887589695,0.0008156153542162649,7.25
0.07652934606563325,-0.15598737803314372,9.707565004764671,-0.0012657570103647164,0.01683367810766964,-0.020684406340609446,7.26
0.0008258111011030969,-0.1802371272841297,9.847117820015995,-0.002842958984486837,0.007225935373479088,0.01745395133385954,7.2700000000000005
-0.011864236975626115,-0.08314385071101976,9.785859529783169,0.006664085911123404,-0.001207095280958548,-0.0003907250445638666,7.28
-0.053514097323565206,-0.09684432444848344,9.74969283584968,0.02347399251283859,0.01689912652381684,-0.009327069170166706,7.29
-0.06500343910167958,0.08598393694578342,9.806357241656379,-0.01299973235598575,0.0051700983033195385,-0.0039649706540744,7.3
0.08021520765280296,-0.1588514579148874,9.756510709929245,0.016251793956658142,-0.00280501947156646,0.004018391236237887,7.3100000000000005
0.0038062979025831906,0.03738734870213536,9.932124686952559,0.0076248692619680526,-0.017927033444492094,-0.011189674522773637,7.32
0.10851665502651553,0.03647615617590238,9.819409747109713,0.0080811629640015,0.00021347714113285887,0.01654152966346887,7.33
-0.04365036872246024,0.04744617976020301,9.662757213334244,-0.014552626266802282,0.00022209431333827513,0.0021126134847518404,7.34
0.0614519497387708,0.12141005039075246,9.854871674953598,-0.0062834026591050895,-0.0031029001467693523,0.014196001004128194,7.3500000000000005
0.08460962236692886,-0.05387538325847135,9.767834736189918,0.001870912748002466,0.004115385106890007,-0.008124231846111458,7.36
0.10933700344446413,-0.04801197142666255,9.799242588546996,-0.007988439245991484,0.012340120518821513,-0.004364889928914756,7.37
-0.06142862879531903,-0.036232743913476716,9.74276756842678,0.0005255445572732828,0.002848674732059599,0.004747479617950077,7.38
-0.13923609348250554,-0.029666809653298022,9.802715257975544,0.00023621564190797335,-0.013301297677808202,0.005009598116829787,7.390000000000001
0.14303141256390267,-0.13234083854277387,9.717228556275973,-0.004400934178341538,0.002885123519332436,0.005479463437929239,7.4
0.14236522640389548,0.07128573883319721,9.627349974639346,0.023018939640181597,-0.021593844289480097,0.002396765953340399,7.41
-0.0965510068537601,-0.0038313864097109032,9.746695024353905,-0.0058339305060288085,0.009954203274487906,-0.01145926458334086,7.42
-0.013832784067996567,0.024810107940661717,9.73622659915207,-0.014520913460642026,0.0011934441406082315,-3.0734922308506147e-05,7.43
-0.10296818251855343,0.049674456699656366,9.732857918252739,-0.004416236499691491,-0.003104995299317982,-0.0032565952979735115,7.44
-0.08274822311436371,-0.02477548961532773,9.87902581183322,-8.203638894754163e-05,-0.00457309946678859,0.01216044551423184,7.45
0.09491941917978194,0.10807374340692891,9.934981965345376,0.009452223831338744,0.00938534442724417,0.012246428687360778,7.46
-0.09997357027627327,-0.08442671501955647,9.903215958059977,0.0032929775332722388,0.005767164504591862,-0.01946112372680319,7.47
-0.06895776847919971,0.021773196757568503,9.853556330605318,0.00035311404944695203,0.014097954219674188,-0.003131197311074993,7.48
0.055346470636635864,0.09304726497955311,9.908543468294663,-0.02129924600873618,-0.001294285618108945,0.010224876867911634,7.49
-0.015499028898450532,0.05781594053794553,9.762510253775362,0.018649093557478135,-0.013983922389170454,0.0026758036293811046,7.5
0.014104927361934059,0.02526815078920144,9.750335239893978,0.004546424348926132,-0.003688948706184602,0.005004514897452732,7.51
0.08623942886489494,-0.015325252674792273,9.80856221990689,0.002376294793294032,-0.00411093268198594,0.009387608424473212,7.5200000000000005
-0.061802055246023085,0.017368131044858345,9.848841179657624,0.00834300792746195,0.0006686912768955451,-0.0015328883541303542,7.53
0.0268063250403212,-0.09674994414987068,9.899589942586488,0.011714187460719233,-0.0067426456194806484,0.0030410799260385713,7.54
-0.07611741633412884,-0.040773872139560366,9.757077305391942,0.012074912239721925,0.016323782264399345,0.025221520246033337,7.55
-0.01836597889833647,0.07108083087233683,9.76184450608098,0.0022588313997969033,-0.0070171035126584584,-0.0007990010859715618,7.5600000000000005
-0.043336622857206575,0.06540242805834572,9.814108840652851,-0.003178583166844105,-0.00811472860185137,-5.2480471920247406e-05,7.57
-0.04801696942982167,0.01043931191627871,9.855980565055283,-0.01833896226926245,-0.007248272117317618,0.0033540984299593674,7.58
-0.05734240413390062,-0.00780023767841031,9.642333696779465,0.013507018333837191,0.00552228351449064,-0.0026741035818594622,7.59
0.21588541198475159,0.12827049963983914,9.823632830367488,0.002010045822859158,-0.01694960156435137,0.006911191676830286,7.6000000000000005
-0.015049828990918213,-0.1752843424457007,9.952698265545934,0.010141181724801794,-0.006439801246847518,0.005952422377295373,7.61
0.012814857601455898,-0.07336955114235706,9.975549973513239,-0.0060781238420575655,0.0047756568814351225,-0.01450970574688786,7.62
0.10164375507117687,-0.21415034368940855,9.785521825784132,-0.01064698900350747,-0.0020126327126024834,-0.006181871633886386,7.63
-0.053048820312368974,-0.1364852149365248,9.758686212969998,-0.011035772330315321,-0.012477382193415041,0.00010102328746428108,7.640000000000001
0.08286834854559288,0.08350704517888742,9.880442527204561,0.005113659398165187,0.02292958557637368,-0.00850048407179677,7.65
0.008466934013677992,-0.1614646001870581,9.794585689591068,-0.01134758677360082,0.0011113914478379971,0.012440750067435072,7.66
-0.07966225587604026,0.06377201670704612,9.85964114452215,-0.00037139744985340917,0.002397742783830293,0.010909809751747638,7.67
-0.004120797675117186,0.037447045329736244,9.906874843742413,-0.017015062544024677,-0.00042196313053509085,0.004712255226496844,7.68
-0.06647534719673769,-0.11156513192914282,9.86405282444381,0.0036253019612486653,-0.01502681839104957,-0.001357065889738478,7.69
-0.1398679589044889,0.06261623343415268,9.957752312175066,0.016584304039896178,-0.011186648335247372,0.007803580251294359,7.7
-0.0868356696630859,-0.017006805713252682,9.994231206178178,-0.017889797589372713,0.017139857609950047,0.0043799158867766745,7.71
-0.039327355301481244,0.004230020110699058,9.762970777120188,-0.010572297221199704,0.0012501140699001892,-0.004637139045252972,7.72
0.08988276038908458,-0.01880389422723849,9.681625430496796,-0.016120174169555964,0.019093579933944765,0.004728586879215999,7.73
0.003963403905861105,0.011026697715600282,9.707653676129674,0.006066564339903362,-0.0011147603581438906,-0.0007087283946013542,7.74
0.17262801256000626,-0.10763620297189058,9.826409584536108,0.009702632462798993,-0.005874561302605858,0.011326042685512376,7.75
-0.04231351614821327,0.24461426771096062,9.740341261023824,-0.027551053626400004,0.0043298394663318016,0.01310560244717921,7.76
0.03867758659942549,0.02831759092251919,9.7378471345849,0.011707199053326187,0.001578748349040593,-0.009141419648853333,7.7700000000000005
0.018257868163980433,0.06881415836922775,9.773259807391785,-0.004468416452171531,0.017588831553278294,-0.0036108911118019945,7.78
-0.07385881877493834,0.022299262530182568,9.865452771762355,0.006778440895417097,-0.015401656899061374,0.009937209656650493,7.79
-0.05956038548780882,0.03422579264541538,9.805275818111456,0.008850494489199709,-0.00043981866934654366,-0.017475821209408,7.8
-0.22868069433302685,-0.04820986444127147,9.737681017792854,0.0052115872157592015,-0.00632349127935051,0.01687934993581954,7.8100000000000005
-0.09182169533935462,-0.0008282927736836718,9.793171948140857,-0.0022582526297701294,-0.014235285231860507,-0.00614381867739301,7.82
-0.04248280084814687,0.05692737350604058,9.72954714853587,-0.014806749728089654,-0.030128113723597753,0.007498485034000756,7.83
0.05434664813940609,-0.13981346485248022,9.574840092519898,0.007157569512203103,0.012714307555925264,0.006851642420253776,7.84
-0.12482791798536637,0.0478245415009308,9.730788284192387,-0.008484412617840328,-0.01333176928014774,0.007074397555160511,7.8500000000000005
-0.14307048140346654,0.05229189287387276,9.815406690712067,0.022090627272628532,-0.0021643635399235567,-0.021466451592241916,7.86
0.04460422237185151,-0.025692040486211515,9.783570133959063,-0.003301123239746864,0.011200775114207974,0.01484378565494968,7.87
0.090423813000769,0.026668694484852064,9.735378292068889,-0.0025694550139623907,0.030270291102162374,-0.00120582289814919,7.88
-0.08748628868971246,-0.010818818798983148,9.663622493678242,-0.0031645395958018307,0.009891605873805628,0.006232138012691647,7.890000000000001
-0.00864861294352723,-0.030154047065686407,9.727670778071074,-0.0008203764941794836,0.019849804652154447,0.0030734617638963446,7.9
-0.007371255500684307,-0.001983940614117788,9.904511207519406,0.00014607443859596483,-0.0019432846445608428,-0.012465797761669253,7.91
0.033723369391276306,0.03365247182442923,9.913531324974057,0.009612648473266068,-0.015119598234935217,-0.000985395591012493,7.92
0.04658859322495319,-0.21996771887639066,9.867960255131624,-0.009447801210758536,0.004222201877727749,-0.008226203543465163,7.930000000000001
-0.13204939169499558,0.09586859159950935,9.89836050150759,-0.000225494779562187,-0.00015976260296411647,-0.0038983255768419724,7.94
-0.11379777516160668,0.12457905759856443,9.7246559139038,0.006078333370867307,-0.005635155907146095,0.004053974320387139,7.95
0.07721489148164891,-0.035527529399934255,9.86494511034536,0.006815538320622959,0.0017713386918757866,0.012760874813605065,7.96
-0.12350412284712992,-0.12323152235067275,9.63399877541096,-0.004647780543715732,0.006757427044975254,-0.012821294637901404,7.97
-0.03604461772300406,-0.02869161665004289,9.954172805173211,0.01588228301522386,0.0034850804581190308,-0.008271161386594186,7.98
0.01556285725884746,-0.009933970367559943,10.046215044046342,-0.007820862228799259,-0.011740942421787524,0.008146081870320407,7.99
0.05053348543890806,0.007831199106705787,9.751169841138607,0.009299585344862669,-0.024179771850274645,0.002164435836655983,8.0
0.02340448288537123,-0.07931005954008943,9.959568204870855,-0.0011160873393311046,-0.0011293529345640424,0.007421760034837814,8.01
0.2808573620477399,-0.014148739812485715,9.837217861525906,0.002043899773125299,-0.0035413123437648426,0.007885985905643145,8.02
0.17600685803925267,0.058401158771589606,9.68791807196976,-0.005270826512483451,-0.010725372320056466,0.008818983929095893,8.03
-0.000617128644562902,-0.1532875741935369,9.983594857492818,-0.015392315089440228,-0.0010422108875870072,0.003252040666406228,8.040000000000001
-0.18287777248670267,0.089211507640785,9.622448635006537,-0.013349796547011017,0.0035888868748483677,0.0011210079185385116,8.05
-0.1801444218785145,0.03687784330652193,9.773902012503966,-0.023006665908104275,0.006491702717489127,0.00255906709387917,8.06
0.010499220728079822,-0.013367489644139497,9.846848117115035,-0.0014080788934564892,0.007754953920583781,-0.017583764164466664,8.07
0.1327375142315512,-0.03480939733225121,9.68166415661265,0.0040000480527996145,0.006246528866310969,0.004303601470625244,8.08
0.11174860891930874,-0.025726514737721046,9.868617617057604,-0.0139078938323506,-0.0015884525614089033,0.014789121525695018,8.09
-0.2346117945283573,0.10050550826529657,9.62979156325152,0.012340868337855906,0.0032003212010187423,0.006208704152545056,8.1
0.04818439412552518,-0.13528896826158465,9.794875242369082,-0.0044470146744703485,-0.007298198395888221,0.019310177003280905,8.11
-0.07660667441724002,-0.2274002763661215,9.864358886052587,-0.0011032288762169988,0.007213446277315948,-0.003432715340391046,8.120000000000001
0.042600447655050944,-0.04822207394521493,9.86954206378776,-0.011854406674119373,0.01013998135739523,0.0059784797331765395,8.13
-0.023497665672565643,0.03678150930496029,9.725487542682506,-0.004946359031304472,-6.264853610083121e-05,-0.007623160025049699,8.14
-0.07747675246670743,-0.15761856075991335,9.871831129484889,0.00662709703757088,0.0006917685014877381,-0.008233403212502684,8.15
0.023743162542969154,-0.09230396117874687,9.845072998226014,0.0033584902096009095,-0.016944769474887246,-0.006538970386706264,8.16
-0.05020084996739509,0.03963023180786089,9.797895771338526,-0.0038782996796642264,-0.00038520280299514105,0.004778723860186543,8.17
-0.054468627998105014,0.06391701682229207,9.93585938865228,-0.016771195638901348,0.013587664498627278,0.018101235857338267,8.18
0.07271565805426516,-0.20023024979771567,9.737023511962873,-0.016558299913551747,-0.003570279694768036,0.0046890586714835375,8.19
-0.11000139864681611,-0.0281428441962268,9.867081626990577,-0.0009559642592236434,-0.0020721488260192515,-0.0007090499128496687,8.2
-0.17074655285059173,0.019303386574300016,9.80192483583859,0.001595508300233843,-0.01486481161096708,0.009068577597623542,8.21
0.1306196429820801,0.0419566989425418,9.722729475286366,-0.0030473564066695997,-0.008240017996253532,0.000986975680894209,8.22
0.01287565514336779,0.008685367872593695,9.958993766460802,0.006192473766340662,0.015257006295115918,0.014677812436493989,8.23
0.09573804499439353,-0.06572508392121397,9.752980145963658,0.0014237909697420617,0.013465544689642743,0.0043659189236204335,8.24
0.13861620454065868,-0.09011020534604672,9.613567210832377,0.009535769802288298,0.005266211754870758,-0.005337117022962337,8.25
0.01727695594882254,0.15051574884881191,9.7016949563437,0.007167669362800118,-0.0011856663743644881,0.005610314723510708,8.26
-0.02343996522434161,0.1403921713289865,9.798250059426243,-0.00800054150534705,0.006230803666387448,0.025011605030796625,8.27
0.02968260765453695,0.06473988756754481,9.989594994037859,-0.004355126177049749,0.01908925464181087,0.006491804714802561,8.28
-0.09908401930015931,-0.009920488929021568,9.995274372032855,-0.000628643359326434,-0.012314345731526406,-0.004661984095256338,8.290000000000001
0.008445766211686892,-0.33056351760303754,9.829874112249309,-0.0022805501561358665,0.005206681980035003,0.025664315475614433,8.3
0.06039656575975477,-0.1590883745881404,9.734497070427032,-0.001616639823597593,-0.004359786212274188,-0.006733387841624298,8.31
0.07963146333271032,-0.03232750528212286,9.901022962280742,-0.0071971456127507836,0.00882014511271382,0.006554357027307701,8.32
0.09820793311661033,-0.09020574806153217,9.806991607286285,0.009928392385353051,-0.010575730082790476,-0.0010469085056675539,8.33
0.07768873802351083,0.1283860985500394,9.678752451841072,0.010069512240421621,0.013953176888821053,0.009648447267243582,8.34
0.023702485702117512,0.0588039159213954,9.895214097189504,0.00046043723812117356,-0.0042024989688270115,0.002413058179004276,8.35
-0.06766654539738239,0.0557237404507511,9.84216406807548,0.00042390901786840623,0.009812355658639076,0.0005505922207739204,8.36
0.006689112823603807,-0.11305979751334155,9.930936954491187,-0.01378245841598031,0.004005755782860157,0.01245573170332264,8.370000000000001
-0.04549565347443904,-0.1904836594286781,9.707002261691228,-0.013027961020252159,0.008882181147191396,-0.0075874488886726685,8.38
0.05520136654714765,0.11159051023970186,9.807651686711958,0.0054849691950102876,0.013438911680231628,0.004029892061086545,8.39
-0.05419063531416716,0.08458991837610175,9.828189195439933,0.00018009200893419778,0.012381115989137485,0.009177054000952669,8.4
0.04624545590541991,-0.11676343523744426,9.680295299032881,0.01179384769704587,-0.004582249779419905,-0.008981872626712144,8.41
0.09713482627958189,0.1052369919423855,9.711886031336538,0.0004687958735498389,0.010836254996547197,0.0028198375170188296,8.42
-0.08764444369883141,-0.15354401404224693,9.735967322726417,0.0014700129579080896,-0.005979418742325174,0.005324387310455941,8.43
-0.030317830952265513,-0.07463704656407412,9.785143061221103,0.0057986057570889905,-0.01029304589217423,0.002210806968886793,8.44
-0.013862177835256777,0.21049035659455378,9.999769082043802,0.017056205740353835,-0.0014295375916962493,0.0008842411777390673,8.45
0.0831711904080917,-0.19823012876230117,9.740236213956127,0.005279177298075807,0.013062501781490989,0.005253577409755787,8.46
0.010123939643213536,0.10408124379706851,9.83252817683016,0.01269833825283362,-0.014518208741869184,-0.00093556557855742,8.47
-0.043587682020822714,-0.021957323469334676,9.735766722970435,-0.006987160762405381,-0.004826701406704427,-0.004066046833319261,8.48
0.07076497298783609,0.04658947475158379,9.843570182795897,-0.01374281233026295,0.012393364116964711,-0.005345258227514767,8.49
-0.059032504481879466,0.21891706508838862,10.020429158048856,0.014699814105653708,-0.0028946983405196062,-0.01192520973967896,8.5
-0.09896906473120141,-0.18338066306098355,9.907226022472301,-0.0044098232080849445,0.0007723115131154722,-0.008502718766930454,8.51
-0.15408737191463417,0.20041917044235738,9.96811854493183,-0.012224142883888576,0.014961914686045368,0.005420738243439518,8.52
-0.015479894453582594,-0.18930408065586282,9.779064729443945,0.0067777102162943645,0.013478922097711088,0.00781533228737185,8.53
0.04547668275241935,0.07940729178477507,9.591117167915511,-0.0008440586429759642,-0.004008603047380619,-0.006231138999052917,8.540000000000001
0.16791203620504538,-0.1179896922990948,9.800248700344003,-0.00041552468799367675,-0.009104707307971523,0.003977135476181461,8.55
-0.15282819868823255,-0.15289481093985482,9.641752102256449,-0.010549059068915585,-0.009241263344331488,-0.005991295834738662,8.56
0.03089147646175456,-0.04615805996128566,9.88639241783398,0.010377678014737103,-0.008196361199502847,0.0023629304707983505,8.57
-0.19722750300562603,0.1714901123037424,9.811282089648156,0.004728218088511461,0.010519913635498033,-0.006063506323031213,8.58
-0.0715576558575468,-0.0736769498848631,9.703741203778595,0.0070226414158406645,0.008083897838404231,0.004680396906001095,8.59
-0.1765794198098102,-0.13409621128612922,9.703959323371517,0.007192869629860958,-0.009858453583372567,0.0012460212580675228,8.6
0.1403667365499169,-0.11269074359534176,9.675582777327623,-0.010413884772497491,-0.014952672131969736,-0.022259788729972772,8.61
0.14537936480207142,0.06027307915621796,9.726148656147744,0.011326022010284265,-0.01752081272991519,0.017326334045360818,8.620000000000001
0.004503710910705823,0.05328884094580754,9.770253601165434,0.011152754268713221,-0.0004314171154991579,-0.0008989661718586568,8.63
-0.21507242642314167,-0.008942557851750573,9.6906603507104,-0.00010339547885913872,0.012293809954256841,0.003691986281550144,8.64
0.10650261492287445,-0.010300405629316223,9.864692769305622,-0.002394166707122948,-0.029134340406602448,-0.0025681737370673373,8.65
0.15927037160090912,-0.06556412979425652,9.88702927974435,0.00538110698785765,0.005426160461642637,-0.0030421252772053625,8.66
-0.033488492991129264,-0.025604565711872806,9.589120543037359,0.003399827254231423,-0.01489043747200145,-0.0050934012206900695,8.67
0.08350557864262337,-0.053545062221636075,9.720206064230284,0.0015904284918245412,-0.00876275451031265,-0.00371473494301953,8.68
0.07992656459895921,0.009876761483078117,9.73505154650807,0.01139782978654396,0.012506711392451825,-0.008625999097366053,8.69
0.10240472561736934,-0.11585803208062656,9.71217877305356,-0.020196460222124173,-0.015098996952853817,-0.007035427988497212,8.700000000000001
-0.08017812730789423,0.08335413633307931,9.954623980867224,-0.006383253385385539,0.0032446185262463936,0.0034230982795211235,8.71
0.044444993409258816,-0.18801207673535142,9.80288197854009,-0.004320660354921567,-0.010470928135759745,0.006827657884312525,8.72
0.10119618354761949,-0.19759100617440975,9.860039099236037,-0.026389982438342122,0.013340568777221345,-0.0187571174897376,8.73
-0.15855582635609614,-0.03070289239360155,9.742087768024325,-6.582207976507918e-05,-0.01135283395026383,-0.0022413181787732557,8.74
0.31013107436577975,0.07119429927278541,9.77844721378561,-2.04531359085412e-05,0.011575029528457244,-0.006601018341753412,8.75
0.05387040952622138,-0.059968516003195416,9.881791976414842,0.02357920459863346,0.0005677484353756083,0.0028290626270862347,8.76
-0.15041817198218452,-0.23107753431069528,9.895260451004788,0.0030848823243161826,-0.0002549528394864561,0.006483139266982763,8.77
-0.09908499465006188,-0.014293292456814578,9.797470370608684,0.0038866305444086634,0.014314183483227421,-0.001646809915855067,8.78
0.0031507100062114347,-0.008287407181674129,9.819126863837166,-0.001601146662045755,0.00895386404849322,0.003562353484295129,8.790000000000001
-0.09580838574218152,-0.05598288468507034,9.745532142575536,0.0023066990810015515,-0.0015325159397186535,0.012058376975322166,8.8
0.18061812196120022,-0.04797069278491062,9.82207027871883,0.00016828746521986432,0.005686416900800916,-0.0013926571890168658,8.81
0.0565185922786888,0.01002143069902798,9.742695191578532,0.01097041234475173,0.0035754736560138457,0.0016571185546716478,8.82
0.057476223012795806,-0.1364984559892516,9.770573056502453,0.009028138256017398,-0.02490801479927936,0.01198665642145132,8.83
0.20841795533384833,-0.11430917344842456,9.731853973861199,0.006907795334523712,0.011427715044862008,-0.010888876246895355,8.84
0.08233899001972463,0.24553025957049,9.673926394817896,-0.003143848038801601,-0.023587417801651887,-0.00989158901026992,8.85
-0.14921972489729549,-0.060423667731827925,9.87733071642314,0.0125470982163553,0.0007181804523494331,0.012510905358106077,8.86
0.018999552382175374,-0.030342383062616104,9.641577522424754,0.0004231907915129992,0.0022675507996576883,0.003587691541918936,8.870000000000001
-0.16986377939416122,0.07823385280986711,9.791335230257175,-0.0023560346530801216,0.006457971659537884,-0.003203229755982046,8.88
-0.1256383233020719,0.09053508947584887,9.763277088827351,-0.011291544623393482,0.0036624027198037335,0.0053253892393338165,8.89
-0.04829036455169072,-0.2286195976539961,9.750672105905391,-0.013833499580512838,-0.01158075518851879,-0.0007703865984098854,8.9
0.0649490856532737,0.12777275429823054,9.94648878197172,0.006070703004389804,-0.017453270060521445,0.007399904977305172,8.91
-0.1261523397014027,0.22396768481133622,9.837587974075605,0.00733200911852185,-0.008698892255359102,0.004107192588888488,8.92
-0.013699554607356801,0.03883795431399704,9.940815833890257,-0.00827359594064451,-0.007564050514494464,0.0038978813451341706,8.93
0.1898614799436196,-0.09781239223761112,9.964428717006147,-0.01374787841702294,-0.00423191266714929,-0.004212941645099803,8.94
-0.01999972150819103,0.09370355628443298,9.937693699230213,-0.0033201348014460816,-0.007735484782178847,0.005118960858600681,8.950000000000001
-0.012692603568943953,-0.173523535323055,9.731784082067213,-0.00528605491331641,-0.003646298062407091,0.002707876970649661,8.96
-0.06758213958096779,0.08470351340349067,9.992662006459724,-0.0028785997607319556,-0.007162906137106021,0.012038600788392393,8.97
0.2089360361413058,0.05808691315477099,9.725882400268834,0.024971588249019336,-0.008746247720617994,0.009498854028787298,8.98
0.08938045328236477,-0.11692929348568315,9.965485067264888,0.02017135812760315,0.005764948140337528,-0.002888014434958105,8.99
0.1258887873782474,-0.06506276755031105,9.848257815728681,-0.0005823083141988262,0.007787950481682134,-0.012846810796224937,9.0
0.0958345265568702,-0.039033343777405693,9.889428866537129,0.0007736167172379923,-0.008794625684040878,-0.00889965457038284,9.01
-0.06564078342781265,-0.002100532416999337,9.810072316018465,0.010269433229913933,0.0007994494133002363,-0.004438824471703518,9.02
-0.10325873275017346,0.07730620088998796,9.670464606639895,-0.01156297682648545,-0.00667055702875373,-0.0034861947187579284,9.03
-0.002453211509896509,-0.05773453296096505,10.002789142748957,0.0018325211404102157,-0.0014560850436869854,0.006010718315918423,9.040000000000001
-0.012833498332669653,-0.029174032686172493,9.639724881466115,0.008631957265922412,0.020176571245131027,-0.006421430932941637,9.05
-0.04932075070805159,-0.04506971144340029,9.772696584346226,-0.002226079864461898,0.0026221040432939857,-0.004003451954322167,9.06
-0.16385539673877236,0.0779039962649723,9.738671593639769,-0.005649556139678517,-0.008462258507956774,-0.011988110702411188,9.07
0.12729254694588862,-0.04057307934498344,10.061077690802014,0.004643385918412087,-0.007439087002071654,-0.005102187694222488,9.08
0.061210050807618877,-0.03671414516295625,9.79278908915154,-0.00595198970094019,0.004951155311469879,0.0030091829908797845,9.09
0.05289320469642278,-0.20449874721267838,9.925198454972076,-0.00029722589820102254,-0.03087245625495823,-0.003367953920636617,9.1
0.0005763796398476729,0.23553284315396367,9.882900178947175,-0.011920470353702972,0.0004923862769292712,-0.0035026359532136743,9.11
-0.014024509070353944,-0.05092106556031422,9.737136836891997,-0.00137076344210023,-0.01802682227884289,0.011529817703832839,9.120000000000001
-0.07543378340633466,-0.009383267981967865,9.792063225961328,-0.015430950884721264,0.008314717402542969,-0.01862626291192538,9.13
0.10047881799975417,-0.08339285447904504,9.85157385447846,4.4795829434380635e-05,-0.018684183483131403,-0.006205967315464334,9.14
0.20200267372591704,0.055796787840959844,9.921366025596694,-0.0008634303113361748,-0.0051235996605606985,-0.0082482476811999,9.15
0.043586734633347224,0.09079915025269031,9.846099555362862,-0.0179927365261549,0.015840293346443542,0.0040413186848116504,9.16
