ax,ay,az,gx,gy,gz,timestamp
-0.12231652808179741,0.18131803279296874,9.669798960532784,-0.00022581824981399376,0.010000007790723875,0.007786045700820318,0.0
0.0005237391742448807,-0.026115016087280965,9.783487573222823,0.00027842085772953175,-0.0025089504802521833,0.0028908382962471967,0.01
0.1470326196320777,0.13953287985253437,9.80528014450475,0.012299286872496764,-0.0040626043216171704,-0.0003875793258806438,0.02
0.044424037066698334,0.07673480510481262,9.784352321642453,-0.01145371421581384,-0.0016447971679165315,0.0023103311307632944,0.03
0.09542783629783247,0.031245327414105975,9.874242501212354,0.01195929640337131,-0.0004893060230183396,-0.006583776585327864,0.04
0.04830741093098966,0.19994914991542312,9.98838124149917,-0.001576315261842367,-0.0029000423554439176,0.000333100362111878,0.05
-0.102440922009013,-0.12255117786089278,9.829756099716784,0.00348093099498482,-0.0034993326842486833,0.005422805569166354,0.06
0.17857402964581803,-0.147846381070009,9.627124212918186,-0.009344840560856965,0.0038474812387018715,-0.0033007689669881696,0.07
-0.17318715658872166,0.07234492890591411,9.808565160474636,-0.008978376858623927,0.00583330108918652,-0.0006888052933229693,0.08
-0.08337211964241821,0.09570854484500818,9.969966398167262,-0.017284451719065227,0.01335804667580795,0.004726353900983081,0.09
-0.1368156555674262,0.04740087280949054,9.898489223074913,0.004229281025746755,-0.009037965898955447,0.012600381009875188,0.1
-0.03072021123694825,0.051830330703008166,9.790583546241264,-0.00858822976175976,-0.01569026514229519,-0.003067715851992863,0.11
0.021849417989545886,0.034069471703189205,9.86042581718772,0.016075095680261567,-0.003690714865987596,0.0029327910891862995,0.12
-0.036275843840667406,-0.07106134137432345,9.868554220969264,-0.0041883082757274565,-0.006963418541255914,-0.008885869060703471,0.13
-0.09282328099105991,0.09048146689023134,9.943554944774247,-0.0007532865094834062,0.000394053687427436,0.0077084877444129245,0.14
-0.04069051372615867,-0.09455033524048724,9.913235459929725,-0.0023774009643741075,0.008817980956094361,0.00045694042656057525,0.15
-0.16244218729183618,0.11723544298597868,9.928941539153056,0.0007274475550740465,-0.008729631121816636,-0.0035463149534277136,0.16
0.07672005153452761,-0.09490601107525554,9.7776124011297,-0.005414999655231392,-0.013866901205112756,-0.006363337702191288,0.17
-0.002561699013870456,-0.07367612107498879,9.759041839864874,0.011419139232525619,-0.015508463361997793,0.008067623649894525,0.18
0.2135576143183669,-0.02662843025119682,9.71725824430402,0.009173036299900314,0.002999924471163789,-0.009399945621330211,0.19
-0.1503849683891096,-0.17559509428504444,9.758100903362182,-0.007365768115485492,-0.01300001921921388,0.012899096648824325,0.2
0.16929829533591098,0.08822841353645913,9.654452408570135,-0.0013044048869496297,0.01019484645366781,0.006473445244389772,0.21
-0.09993043197402468,0.12735685485021903,9.912867733094213,0.007600235335031679,-0.004498552941026621,0.008521644544237978,0.22
-0.09280672376994611,-0.03658183374915052,9.961767121122838,-0.014333207285481073,-0.010856514219981102,0.0031071924598533346,0.23
-0.1281631699380282,-0.05904832783212134,9.643853773937602,0.0083975466890556,-0.014096124808277585,-0.0067880195922001355,0.24
0.12270231666700147,-0.05640791667632972,9.816994715826661,-0.006068077447692867,0.010855630887421697,0.0014298984943356384,0.25
-0.025563735463254373,-0.09918671967909276,9.815963155343912,-0.021790108650097367,-0.00875041751706511,-0.002442284019758673,0.26
0.03907344019284511,-0.06416657790127743,9.768492575776612,-0.002034538562137078,0.014739747339914686,0.0002217824444585041,0.27
-0.1251868727087913,-0.07794322288070044,9.774354105659507,0.022336002228633103,-0.011561078183849105,0.003464402625858721,0.28
-0.08132897752497828,-0.10398839289371326,9.757788937050456,-0.016035165785547534,-0.009775753843638107,-0.009880393448644881,0.29
-0.04299343044094016,0.11319004991943034,9.682990330913908,-0.00697076427720173,0.0024576015131976925,-0.001894869034608227,0.3
-0.07631057770563382,-0.01919582586271714,9.92198369518858,-0.00895992412234078,-0.012902861509411922,0.0002123739959365852,0.31
-0.08169912810704377,0.08357043747130301,9.86707276851022,0.013341703707425838,0.0028929280937453066,0.0009230403383288571,0.32
0.07386540665030493,0.04122934620713057,9.888879945083064,0.015631403774775027,0.0035566845316589756,0.010802034224251625,0.33
-0.12209349428730287,0.02778837284176739,9.839393876451231,0.005540744555690733,0.0025671388403761693,0.0010643952884859384,0.34
0.10220867785981202,-0.00824047034004257,9.97716079526847,0.011463650377871577,0.0038340920815341816,-0.009303398804108387,0.35000000000000003
0.1470309403584755,-0.026463598838745835,9.579045886266922,-0.0009767298625775892,-0.009209938936032268,-0.007127557007946944,0.36
0.04060221160830387,0.09807916625704702,9.790404464194603,0.008194907746064527,-0.0001319828077415394,0.0022269119623274285,0.37
0.10084243304448237,0.1648980397730883,9.85854990837084,0.0050301533733694065,0.0002164613712642538,0.0008970850689288297,0.38
-0.03757369696911919,-0.11227510366616276,9.768494155016658,-0.0003367918643840761,-0.002292832693718379,0.008359766676267508,0.39
0.13179293095667377,0.03472352167702191,9.774331576293685,-0.0011241097175246628,0.010912884609158924,0.0041490258176646155,0.4
0.10338105929973061,-0.022230586422250582,9.912005108274618,0.00483306866860606,0.012608833863773483,0.005519148139055341,0.41000000000000003
-0.07774915844918219,0.0866567250693685,9.976491548920428,0.005763930160847317,-0.007991329871670068,0.0020874788918733888,0.42
-0.1742506609226624,-0.07790813742862246,9.81494231943677,-0.002546677916192567,-0.0005246251551349143,0.004785826196557432,0.43
-0.08301735072531247,0.1470413152026014,9.69492501575422,-0.0040107956000192185,0.001750535959811001,-0.008506655240146028,0.44
-0.02730596190987852,-0.0013771328929745603,9.735948258421361,0.009004948238070652,-0.01562469787962417,0.004177421302254055,0.45
-0.04371442904130595,-0.04617234976601624,9.782744654383189,0.0033541335148550774,0.008336026102460403,-0.011007614707118349,0.46
0.10454034766094006,-0.17322260005302081,9.959182747213077,-0.015612120168774014,-0.01655333495822977,0.00040440160343782605,0.47000000000000003
0.05744204693034741,0.05149046057092284,9.69758141663412,0.009774636488593877,0.019912562860401335,-0.01790713377010355,0.48
0.010615429279382485,0.03003140819508069,9.790833147839754,-0.005414405887763334,-0.0019907379255431493,-0.01908145797611409,0.49
-0.0385863528769399,-0.19645664971267812,9.782213173017166,0.00031463889952548834,-0.007678109542908428,-0.01066753155827693,0.5
0.055819156644045735,-0.32769848162354126,9.881373837972454,0.00993697268971255,-0.011600105559172423,-0.0008742119602760158,0.51
0.07404725341213914,-0.012732048595092069,9.733919516595815,0.00627865596879971,-0.003789356962386699,0.001995210594626903,0.52
0.028497606885603346,0.34861071312339176,9.813704383569474,-0.005679594462979439,0.007090584805225718,-0.01125512128976281,0.53
-0.03441099676560726,-0.05737190025700645,9.930635709792588,0.0033493611851993215,0.005848083803639953,-0.0016302910069181287,0.54
-0.071496811924105,0.0037018080213273743,9.895359182765933,0.01021443531751238,0.019204652207152707,0.0012769645870163598,0.55
0.07447395366388586,0.05285565302621912,9.672271866078521,0.009196673255242245,0.008266237918031848,-0.005259491614549805,0.56
-0.02395500355999518,0.0173326344719839,9.685098618042,-0.021959558012307385,0.006082696884883564,-0.005908979840651988,0.5700000000000001
0.005474091527437387,0.15950984921532851,9.849340212820781,0.003285156041216382,-0.017983293427813418,0.006356501500840458,0.58
-0.14730870933725917,0.04476196483432724,9.828326095609059,-0.006936103344191544,-0.026809661343484104,-0.0007398202939571817,0.59
-0.03404039863216107,-0.28252182956364796,9.784373614700248,-0.0014515408465030403,0.004586406862568398,0.010093794505902323,0.6
0.02637908425333176,-0.04880803299536726,9.790809221603388,0.0032977285083745484,-0.00023757873939485405,-0.00539258209734365,0.61
-0.03768788508631169,-0.05511666434265159,9.76966736240151,0.003982707708729121,-0.012162775535305256,0.01035341921698637,0.62
0.012810959098101158,-0.1238467689192045,9.599147674979191,0.004842513624597152,-0.01151568719556643,0.007569363267866531,0.63
-0.0019232695066279872,-0.04013390796565767,9.664755255745378,0.007999384382210767,0.002193879764569057,-0.005256037309508009,0.64
0.054066792173249584,-0.02289680024876584,9.923668003540042,0.004425137023246118,-0.009262037520475573,-0.0028732193119426104,0.65
-0.031176113946876312,0.18750714343778774,9.730069540682466,-0.027592478772275095,-0.0062511098909679074,-0.0020136531227108257,0.66
-0.10410823315737,-0.15918962144886353,9.528265712380893,-0.004993171943074985,0.006096921560088551,-0.011282740696392585,0.67
-0.044747099427289445,-0.08622404657558773,9.933006143478798,0.0005253162086171542,-0.004027167412750612,-0.009066640990976794,0.68
0.021181216523213454,0.03914100610914668,9.93268845644698,-0.0011956337209201567,0.001859742460126658,-0.013815482059805848,0.6900000000000001
-0.07550720287441065,-0.19615162462916746,9.684246643921858,-0.0069864161408508384,-0.0009132801302833449,-0.0033073679136753735,0.7000000000000001
0.17439993448613067,0.1304935504985925,9.686526635233259,0.004176855273482743,0.0010495267039108585,0.0039010535991785347,0.71
0.03783831430907515,0.21023495756229252,9.948233559758247,5.714011171350472e-05,0.015075003055065095,0.009372372868423682,0.72
0.05284411789739357,-0.11678036997304692,9.775237146796316,0.003286497236245815,-0.004891389243267259,-0.0038136818698201887,0.73
0.06346832323028855,-0.04045484770405521,9.917411044120778,0.0013212187890732628,0.0021518214162523867,0.017222523838049265,0.74
0.014950272341403817,-0.06685337159964773,9.73847863996789,0.002023484347518441,-0.018438220673212262,-0.01706867628893093,0.75
-0.06477866122448413,0.17785774370801777,9.617575971131217,0.014034831281825907,-0.0063785721096979485,-0.0034335199324393557,0.76
-0.012854100016843357,0.17447855369784873,9.650674345541038,-0.016488901411958565,0.005739526616625486,0.001995301675765818,0.77
0.01068887228741811,0.046285134509346806,9.806681428463008,0.011080866376628704,0.002087694550754292,-0.007771711071550806,0.78
0.09784169855948338,0.11639567515680888,9.76350598225287,0.013499431329869523,0.0014541847473630454,-0.005638811607749242,0.79
0.04619900034278868,0.21404050627899288,9.868019367130955,-0.004943349725252592,0.004205054869786117,0.0030115995911990587,0.8
-0.062018523302762044,-0.04228637204730496,9.971662977463213,-0.009984090762382667,0.010915913755003321,-0.01335232763149919,0.81
0.11857637644800441,0.07039680364048913,9.758728307224558,0.021455392955015907,-0.00369940264765385,-0.009312333979055213,0.8200000000000001
-0.020572401731104875,0.04361428190797232,9.62601284604348,0.011562541916992526,0.0025953932042738154,-0.006825061961266492,0.8300000000000001
0.13975436806873576,0.045507096402453595,9.883286680367437,0.011950688252741428,-0.000586635212586614,-0.010970706123121312,0.84
-0.03417994610138114,-0.12002575297783331,9.722349395280746,0.017466785476975548,-0.022886234845728888,0.004604375451558987,0.85
-0.04738633657876319,-0.030880213639320392,9.818147027535176,0.007626033372189461,0.006653581102385482,0.002680321672676846,0.86
-0.2860130957512089,0.06169749768947044,9.80504785461255,0.004241190799433371,-0.0013145965977825142,-0.011139410779842233,0.87
0.14467306594896018,0.0604617350455422,9.787058889881152,-0.011264862590044474,-0.010251795135393222,0.006966762996172917,0.88
-0.022360785111433305,0.17505485875610044,9.78935451290092,-0.005375968731801775,-0.005942696845012434,0.0031508681017861475,0.89
-0.2931109695049934,-0.0374941207799661,9.701297992673975,0.003597384083597148,-0.002998540829403557,-0.002721593966085376,0.9
0.10903407098734473,0.08424147322366166,9.783615423418635,-0.0078025575719611615,0.011561717040448885,0.003559743449875678,0.91
0.0936037192583985,0.01602716423298656,9.891026976947847,-0.005640968669612869,0.011974756778110896,-0.01059470630748069,0.92
-0.09250537779753246,-0.027239976479373963,9.929734021510612,0.009360919605719012,0.007707663533384915,0.011582186781609953,0.93
0.03872696686301921,0.09940381776261775,10.001467081734585,-0.00246169260777369,0.005049123643396568,-0.0028965107658830416,0.9400000000000001
-0.14803719791154418,-0.03963789562325057,9.78191663286313,-0.00046507958250631003,-0.023128667222422995,0.00708263822294966,0.9500000000000001
0.09639731419815228,-0.03086409848238347,9.821751572253413,0.007518503687773543,-0.0026692015898378304,-0.006084161325078707,0.96
-0.15435952237071524,0.06499900256631864,9.630805091501339,-0.0029953075127686795,0.010492628889439306,0.02079791629506922,0.97
-0.0029740609569767294,-0.052760518944446604,9.795280235463714,-0.015478412576331773,0.010172068327528242,-0.01999915672154349,0.98
0.052482827324045814,-0.20056679181476877,9.810089760387363,-0.00967551978763505,-0.0012125098161259464,-0.0037742501033848396,0.99
0.056529236801255406,-0.09755905032602458,9.886269122679478,-0.0037981093244311773,-0.011244382690860396,-0.007911369624557137,1.0
0.10536621399884392,0.043552690590073405,9.799611718194303,0.00026684042878965245,0.002464732570217365,-0.005148161119739695,1.01
0.05749840902623822,-0.05952713042173298,9.764086501589736,0.0105545446741072,-0.008117179428908524,0.003102414243688605,1.02
-0.03736571978679761,-0.07342575412410417,9.850126446998216,-0.0030760314120723796,-0.009142674124109417,0.004642110628403952,1.03
-0.05700121059723782,-0.06736453603913606,9.778774906959532,-0.008869875798659723,0.016858870375033697,-0.010194153846117373,1.04
-0.1198838533105394,-0.03209859883727325,9.609626043612645,-0.01088863285659952,-0.0006819096029243,0.009343448060710219,1.05
-0.060201439756259426,-0.08734701539763035,9.956980480150033,-0.005227038262824252,0.021495955478167465,-0.0011072933006131306,1.06
-0.026112579994652087,-0.07046969114932904,9.92579099479692,-0.013254376353981037,0.013846491856486209,-0.004439394540090802,1.07
0.06902599674690488,0.07280817983839714,9.77456917701182,-0.010076004209400333,-0.0012471411127674685,-0.008744881225731933,1.08
0.09575745051667811,-0.19296024600910003,9.79457214660581,-0.006315400091488893,0.009773786789922525,-0.0030897859919711917,1.09
0.2500770252958872,0.03846145387754768,9.655039775627094,0.007792430683713856,0.022435243610329256,-0.00766266768687381,1.1
-0.09058729406624644,-0.16975760562009581,10.031854999404874,-0.0026912987918296383,-0.012533972326064447,-0.008412790784235217,1.11
-0.11764375570605441,0.10137561765692422,9.725018454619448,-0.01884469695040281,-0.017758967395583813,0.016381724797959043,1.12
-0.07609374708153216,0.1150631709967997,9.782105972808097,0.004578541902142947,-0.0017398617039243388,-0.015372940355378317,1.1300000000000001
-0.11719954073367884,0.01922571974034807,9.79926081102566,0.012343437030270514,-0.020996621295605377,-0.014538701875091353,1.1400000000000001
0.06497470125553441,-0.007950064444197966,9.83572333028441,-0.0036254307092620985,-0.000499613837895489,-0.011657015310943764,1.1500000000000001
-0.09195350421112926,-0.04456493517431556,9.744419449221754,0.00031166135016207514,0.009803912945606851,-0.005077223051947657,1.16
0.1466728017063356,0.21788142229047833,9.688019124339462,0.010004556362299978,0.010174468747514445,0.009561138936071172,1.17
-0.02930315145534166,0.02995905660280851,9.761948489805004,-0.0020942523446292284,0.0002591001198045739,-0.00837653336793077,1.18
0.038923344491527706,0.03327949815403092,9.892772283588151,0.0003044903835101483,0.01917614082862376,0.019372484190547785,1.19
0.12948169161494735,-0.1464808194228186,10.023405361300526,0.03378607950750865,-0.012213969157156208,0.003138064130105843,1.2
0.022361797919294657,-0.12885864938280775,9.761450101401842,0.0003159946453617273,-0.01280901144108048,-0.011809591232017188,1.21
-0.21148780610593715,-0.1003659599606228,9.633231865733395,-0.0013599930957761696,-0.010738987433230922,0.004465287863564839,1.22
-0.05868080442186694,0.013703992026255444,9.871409647924844,-0.008856598438548902,-0.00452151011954701,-0.0015490208113987144,1.23
-0.004246443190841871,0.010123384975831342,9.65402501355812,0.004657403220210535,0.013921119210300035,-0.01667972793453671,1.24
0.004543844974755542,0.15300130203671558,9.817082298575219,-0.02024785252355643,-0.0032481032160033467,-0.005402670183564015,1.25
-0.08020645638325724,0.016807673199072514,9.820496478548712,-0.004423801945597027,0.01982705324924437,-0.00639632114332548,1.26
-0.07367205452961272,-0.17969800265720937,9.772684128257609,-0.001207718787883461,-0.001676908593141662,-0.011667604065577241,1.27
-0.05201591502117356,0.027757613053231014,9.860171318580486,-0.008088960820774009,-0.0011686636118707048,0.0004816049578927353,1.28
0.12477537742929577,0.24901084918565064,9.800390172192838,-0.006144213808627825,-0.007260529398661867,0.01978831602531276,1.29
0.05720095046860124,0.09259124613670058,9.67408717614903,-0.01916894802251928,-0.0044551226729345195,-0.008600354812445338,1.3
-0.18985003283271007,-0.10229510136275007,9.739777495393398,0.0036555494686887915,-0.0005960062192765374,0.012587623373684189,1.31
-0.01648290597480574,0.11778883900878055,9.90174980806815,-0.005711535739024937,0.018194899166179116,0.0035814863077558087,1.32
-0.07648889900217803,0.0039934613190753315,9.802976650681954,0.004713124717676674,0.0076412143063998295,0.0003749406981834337,1.33
-0.10892015087034466,-0.018633498760044994,9.735476800548579,-0.001621382431185702,0.005537412522951919,0.0018100668228813236,1.34
-0.05220765723983815,0.24536676934529336,9.82695978013654,-0.028193357604774896,-0.008187995968886981,0.003938699499311311,1.35
0.025622317811119635,0.0424176999199313,9.766892649600834,0.012563875270738364,0.016096085193604767,-0.00484198307358868,1.36
0.04278534483790051,-0.0073513161645760595,9.801754201080065,0.019158710580302992,-0.002679046718196728,-0.0023605296083624933,1.37
0.007843267161335713,0.10833935234702635,9.758761493188764,0.008521153220707414,-0.01475101935173874,-0.015405218713882583,1.3800000000000001
0.0387765431224884,-0.03689221841671135,9.600471669342165,-0.011445838152211429,0.011314603467183222,-0.011091870601036181,1.3900000000000001
0.17211350580370643,-0.07352862095934695,9.767772505534754,0.007687103916796995,-0.006930896550228375,-0.0026704409216315047,1.4000000000000001
-0.09290306891640975,-0.013312274854198673,9.711413047539034,-0.005178511605550589,-0.007078192832019645,0.018651820837328997,1.41
-0.03848038440492482,-0.11221516134198604,9.816217740572363,0.0033014502100341203,-0.003568735119073568,0.007767086861400158,1.42
-0.08457547677484417,0.03979753145141356,9.926842764027208,0.03279120357542709,-0.013005688536948055,0.008592730324605514,1.43
-0.18471378706264585,0.08642185555043941,9.91243559007283,0.0034475365661610817,0.0011170645540205103,-0.005131859333715231,1.44
0.12488274536360207,0.05447608899562435,10.042862327564315,-0.010589168284813474,-0.014175280633219718,-0.009646498872606504,1.45
0.1085853991420204,-0.009346976068479054,9.916266552768386,0.008756284187711974,0.01692981380727668,-0.001547621217190812,1.46
-0.007771396384820082,-0.0648299477019336,9.82070918716168,0.00201040435287156,-0.011989174341721578,0.006846091552328597,1.47
0.0011186625237704026,-0.0065878023761925105,9.83688126519844,-0.006805258621994162,-0.0013065188917169416,-0.001958588500267592,1.48
0.04958259723320316,0.08198445218719555,9.848263295287172,0.003701407711718047,-0.0018009884483547254,0.023388493555688745,1.49
-0.02535423835440779,-0.04806035780536134,9.818184830062403,0.006644483159982165,-0.012463899989952312,0.004080695900411475,1.5
0.04287449290032372,0.03583358212747269,9.936752672705222,-0.003044226142212747,-0.008394848415084656,0.0020827682691661998,1.51
-0.16300863520520734,0.05128496482902117,10.022962444606344,-0.009410443362397323,0.008042825282430508,0.006292362078093869,1.52
0.03740545031352526,-0.10840900422354754,9.673978229706185,0.01025261527743246,0.007532516093079171,0.009156800879685184,1.53
0.03724185072867844,-0.03464521481200537,9.735720385358341,-0.01883127348329119,-0.0023915007892393006,0.0032628834246852525,1.54
-0.09548072829195074,0.13579214092978595,9.946966493171471,0.0063254036755186005,-0.009842412693345879,-0.022259019446359055,1.55
-0.004959827013933533,-0.011887444937615602,9.908153435218782,0.007737065198294012,0.011499051925128803,0.008530007097809784,1.56
-0.03644136781221491,0.2609844672392926,9.715718203549102,0.0009693574638064255,0.010056162101789895,-0.00010778546485729598,1.57
0.0402014812410048,-0.11927164835129155,9.851510965621381,0.01630462282785762,0.023003514981206466,-0.008962234949706228,1.58
0.09828258691713221,0.07515107937597458,9.921998181278317,0.007517304826924303,-0.0030231700269768296,-0.006936522827334546,1.59
-0.009261349577886347,0.1701974310326848,9.955255513966073,0.008470417417082723,-0.015043644676225263,-0.002452660721300518,1.6
0.20581779842880873,-0.1781643845998254,9.850975375210515,0.008566628855598356,-0.013194018685905681,0.015030219356639252,1.61
-0.026351960513622086,-0.03628183200072588,9.899294373564128,0.0094087745034946,0.007333849924287587,-0.005990296228288477,1.62
-0.009112345297926224,-0.10402953114592516,9.829731699742611,0.010562304304722936,0.009372308652415479,-0.018294930864576734,1.6300000000000001
-0.006632444054823307,0.059070543956434865,9.864221971096296,0.0036273670290070032,-0.017961873158633335,-0.012653911196809054,1.6400000000000001
0.07828821091998141,-0.05254316880692011,9.784131628634368,0.019224274368401163,0.012481342332668982,-0.017799574241398233,1.6500000000000001
-0.07174522662952924,-0.24386618831124723,9.716788573349929,-0.0073156482193122915,-0.0049864051869809595,0.0012020822378976353,1.6600000000000001
-0.1057516993284219,0.12792949353613994,9.667221814269265,-0.007307674440762642,0.007171473504944152,0.012495586896059254,1.67
-0.132334657312308,-0.1475519386453634,9.857599313675573,0.00329070936238908,0.015097191315894003,-0.00795899902788714,1.68
-0.06847956561817166,-0.10482574143335413,9.842265624278731,-0.006691930960229387,-0.00039740428236206653,-0.008727887710134753,1.69
-0.02209839843879655,-0.13112482251952703,9.65482817581738,-0.0010817837153477157,0.008622045286926614,-0.004319318742803411,1.7
0.055374478986705694,0.011178596893565136,9.628134019384069,-0.0037267126551067836,-0.0024449837716595062,0.009260517014509796,1.71
-9.81330705032027e-07,0.05770310609195187,9.720870109547542,-0.0013494870288337658,0.01549064240716047,-0.002870230952248404,1.72
0.08279230869665849,-0.14160938632223088,10.019781014800268,0.011452176807235237,-0.00020306368830523056,-0.004679651800382389,1.73
-0.008207396582142354,0.09061998028898641,9.738733137321091,0.005878118908332818,-0.006848378896696295,-0.004956571126069184,1.74
-0.10270108713745665,0.03439235493520372,9.70634799100705,0.014400081543252485,0.010643844925722123,0.0034168358731570363,1.75
-0.15028557490949845,0.04827459351983535,9.788755249037848,-0.006748798496782015,0.030818373566889382,0.01419355238033974,1.76
0.09319532609947354,-0.039136714557908125,9.81144006191705,0.008243108844213153,-0.01841522272352064,0.005922625780206272,1.77
-0.17743185443218545,-0.22184331716058853,9.739494728518132,0.005875776093894496,-0.017541237853479174,-0.0074768235042086875,1.78
0.061473269967585766,0.04884409019910279,9.691633129552008,-0.01026603177523046,0.01662559744373618,0.010084970646722882,1.79
0.08550709696211395,0.03182688811411106,9.765482922971442,-0.005416826834234549,-0.018887238145034683,0.005219186708517223,1.8
-0.05741050907523666,0.012673498095066543,9.830895741210924,-0.0032197410151810586,0.006986863404331999,-0.0032782660529911706,1.81
-0.18988364186194948,0.07190837677400756,10.109904201198457,0.002768477772849179,0.00910907335918561,-0.005896557832018788,1.82
0.040888160183129484,-0.037400067429783794,9.847691228824578,0.0142397529090883,0.009648804633290665,-0.0014976191897934123,1.83
0.05964889821898997,0.023988315995418924,9.715383038581663,-0.007506870247675812,-0.011872137272183272,0.000869875511463718,1.84
-0.21183367349398197,-0.1742999926050084,9.887923751811279,-0.0060115916421969035,-0.014858509780094953,-0.0014206446563695594,1.85
-0.020476474089392956,-0.017849757039868564,9.693907576048614,-0.008875028638801678,-0.017558484340193633,0.0035287660419135287,1.86
0.09195306365326798,-0.010457129607266918,9.60890160664865,-0.001379648980992003,-0.005086491658089248,-0.0002476311789335211,1.87
0.12246844905401683,0.058862714647570404,9.79987294860753,-0.008568722586566487,0.010972215432717774,-0.005577450642165577,1.8800000000000001
0.12575691555763638,0.019449087162388547,9.96591310374717,-0.012179839943944169,0.01648240019629247,-0.0004770757470300048,1.8900000000000001
-0.0495324616381785,-0.09180166141852365,9.79169266965419,-0.001572275624636503,-0.007373860799345787,-0.008527499327020358,1.9000000000000001
-0.04674459015404168,0.021411033042128425,9.915752060646328,-0.00500888748555566,0.01647892850509543,-0.017867294243301683,1.9100000000000001
-0.056392352533071594,-0.04237495300759406,9.849348736922227,0.013080595369211565,-0.006799127995744665,-0.0012637050944998797,1.92
-0.0016265105010443968,0.07659392937235693,9.720236239385814,-0.03001029485421525,0.0008285414015347288,0.004928953461413714,1.93
-0.061891578427090845,-0.27828046407773493,9.762546328889428,-0.00018979571000546743,0.001956028350639113,-0.00482405288293579,1.94
-0.03240662823714826,0.05901524751530989,9.670540234545468,0.019248009058919137,-0.0028465634296506314,-0.01461281814659798,1.95
0.02606657507571918,-0.014832338832047508,9.691631664915468,-0.019696499472786594,-0.011590616004117274,-0.006798909309561886,1.96
-0.10826583081516253,-0.14301027693853893,9.769922934357231,-0.010574774778287086,0.014549917455809634,0.005456357318998525,1.97
0.08081467223126604,0.03092694860567742,9.651791521205544,-0.017253595517306975,0.011933578418981317,0.019132988124135213,1.98
-0.010859372301034599,-0.005914469463278269,9.890058604130857,0.007295700922997366,0.012114975133263766,-0.004719818621286288,1.99
-0.17463545240177195,0.012067099938289728,9.700845454547647,0.007107656122420175,-0.011244941065771102,0.0005449678447083875,2.0
0.01869157432823819,-0.15149206558829154,9.857638689933395,0.017972046926494706,0.013529174443041471,0.013029049936701302,2.0100000000000002
-0.0647262960414743,-0.0030671551303605733,9.72086396357382,0.011654324444275187,-0.012278339782788826,0.0013594102920487711,2.02
0.24980620175259016,-0.009780797057174419,9.914300447950168,0.007608628284655602,-0.01149359921494949,-0.010233893733937937,2.0300000000000002
-0.15807913217966263,-0.12538396911989255,9.83906400407329,-0.0028270591781340264,0.01369009024560527,-0.02266733011959526,2.04
-0.02071545718518067,0.20437282231280568,9.655919559104515,0.010526183350527326,0.0019489450710125393,0.0018444698164723683,2.05
-0.0037633232156120376,0.12554829157460845,9.69071878288218,0.010565799576816954,-0.01938222128514004,-0.005975821102998886,2.06
-0.052410233148693065,-0.1445408467529532,9.860864790652078,-0.0140158019310305,0.014963315477214717,0.012355308364030107,2.07
0.03550037414064972,0.04677485045972738,9.884374510055492,-0.01073527235722128,-0.011696415894182166,-0.02301590808900247,2.08
0.020857936828601514,0.044767574658525384,9.881286656734595,-0.0015272170822410336,0.010868218261238984,0.0116226862489036,2.09
0.13296086954204187,0.08299836292250426,9.753288849296116,-0.0171012273124765,0.016817382767966526,0.004557069763831141,2.1
-0.013370906941282727,0.0398930219435843,9.567008775267423,0.0038814026827338416,-0.003524528690457347,0.018650797424888357,2.11
0.13352184144355936,0.06789510033792578,9.964213178355841,0.0025399309630134877,-0.025890970299856667,0.003362609356640482,2.12
-0.12581293912289043,-0.12070451796132978,9.717709938504065,0.01612331225501117,-0.0011835084661829013,0.0025187614742684973,2.13
0.010858363068098781,-0.06116945476435708,9.807223719319817,-0.010433556978109697,-0.00042674765075924765,-0.02001121901655989,2.14
-0.06919472209606058,-0.14187748914201245,9.839641771773016,-0.002434525346705507,0.009382069805805457,-0.024966879765614687,2.15
-0.13963213100229957,-0.003303531644866515,9.809553694098367,0.03168230289746775,-0.008198247870008456,-0.004502619546440247,2.16
-0.08056510973904912,0.01830874218770318,9.758737042527928,-0.0012572147736493555,0.006868351826117758,0.011624978101103531,2.17
-0.10881323353337205,-0.010842833607298055,9.849841039032384,0.013968152359490978,0.016504803842597292,-0.005211682593662839,2.18
0.017681233076894586,-0.025811488511526218,10.011376937597307,-0.011779179274159158,0.008993111356263604,-0.001006032813417392,2.19
-0.14162000720566678,0.04694960338812253,9.748062547271147,-0.006378856536248736,-0.006177721115818894,0.00607457805681985,2.2
-0.04955067026709589,-0.06478328273201571,9.834104497341656,0.019061884302727792,-0.004123665446065593,-0.005000012718786548,2.21
0.12721445018216884,-0.13807101512042672,9.856554527689488,-0.005726706174168159,0.011513525531315951,0.0017374308373084054,2.22
0.07580140561965087,0.14651383906869597,9.75328723026958,0.010030267389924232,-0.01869763889494908,0.0023945522176223,2.23
-0.006037251488886795,-0.04228592642208203,9.727433532955658,0.003331552715046165,0.004341512888107681,-0.010354397313534837,2.24
-0.006258320330221442,0.09765630467227736,9.761176657870411,0.0015097777984905386,0.010075072203396875,-0.018405967947024985,2.25
0.05772495111634386,0.23260583454868305,9.829495324132926,0.004358753183945612,-0.005622545037169369,0.016332039988297308,2.2600000000000002
0.06433708693550523,0.22273745769972222,9.95860112965023,-0.0204344645194494,-0.005363461728622686,0.012493659496948318,2.27
-0.10101853270006254,0.039170464705117036,9.79026570098934,0.009853051552989062,-0.012393184621610584,0.0021577579985350764,2.2800000000000002
-0.05997791610019935,0.17704346172487698,9.639651960013888,0.012538470807612,-0.0011873308002559345,-0.006449094875455077,2.29
0.005428111088730089,0.0661481790279975,9.788622764942227,0.001882253324238002,-0.01659919472275115,0.010242408640313354,2.3000000000000003
-0.17416405015312572,-0.014338753670159549,9.83297439213331,-0.005812836816263148,0.005015733014600562,-0.010007200804046847,2.31
0.015586776018122262,-0.0420002871046665,9.709730282772387,0.0060513856634293,0.008162952264263192,0.0019064443767769254,2.32
0.13941976541611417,0.06323239260461787,9.670235618145677,-0.009624093636343046,-0.010314721676882035,-0.014245256103342879,2.33
0.013071527875660705,-0.12632311456154743,9.689081781761402,-0.00034495620920210594,0.0019072084853890459,0.007454440365446738,2.34
0.11104870720637013,0.0597723277490099,9.830833801503667,-0.012089931413459112,-0.004512184460732029,0.0014526224480300126,2.35
0.029253395574916043,0.02803136605355172,9.8781791820191,0.003875642409527959,0.00930938821988246,-0.014274916641880566,2.36
0.10697928487554527,-0.1409987205347544,9.732353705313436,-0.017341773074959797,-0.0033129146539961547,-0.004664679728348262,2.37
0.14445798970507923,0.15723233602562048,9.83900189312637,-0.016461912627362223,0.0014620095203209161,-0.007116487591692342,2.38
0.0678158060776081,-0.04806513172324391,9.604584313198611,-0.015645885833520203,0.001349622951325417,0.0003733759048520592,2.39
-0.1596988654825696,0.11688926041816639,9.67284100104979,0.002909403887808706,-0.0020193141309219234,-0.007364344122936406,2.4
-0.07554166419981133,0.16327080893603665,9.95208728382006,0.014877346467823849,-0.017672860106391228,-0.004480678051662111,2.41
-0.02209907534853653,0.1091566109529316,9.9541587488916,0.012465003708940893,-0.006799540880858948,-0.0020834107060167866,2.42
0.10826710673935847,-0.03578109253524776,9.724513017246167,0.0005428657978136367,-0.0003059059076425357,0.00876764872558611,2.43
-0.09658473466843154,0.04420204231789801,9.785088590335288,-0.0018934096552554198,-0.01421123976220787,-1.2676282589623399e-05,2.44
0.048452108138925254,-0.017693329315533465,9.916079162540726,0.009514703443809678,0.0033471100392392763,0.0059000385719216045,2.45
-0.019299772108430528,0.09694079890906526,9.773531684494358,0.004979133833776586,-0.012259345871983574,0.012336876701992835,2.46
0.06759912539274203,0.014853035021976258,9.579419423984683,0.003897827505649733,-0.010161619922377433,-0.008995048225198775,2.47
0.17170810402152864,0.09509134063886611,9.87874004592726,-0.012772012677624464,-0.01584214552904105,-0.01316142472898056,2.48
0.09401755677355961,0.017173518628206014,9.800655252749422,0.010079902535283894,-0.006495670713553335,-0.008060658593413938,2.49
-0.0004228919410839083,-0.10078039442628069,9.796762859147286,0.006678144312711802,-0.001795397723348655,-0.007893359136964217,2.5
-0.024116114551929257,-0.1621472153170455,9.674225842168179,0.0048286333308535856,0.0048885681041950825,-0.012358635359007233,2.5100000000000002
0.015877603309338597,-0.176641996653219,9.846637043595342,-0.0033017537459736407,-0.0006350206931009044,-0.006979715900216332,2.52
0.024098004973239426,0.13998298881467872,9.67945777443549,-0.007806862015546308,-0.018235183978220097,0.006470899814300764,2.5300000000000002
-0.046088303311532776,-0.038700654025460884,9.766028717279326,-0.006731918427721762,-0.0018600017556873148,0.013751813447898938,2.54
-0.032028492695422225,0.1378329401671767,9.65214011513481,0.008570898996529821,0.006727206616409984,-0.007761894193087373,2.5500000000000003
-0.06984743701815942,0.06216559623449683,9.876541822145029,0.004788148563808495,0.0024343132350451145,0.0014437946196091287,2.56
-0.22390408367601175,0.04700023055089755,9.982075818563438,0.011027608980331066,0.018670383735625077,-0.011276629121459127,2.57
-0.07066991294591672,-0.05594833280024511,10.050611356888455,-0.018267325314954112,-0.007195235141442574,0.0032271064157253855,2.58
0.08077084323869649,0.22734651437125064,10.027649333896694,0.012635990129283837,0.011331707494531258,0.0008407742023702506,2.59
0.02798799669918968,0.08301451421333914,9.893260104133216,-0.01230066813471132,0.012773239235577001,-0.010818501501299016,2.6
-0.03086605550119767,0.018270409383512407,9.563636939031866,-0.0035459075594334285,-0.014534165723049027,0.0008863869925188397,2.61
-0.0565639832632813,-0.16835909233124285,9.857208599249667,-0.01540299424680033,-0.01426660742939901,0.008484228755248664,2.62
0.008698671618303363,0.16214539799852123,9.90000166884971,-0.007989073633747101,0.007462362130720022,0.002990629005809984,2.63
0.09426974014405395,-0.11234350557655687,9.875371717361874,0.008290411086262543,0.00206106168578445,-0.0071639854549702744,2.64
-0.12129419255444329,-0.03484129407726352,9.749942731392105,0.0006357967132630917,0.013963899945060533,-0.010179961161372016,2.65
0.1189037752497574,0.14502723960633443,9.838231250984157,-0.007589523487113637,-0.014387781627978971,0.0016520039403227747,2.66
-0.0545775528011177,0.04365855013788994,9.942148233517031,-0.006337805077445866,0.02238360863868206,0.016874202791731952,2.67
-0.13113492333130541,0.13758389150207492,9.870338108468422,-0.008719276330886979,-0.0040026332783915,-0.0007520070805046149,2.68
-0.11020310662580837,0.12427999230144689,9.764785788737369,-0.015241114485724907,-0.004411604723330268,0.003154239293280237,2.69
-0.011724882849370686,-0.0916521876296498,9.858161388360086,0.006449848128213638,0.00040950045683117985,0.02059899154013893,2.7
0.021320378724758983,0.10864141103949387,9.739104797261957,-0.01353539305994223,-0.005677309620423526,-0.007686718125673112,2.71
-0.04095209458633832,0.1353663589717853,9.823970834260066,0.0008206918345077285,0.006771772905870308,-0.0088880483109662,2.72
-0.05894524996717078,-0.02983983520876765,9.754904455102807,0.014274092224431408,-0.008716679575002304,0.009415337295469116,2.73
0.0334297062481027,-0.0537846268253389,9.774951040508077,-0.02404601309145345,-0.007838223592825065,0.005875238797241137,2.74
0.11785706134456252,0.1965192324213803,9.834299266902166,0.010509630682785733,0.007358603947260349,-0.007033139228013802,2.75
0.05665046983076451,-0.08199333605995078,9.774583610542061,-0.009887435007154914,0.01355236996208759,-0.017580476881343045,2.7600000000000002
0.0784122112860032,-0.041555464983638296,9.953637740876994,-0.0014373210753465709,0.01741086402025932,-0.005356936980520992,2.77
0.12218849470810803,-0.26191644800689323,9.563802394023742,-0.003780175617325604,0.00015075923894532784,-0.0077309114373123435,2.7800000000000002
0.1897287039546914,0.019580166345724327,9.706176737138946,-0.010904848264535567,0.00501503767983503,0.007335264344394533,2.79
0.11975218139911802,0.0833634077511499,9.811060898388382,0.0052467124857755575,-0.015400602972997406,0.0004157322914233264,2.8000000000000003
-0.13480295843369006,-0.26675713552753105,9.716890671153637,-0.00118748380644804,0.01718405184508376,0.0026137959052946916,2.81
0.12353880889751168,-0.12356715678412951,9.787604262484342,0.009324521500259999,0.015747356528422383,0.003743616164391393,2.82
0.13983633898549733,-0.014360932964071343,9.72170896061189,-0.0055230739630116625,0.0017014931420250468,-0.0014096758293945242,2.83
0.06230145218862611,0.17962436813604085,9.846379176408384,0.004011348705304898,-0.005556022352974259,-0.0007216756236739533,2.84
0.09603922320718895,0.07727552121482195,9.978883203994362,0.0005621732962033621,-0.0027795017620726365,-0.0018707492481988355,2.85
-0.09335083776321729,0.09445115948294328,9.746790987311481,-0.008317449566611344,0.017369677437377364,-0.005793012204287392,2.86
-0.09305803135739038,0.061430780161299194,9.748305447996495,0.0012474031320465946,0.01754664981678801,0.023294899544492237,2.87
0.07172682004197038,-0.018672217272731672,9.486873032985091,0.006554419107702877,-0.000310908358433982,-0.010399651735669233,2.88
0.11021276308386539,0.15298326923325453,9.735536412903802,0.010930296370731651,-0.01042648483885126,-0.007881598997692986,2.89
-0.04548634127367021,0.04453869672646426,9.854440229446917,-0.004958357036280785,0.011622633587831926,-0.0006297333104910614,2.9
0.07937750886829337,0.10431423491404686,9.856427426120192,0.008388163621753856,-0.0032758380146999345,-0.012925011042979991,2.91
0.07891790782893275,-0.05722497328246018,9.781604463269941,-0.0036564162446273175,0.0034609977888103737,-0.005274302068653647,2.92
0.03194086691078626,0.12501260679788415,9.774916134808985,-0.007595763346010928,-0.008862959195143646,0.002187432062127601,2.93
-0.023352067789239265,0.10232251084796573,10.007963860628347,-0.007062518460217795,-0.009979515159020761,0.003831482505812442,2.94
0.1264785181857138,-0.13835690268262765,9.832854076426747,0.006419874052077848,0.01022409383360669,0.018922192638721573,2.95
0.002242955130728554,-0.028874606761236828,9.864369898500549,0.0062476080258244615,0.02155682298929648,-0.01231387255009808,2.96
-0.0976263455938774,-0.11274736813744268,9.840083085971573,-0.0014221205167008002,0.021962174622889935,-9.381265231788205e-05,2.97
0.02689681627790628,0.014245879024663052,9.831157542951866,-0.002382141819601916,0.011612270385070008,-0.017520365243811793,2.98
0.0889043685136845,0.10304116891446408,9.852084564762139,-0.01120155266400699,0.008541172798217027,0.015541017967726998,2.99
-0.1993742961420033,-0.07588003612361129,9.922628043296669,0.00288720724881616,-0.01308962938331316,-0.006890062441419921,3.0
0.031903564480641015,0.09347127175343993,9.848947309327006,0.010918641120159863,0.00286269665344693,-0.0047242481719162515,3.0100000000000002
-0.06637847428660325,7.124827717987124e-05,9.715704106733812,0.005139287897815168,-0.021106170065250396,0.012514674318750668,3.02
0.019741972164433425,0.16443932758466606,9.854000234024058,-0.0030732468407384263,0.013818582377401037,-0.012623436710385573,3.0300000000000002
0.06815964200415249,0.0782104885584149,9.741235857455946,-0.004243032969728286,0.00917709195953538,-0.01419998751558776,3.04
0.01300589440945274,-0.053350094669560866,9.701297064101,-0.010126682272248687,-0.0024563922387317305,0.0031249917071387236,3.0500000000000003
0.001621056202218749,-0.16583160609686198,9.855724452339903,-0.01128101098518929,0.002538016312409289,-0.0002775838887342351,3.06
0.14210143243339618,-0.2717243267781135,9.888895649638073,0.0013637964650028101,0.002738726012776565,-0.009205084979066067,3.0700000000000003
0.02300722437655116,-0.01741439463874171,9.709997918953935,0.003002431879628077,-0.012023399645087298,0.0026153921438891443,3.08
0.06254228774344554,0.06517198896992982,9.8220334176394,-0.021071693681356723,-0.0019688528838134878,0.001303074445605262,3.09
-0.1661974979804732,0.09979914559468488,9.84830114167015,0.005679424889791585,0.0018849279346514764,-0.01358314804257163,3.1
-0.04712155052034675,-0.0016055618305317516,9.955695204851729,-0.007655821568213415,-0.002989922899810444,0.009652690127058515,3.11
0.026520220554632552,-0.029494971742086692,9.860381019356392,-0.007124172090883349,-0.008501824988374148,0.0012583322817128664,3.12
-0.11701706056152926,0.011174912886407913,9.733679123864244,0.008919658353114722,0.004514203132390244,-0.004293961951799238,3.13
0.09654114505569783,-0.07660233730428405,9.785523416236213,-0.005937943780837775,-0.0036727291454493128,-0.003915775708556981,3.14
-0.11604386471601669,-0.181590719026366,9.849046979597668,0.0039779235430542365,0.013070700608057187,-0.021202289284134975,3.15
0.2140422581197272,-0.19932624129181287,9.79598297828751,0.01120695069507862,-0.006748924772863607,0.010214750090698554,3.16
-0.04673745500858887,-0.05505264017831231,9.912361848396985,0.01760884999914603,0.013427184554483383,-0.007468260657051274,3.17
0.064405245004196,-0.02941989548481333,10.068600914331403,-0.0037509230764607056,0.0004690143549643094,-0.009409269278138503,3.18
0.08394984483983942,0.019665294274697518,9.958612925966587,0.010137782996629265,0.017966030056498702,0.011435189737454004,3.19
-0.05238264925126177,-0.016164437856990455,9.801377639111672,0.00896591542125997,-0.0002562005501710689,0.004954903698182494,3.2
0.06561379282358558,-0.1489426246076637,9.692134352625123,-0.0013463300448363063,-0.00640543415308924,3.407123706762038e-05,3.21
0.19571666496276224,0.010284088207396704,10.031721140044395,-0.008410255721716733,0.001302114519944661,0.027601345897484485,3.22
-0.048514411228134824,0.11955645923794543,9.75089448196561,0.0027516536138031144,0.001742073002737436,0.0030300810875498337,3.23
-0.05664541355650257,-0.005588378155103477,9.809931895740455,-0.0020606397998140877,-0.0043189355489248035,0.003025565624384197,3.24
0.026533885750733885,0.09684297353161501,9.996638425649538,-0.005876936335770708,0.012588758595029404,-0.019479740351904064,3.25
0.08281348505368759,-0.06852732116772353,9.705418682552974,0.0001577588826232861,0.013233267057403858,-0.0033791403181729343,3.2600000000000002
0.004073059725557758,0.006785488072637296,9.79844214127837,-0.012424477308929052,0.019848477442051454,-0.0038568887359849394,3.27
-0.08182613998832475,0.06400043514011006,9.724640574403596,0.001354809490173537,-0.0062494815314396625,0.013657230308361908,3.2800000000000002
0.09606265134075061,-0.025866201000953493,9.826097762653333,0.0046240826059586425,-0.01093144908254691,-0.0038052169213892424,3.29
0.022698886931466187,-0.0302177623009733,9.780906911191595,-0.0007460551771953276,-0.0048885868077933,0.004388229570281974,3.3000000000000003
0.00947121513027994,0.012294808966048669,9.91215091758309,-0.01419912446511324,-0.005577530346624977,-0.0026859432749198587,3.31
0.07336873963180844,-0.017222147553684508,9.775065740378304,0.007772085628125682,0.008942623899189412,0.002614227741466054,3.3200000000000003
0.028599254896525053,0.08599585257440531,9.792479454731675,0.0009755068365640372,-0.004748701425010994,-0.01757950942059574,3.33
-0.1439844280979842,0.08689172706670703,9.856292452348685,-0.00825160387407175,-0.019306102045374942,0.008415632691775808,3.34
-0.10580734064038422,0.07314824238292283,9.683334541975748,0.00031902440692802226,-0.013926694094034955,0.004399749589053314,3.35
-0.12481907401082987,0.0010865578528012644,9.680534828234135,-0.007712329642337962,-0.009395598014993473,0.005165009868295815,3.36
-0.11508928260292386,0.020009352149433897,9.822534015852675,0.005038181387908788,-0.010170663940574023,0.0040188809841577005,3.37
-0.10090531488818417,0.07278059574873166,9.873729627429785,-0.008661878074829736,0.005248042320530625,0.022779264529177924,3.38
0.12135170490688914,0.0517889069744411,9.818281825050297,-0.023195705465798182,-0.001617045985549434,0.004306055760072187,3.39
-0.016131176091630704,0.09811546957089927,9.765060597383847,-0.004758886097329788,-0.0009132573354801379,0.01191984158839643,3.4
0.06379409587578852,-0.16921498130085022,9.706138681565548,0.007232679816341828,-0.013650233894276845,0.0005545192049825139,3.41
-0.02618925124746247,0.006991817551787952,9.74302435095658,0.011607091301296424,0.005425691711187155,-0.012775305762629183,3.42
-0.04193485172507288,0.001843525644866114,9.984738517174865,-0.008450009538972285,0.017875008103224514,-0.00645406877809835,3.43
0.06098481119140903,-0.021430874447877314,9.82151904460812,-0.010295579737279237,0.0005000694043946216,-0.016920228023852665,3.44
0.009342088464399092,-0.033483250777911346,10.019172772398072,-0.00871843353406267,-0.008806644377232352,-0.012920886264131326,3.45
-0.14843446953185893,0.07098979042313557,9.790228204211202,0.0071695640875001874,0.008551699471534724,-0.020909855586556902,3.46
-0.20009171977777265,-0.03884145214888018,9.704565217706914,-0.0006143432275780428,-0.0009860188776751023,0.007696190798291431,3.47
-0.023453944786523146,-0.006348774676419639,9.47872822173683,-0.020219900852162825,0.004191218123836232,-0.002571288734417227,3.48
-0.11742142309188433,0.16603344724969415,9.837633192846425,0.012593132897494868,-0.012543284157480088,-0.002690248512543908,3.49
-0.03580887768942717,-0.0229297867856379,9.716914179940899,0.019400999824175594,0.006987496696298868,-0.013104582570918183,3.5
0.04877130646756264,-0.018691840334678026,9.73104321643059,0.0035502268400984483,0.010367061988306003,-0.0015502024913326945,3.5100000000000002
-0.007310519054705412,0.20412532447008874,9.868290132456726,-0.013678378898030698,0.019420329149816947,-0.0011261960989128528,3.52
0.17457647929053316,-0.1592271172685313,9.78506586145919,0.0027228074930558534,0.007548820308124457,0.0032989267819090195,3.5300000000000002
-0.018586713191760296,0.029269651181117712,9.880470445466454,0.016561598472445996,0.006102504189192699,-0.019761951323025214,3.54
-0.16154197159945397,-0.13024173771784386,10.007987146953603,0.008156498161943063,0.003550504367141734,-0.010407997213861821,3.5500000000000003
0.17615901113695207,0.15137879477694355,9.808475302710173,-0.0004918528242130914,0.003487677313075159,-0.007975695906194452,3.56
0.09094636192091615,0.14338857432267627,9.772805370199096,-0.011324376110190779,0.0008998369159579901,-0.011151599097438817,3.5700000000000003
0.23408063660884895,-0.030455104819887197,9.820359105345025,-0.0028348101395931917,-0.028466967253953333,-0.0013998101627074409,3.58
-0.015579914249515143,0.025091669028236802,9.896996506184449,0.0002979738285015274,-0.0031400719729806803,-0.002552313658200637,3.59
-0.08126049066240576,0.1614757995007709,9.578203351354158,0.009044848617817899,-0.01279901081083272,-0.005014967556156944,3.6
0.09193826071746973,0.020891601452229933,9.858055641149893,0.004219916264932097,-0.007173597989180479,-0.009663396403877719,3.61
-0.07302395316264826,-0.01344138634114727,9.589281763970321,0.011885928849922005,0.01786866186707697,-0.00274337522583351,3.62
0.15414106560922416,-0.1533450815375634,9.913288005198016,0.0031023440665655117,-0.014532689100796845,-0.01815087372404196,3.63
0.23831017091855458,-0.02188810342492068,9.851145663430861,0.011496024021555388,-0.020273680500248147,-0.0014019830159238214,3.64
-0.02534852470250141,0.038411352616395306,10.01392463554797,0.006231259643266813,-0.008629872370770243,0.006864319624307035,3.65
0.04279271924144718,-0.0038675238568969764,9.861608552149011,0.0040054335125817,0.021144607006926948,0.024582307780510113,3.66
0.030953030413648004,-0.023604097186006243,9.754330160008717,-0.003991346096323548,0.0007090844504846224,0.0009527262587408628,3.67
-0.007638003202012459,0.06406578717867027,9.790234182856734,-0.005406028869866269,-0.008834021905702387,0.019058466883802232,3.68
0.07737738747615949,-0.08856566608133742,9.708341969224694,0.0029830063472345864,0.0018343333787556957,-0.0013909132058918133,3.69
-0.046802203514668975,-0.03436151173651839,9.957029249218417,0.015488051446709245,-0.008217154869828231,-0.004112628911146944,3.7
0.22016569006683953,-0.13637809121632885,9.84435133735688,-0.011613642157307001,-0.01113637908107504,-0.0040662363377730925,3.71
0.0063002081882924475,0.10112436560021794,9.729668590352258,-0.0025825087586858367,0.014446618821473032,-0.005192379559378294,3.72
0.07637156654821453,0.061829326443300504,9.958513146990398,-0.005531206536301215,0.0009199394675087971,-0.0025109656868625746,3.73
0.03712725053469007,0.01941646666647856,9.892770031654758,0.0024138302923000076,-0.006838640741857392,0.007894773527741341,3.74
0.11741904416037535,-0.023526017773441366,9.659848086159732,-0.00811518481758923,0.0021563481274523505,0.013418773043575263,3.75
-0.07064412354116999,0.034384986619942236,9.776754188730528,0.009242744289218044,-0.003775385508279016,-0.012831907335753064,3.7600000000000002
0.14155107394809838,0.12566563048660287,9.770066663233163,0.0031365656133515887,-0.005815679008155202,0.009426627474427804,3.77
0.13133010515597845,0.21400119417011987,9.91104976281954,-0.009969494969680344,-0.009697503881988747,0.00835251064160922,3.7800000000000002
0.09999717004812303,-0.18687666773514147,9.60623202624268,0.012174314780395554,-0.017287692476603674,-0.0034467361315499057,3.79
-0.24428370863501037,0.046054866483724054,9.939187650433643,0.0019644058884601264,-0.0001413466082121623,0.008002373644866811,3.8000000000000003
-0.1110735754626001,0.10367311399818613,9.840856205271095,-0.016622484824415758,-0.015163258722525635,-0.0033355537515768856,3.81
0.02697142836965968,-0.07204853929958728,9.867557863949497,0.0065948201393379495,0.023570923199337148,0.014698632615504071,3.8200000000000003
-0.11062453018338927,0.0895494151449801,9.704329320862422,-0.01645375369272372,-0.017466919678754723,0.015223787105209866,3.83
0.008052322250344296,0.10353978947617795,9.7724253894318,-0.006104120014928565,0.027153519744242575,-0.010203192581973015,3.84
-0.2088012860170058,-0.04363879982498582,9.931838569817275,1.96008724796796e-06,-0.00713535703780309,0.01684438849008125,3.85
0.07517168207293634,-0.07919583534358546,9.892930263375884,-0.010062486372075505,0.008471943109442676,0.01361030731927331,3.86
-0.11112996566042646,0.0352230712208028,9.803492962165782,0.0016762309003752213,0.004478527533765524,0.001939588886809914,3.87
0.07281119414346035,0.029925297547831173,9.849609892180897,0.0038702752943904494,-0.007135974180829587,0.01129912901482083,3.88
-0.09253482928316305,-0.07276149088675175,10.0404630212821,-0.009284413462829759,-0.0017838154998152183,0.0029812608115094104,3.89
-0.08622079795982934,0.042028152599433745,9.781331302221306,-0.0015432133247352759,0.0049856101885901154,0.020181954664504898,3.9
-0.1501031584676986,-0.08701848565356693,10.016899933038339,0.004868548394704659,0.0013669213707066885,0.0036435353913201584,3.91
-0.08535069189532317,0.023625208760646752,9.70239627348614,0.013352699113862198,-0.008414575488925087,0.011506025643428546,3.92
0.07999402295424346,-0.030855535945786966,9.742630094841033,-0.0016074791094063626,0.02647774268574859,0.009701825947322893,3.93
0.10202166647993216,-0.03995445753145644,9.611007589249411,0.005443539712313682,0.0010923525653567475,-0.016725708815175794,3.94
0.10471613741368908,0.018361589102567827,9.80064577463877,-0.016679861130954324,0.00885624401067727,0.016222960615492735,3.95
0.016284028882958653,-0.11495768497442134,9.846655844175258,-0.008085083493140702,-0.017046704792320764,0.006456701129306048,3.96
0.023303251607428355,0.08149564786818726,9.921287391218925,-0.011890464987563517,-0.0022190737073351833,-0.002799331742505577,3.97
-0.039354712838087016,-0.06143802118917278,9.77690087729274,0.0031566282947175298,0.004662302511111229,-0.008561580125445637,3.98
-0.039163204733564494,0.02058974928024998,9.844743834440871,-0.008226546894661098,0.005042550730897701,0.006376302296039793,3.99
-0.05604412703264919,-0.06078807762755592,9.867635936980417,0.015286624380004783,-0.015395180732971832,0.009131815860234692,4.0
0.2850760530784819,0.003028904303339809,9.68911941617178,-0.009277394736447443,-0.004127597164426117,-0.0036454367528792175,4.01
0.14228241352570123,0.04254949340922527,9.703030215458279,-0.027086415669630423,0.00322881907503729,-0.005329394396936691,4.0200000000000005
0.08732694083110021,-0.2364405392116322,9.707578979440841,0.009002977908273471,-0.017778785239554378,0.01134195365011279,4.03
0.11190136809971052,0.05438064431039116,9.99077248295954,-0.019456865380431426,0.014156512446381192,0.009844035458684317,4.04
-0.11069366903690392,0.0007948094620280507,9.839754574222148,-0.0035534317609889044,0.0011805704232993725,0.0011746436822206387,4.05
0.1923201423866474,-0.022870254925698424,9.681267549102348,-0.0036227179354170907,-0.009156126845687711,-0.010491148376275121,4.0600000000000005
-0.024529249369783,0.064442501725064,9.935046947804322,0.017736641298271686,0.0031192021915697377,0.01153620240897897,4.07
0.049080873539579475,0.2598637081407531,9.83183252422873,0.017365292513129654,-0.007524076844212932,-0.003444438455353434,4.08
0.07047046577158163,-0.005949237801219011,9.870336663144965,0.013244857960676069,-0.01394408865920185,0.003295771916767949,4.09
-0.002537367945026814,0.07675016539576292,9.820629621790049,0.003525117392110619,0.004499285699281496,0.0035709999358915097,4.1
0.02421060641313343,-0.036469653282518076,9.69516097748095,0.0033257195253979,0.0014489850005423935,-0.005367568870829706,4.11
-0.11983281077262958,-0.053654419563930605,9.539938007580286,0.0018946688703915006,-0.011050648870866294,0.0021035059313340983,4.12
0.23262196966755427,0.11392904234407658,9.614024175368028,-0.00611584002414136,-0.005818066749919677,-0.001998156356932694,4.13
0.04385368446849306,-0.10633701230585087,9.78915355073676,-0.02562657955647283,-0.020655765964879343,-0.00251375516034373,4.14
0.10604785171984772,0.0854511527908478,10.030504305678528,0.013997708772242554,0.004929039890903586,0.013201290068200847,4.15
-0.025847924952983287,0.18977756977093302,9.886566331982314,-0.008799498030816335,-0.028959403142623494,0.011428499697630132,4.16
0.2020872452507678,-0.06146448061207074,9.856953496375075,0.0019687609468046177,0.00021163447168070582,0.00737254111677546,4.17
0.12693801559034953,0.05405456010115577,9.925709404045593,-0.010032730372818679,-0.02224037808426295,0.0009448224008686151,4.18
-0.0023173489069212828,0.052954312670381934,9.884338512887188,-0.006553839340400011,-0.00949759205148348,0.00939900119020937,4.19
0.14447590819335526,0.1014081446506324,10.088886261511057,-0.004986976197366203,-0.006773774112888573,-0.0027595242713026624,4.2
-0.19152838588371965,-0.08371844600088003,9.842024649106595,0.001797514543260435,0.0011337658935326792,-0.004053519418915601,4.21
0.003529566232002866,-0.028892361770010838,9.680040356478825,0.008190500083813954,0.012941894270047723,-0.0032483445686114928,4.22
-0.0778416483555433,-0.03596601011858989,9.693189811477067,-0.012482900656008562,0.011316213248458757,-0.013654009806458669,4.23
-0.02444356956236253,0.11233878770600808,9.719573357920643,-0.017762584766058544,-0.019912654098347853,-0.00858197713209409,4.24
-0.03568160701672271,-0.03298207037375566,9.760826589785477,-0.00963996744878085,-0.0008385292370052048,0.009545169682584379,4.25
0.059838722927862936,0.0048087089456476505,9.612540056068394,0.006551433523165828,-0.007082703806234928,0.018245971990202735,4.26
-0.06571773589381855,-0.011527834847783205,9.964882992347343,0.003704713572583087,0.005049432728612816,0.0010335677131571013,4.2700000000000005
0.034228436821206694,-0.023906980090007402,9.772794380857508,-0.006862921978516401,0.00245723959774207,-0.005128781891634281,4.28
-0.022944508196109464,0.09814663477768146,9.745479722759894,0.013932024202683307,0.020533559780162598,0.005536218966928725,4.29
0.06410546074137348,-0.14369394874357042,9.85972705984088,-0.006743064437465876,-0.021010784065454768,0.012215455132773625,4.3
0.12279493387098697,0.09798636048968379,9.80899300791621,-0.0031284091527746106,0.009182306498058276,-0.0024182022675355583,4.3100000000000005
-0.01646284555292446,-0.06345078784559688,9.721398365601635,0.010155486882533832,0.015084825650055233,0.006079504701964681,4.32
0.02541354219515156,0.06258831498648429,9.633963879839042,-0.0023122777294244216,0.011988025556741881,-0.01287988301185346,4.33
0.12452641757633387,-0.26009612113234576,9.691010479589469,-0.002984324360243837,-0.004642783050406602,0.015228807611566234,4.34
-0.1249530748803724,-0.0750885980389173,9.815995214840262,-0.00667004130832745,-0.005544510034128013,-0.013524677627740685,4.3500000000000005
-0.09094133920942757,0.2907070245789084,9.79750900411201,0.008654262952115648,0.0076022412568065665,0.010214899845213468,4.36
-0.10779293938118334,-0.1346503935354927,9.767233760451049,-0.010387434012965836,-0.000719038415600671,0.0037733866985554493,4.37
0.002927908377576782,0.15978759520963776,9.930870481070059,-0.007516536732224151,0.004631197798431283,-0.0055491646877825415,4.38
0.13382192803803555,-0.0454201234011698,9.766549109473688,-0.015577658185520734,-0.008850135115439533,0.0038611976150270074,4.39
0.06863091141692877,-0.09816803051904056,9.895124377297616,0.005610879439336584,-0.0010315174729954313,-0.017515421416214802,4.4
-0.14356994901729725,0.01812579956768109,9.731341635232575,-0.004205895370253665,0.00022967393268458067,0.005637169838934297,4.41
-0.0946859337875921,0.07234073092260508,9.660761387415267,-0.02312122096230897,0.010604377040703999,0.00808673376016567,4.42
0.06866818351329594,0.11523427146143783,9.925810837089577,0.02125383880127887,0.0016448606005369205,0.0014189301080948474,4.43
-0.0607966807636819,0.008646022050309883,9.892830141278752,0.0009646519902683218,-0.015752590648133506,0.0179142961934906,4.44
-0.08143123469994246,-0.026280314402222428,9.82355527559969,-0.010986325656647073,-0.01384281238293724,-0.0012041084277798592,4.45
0.026557790359752406,-0.041089123991463625,9.676128526566911,-0.0009480378571689207,0.022703562750755607,-0.02726763638933592,4.46
-0.07003530415978333,0.045221344126985606,10.049365040230464,-0.020931413767260057,-0.008162823733151307,0.006631552933285815,4.47
0.3161260693920156,0.013015266390203435,9.963208664661131,0.009761309448763711,-0.004593830476928611,-0.007403026214971098,4.48
-0.17550118470418793,-0.027279278118069263,9.600785739389849,0.013065445053097658,0.0005930043277489374,-0.009408672793785216,4.49
0.12314090641880378,0.10020620787137242,9.684683789648412,0.015278834043560199,-0.016203925440509394,0.0022270121486914693,4.5
-0.04084205556124545,-0.04312844039292292,9.775430599617833,0.017586371155066956,0.014243121254832836,-0.008655839741679034,4.51
-0.18288092047305582,0.11341322523356197,9.827097030873633,0.0034594225372729256,-0.0057242438132794424,-0.013692272153517333,4.5200000000000005
-0.22110828213514655,0.07042259014112652,9.807676231828324,-0.002839230052800475,-0.0030408634771951506,-0.016257718043978363,4.53
-0.0072299714601978945,-0.03334064625284749,9.961175821727961,0.009316012445843787,-0.0008327264044305853,-0.01593305391721586,4.54
-0.12220402284173555,0.15429747886451506,9.779408234847457,0.013088456805405033,0.004884961115282361,-0.0030635772540082234,4.55
0.029124624765283394,0.01970545460687899,9.721950601602629,-0.0012217832959026073,-0.014383909123458924,-0.002012998483809062,4.5600000000000005
-0.0254351783881502,-0.04062159122570522,9.706121869192494,-0.007316050395206527,0.0019071105911975755,0.007986703282122002,4.57
-0.01936623209679902,0.020100698297167638,9.787337848939117,0.002499776772386438,0.0002849923746594222,0.010515483424921923,4.58
-0.2055069711450045,-0.20609158184440918,9.881955106347897,-0.004738009969330886,0.01044325293129855,0.004308511521346798,4.59
-0.015215711004150347,-0.1108639717169163,9.769438716051752,-0.008804425576599854,0.007158815671292505,0.011207035896460011,4.6000000000000005
0.0773360095235036,0.01778718402938846,9.788233895252237,0.004267472810552509,-0.013622850428145246,0.0018707499610074194,4.61
-0.04555847120243037,-0.06222011683199616,9.842057190760823,-0.0037579418586193214,-0.00414972969095511,-0.00046616307658415624,4.62
-0.14319966393655337,-0.19093296726242098,9.783388399749535,-0.009772556512888478,0.012496662908685592,0.00021053010927718355,4.63
0.05959050524201264,-0.0018403680813174898,9.774529343660392,-0.005217575136983088,-0.0026029344830970714,0.014816879260891667,4.64
-0.03289762971346994,-0.12478300058255519,9.794410694826803,-0.001582086200076387,0.000838428661702738,-0.006295694001842832,4.65
0.06538764967325435,-0.008693314772610419,9.829176782994681,-0.0005585476129880847,0.0012818298775715176,-0.026500928442998752,4.66
0.03553962982999273,-0.061361415797173795,9.687417493412177,0.013689440865299858,-0.0030675956885321785,-0.0015950787143753531,4.67
-0.019557845203328716,-0.002225206141275756,9.859233941389228,0.0003206446629669862,0.0018300315607656626,0.007123672325230531,4.68
0.07538241467059563,0.1328326680476837,9.999792099772796,0.0019623811284362985,0.0038330283052084263,-0.004581747214900016,4.69
-0.0390364733187238,-0.21619833574725866,10.065554670804833,-0.0001709654670607984,-0.0074396713852648835,-0.003773218978308788,4.7
0.0717960160954227,-0.07874505609847085,9.95206113935558,-0.007430036289441474,0.018288424321351134,-0.0007268620848238687,4.71
-0.03778054351301341,-0.0255113438202481,9.647580162807383,-0.0012050711646546702,-0.009790793202829396,-0.0064910817759055005,4.72
0.03358351167635795,0.1037004956863985,9.692452327809978,-0.022138914521850538,-3.5959120596438406e-05,0.004846402821020639,4.73
0.01983193300013943,0.09006202450630636,9.894953561675939,0.0030922665834104785,0.02103534856821877,-0.009152691891579454,4.74
0.03653227095672387,0.026946727786038235,9.751720229249612,-0.0016147199591845425,-0.0015644889315032588,0.0007674553359563914,4.75
-0.03539704637036485,0.09512411138948651,9.944772831413554,0.00318882113238411,0.00926342292588728,-0.007520038668887281,4.76
-0.08223214339725542,0.028738790641445577,9.889159470422278,-0.0020872676712574683,-0.010736208888132483,-0.008726346020558778,4.7700000000000005
-0.16392032854254618,0.050816654657423015,9.775786454109342,0.01809076240656842,0.0026543032816017074,0.002800519046368172,4.78
0.0956214832994473,-0.008248726915979889,9.79277168603429,-0.002022352039840872,-0.0027635799484823243,0.005520812315941905,4.79
0.041887129019468214,-0.13591809012857717,9.846838951920624,-0.008400971521490382,0.003528711444392328,-0.000632922765722476,4.8
-0.16670808659720754,0.06564477972181848,9.925752315448612,-0.0022292196422908136,0.0038395378312460426,-0.0038520778052949967,4.8100000000000005
0.10583980488652825,0.048025264872453094,9.682164016877367,0.012600879089936226,0.0010975037309745475,0.025296289994459254,4.82
0.004145319441926612,-0.06470819703977866,9.858555240875384,-0.004461290163427783,-0.013542407453584164,-0.005505611141102596,4.83
0.12015881464141463,0.15776027384692637,9.846892719579177,-0.024624655802208247,0.00019096398519995059,0.002661375325423858,4.84
-0.05563793419130848,-0.07214696361647467,9.745627499597912,0.01677524466678846,0.009853668073084921,-0.0038673633366928728,4.8500000000000005
0.06524943902178244,-0.04626963751379249,9.847107327929317,0.0010475173827291825,0.017420981326134267,-0.002873567767234958,4.86
0.0346431446106995,-0.11403418005564146,9.72366965099446,-0.01499911999090442,0.0020431952116972676,0.005713934049149928,4.87
-0.027801378727821038,0.008159463646059552,9.811346579460903,-0.02445222413421247,-0.012929561392855502,0.005438277946058956,4.88
-0.21147045989590887,0.03757697841568638,9.774742814139731,0.0052699087294020685,0.003501650588812927,0.0039201159875529405,4.89
0.09421090458064345,-0.026656411064656462,9.70909729395015,-0.01022536988080569,0.016417617434622587,0.013837965963381268,4.9
-0.052837443990493005,0.0684088976194302,10.058033881504555,-0.00010917137584125962,-0.00320334139513407,0.013950924134008174,4.91
-0.21079855915220924,0.1075868324915861,9.751593394272446,0.0029825838838731977,-0.006304936493326461,-0.015094393466191925,4.92
-0.22766726516286903,0.017881638307035028,9.940283676190411,0.0026117116554839844,0.011203230198519877,0.017346867606044224,4.93
0.18289645391016354,0.0870852276954238,9.926548274321064,0.010612921389871665,-0.005739094754576652,-0.003279302625913455,4.94
-0.053406100434380335,-0.048477507986270346,9.955932354720028,0.008036461680380783,-0.02213861900774436,-0.005962943008483331,4.95
0.06798167147147915,0.04882521367817566,9.72587167573053,0.003249120619541385,0.00016000855911795436,-0.01628970991638693,4.96
0.1422512974705773,0.014464216427861358,9.7674705712512,0.009153441045865506,-0.01843395283064965,0.018238421760954308,4.97
-0.17207382848103459,0.0941185148623237,9.898534813800698,-0.004571344075967906,-0.011512662287847765,-0.00930528021970214,4.98
0.21266563265228072,0.04650609355284812,9.736181425499511,-0.00516720568217207,-0.0057423520170051005,0.0015841261793235492,4.99
-0.03400518311829721,-0.0033162478084366553,9.95372403112245,0.010345005100151253,-0.03552790727926414,0.013296467921006081,5.0
-0.08633792749339064,0.018814273328774427,9.78120414737069,0.0010008366254426946,-0.005079496506801035,0.004638057078534784,5.01
0.15983420331749712,-0.14089769762742824,9.789069842705322,0.016103704477574456,0.007498876983799127,0.016211330037812804,5.0200000000000005
-0.04483039990974628,0.12959379639466329,9.784205641024652,0.0021431462493270415,-0.006728995954104136,-0.011453755022850958,5.03
-0.07033799748078844,-0.11774895985517586,9.716423313814191,-0.010479611027957384,0.0016919222400199356,0.0046558372804275045,5.04
-0.15810120145117684,-0.022620187352558354,9.926483730008732,-0.01086470755675583,-0.0006767713634272518,-0.02581819945623292,5.05
-0.0816828337414708,-0.06571888337878976,9.802335230778326,-0.008246468326662714,0.007087502310687095,-0.003245979838690866,5.0600000000000005
-0.1391257363731271,-0.03140844178670454,9.678241960467831,0.018098428928121583,-0.012445625249786882,-0.00037815671369847227,5.07
-0.10340073713792862,-0.015522131259705772,9.771963167921479,-0.00526406558021624,0.02288777635919248,0.013122408710249386,5.08
-0.0494190350627404,-0.10991604122135035,9.985352732959727,0.0053922791256415595,-0.00014860611878374005,-0.00035715140092013444,5.09
0.010542989051768719,-0.043618624605470994,9.697059713745881,0.010472434610557517,-0.004263408689311235,0.0012680558330919003,5.1000000000000005
-0.12607965821413672,-0.2235003818806475,9.818590782213802,0.00315146300332819,0.01149339471767612,-0.009818723953963963,5.11
0.01616776665851615,0.03376417216285233,9.80984720386004,0.016263755897375106,0.0006618813588568407,-0.007079860362928695,5.12
0.013356184805172672,0.14247176308919143,9.882975710603295,0.004237269368247838,-0.005685247121403621,0.019589501192720026,5.13
0.03066341484550583,-0.022482721206754278,9.697299304436621,0.0034448574468006164,0.005246150218223939,0.001771634779853945,5.14
-0.04210586242403794,0.08315543939979596,9.724472798658766,-0.004306191567468392,-0.0007603839575300343,0.0017839592294003888,5.15
0.08016789366633471,-0.05363548104828067,9.797093326432229,-0.010806079659984131,-0.010772748367757452,0.014800653377559649,5.16
-0.013779766861694352,-0.07965806211075206,9.846827600450238,-0.0035483961666245597,-0.007701827287764658,0.0015529997461424163,5.17
-0.002078924976815844,-0.01518284019492395,9.722194812613285,-0.007129505757593687,-0.006349279876811312,-0.004966228168101293,5.18
0.06164002548429495,-0.07000366708641004,9.90047444364992,-0.006953118848291018,0.009534546680183472,-0.0015554360639261143,5.19
-0.0218604651580193,-0.07168073325943032,10.013614473565884,-0.008637825260092533,-0.014722086193296863,-0.003523045500618667,5.2
0.138897514330268,-0.11403033794708808,9.809403360982651,0.016901719448416667,-0.005877478148044759,-0.003811560194886892,5.21
0.03766275265742977,-0.032121112190317054,9.851311942395549,0.0030788370738136913,0.0014226790138920401,-0.017400479111142758,5.22
0.13993181239590208,0.18689233950043974,9.602131236050257,-0.0015795745497009389,0.009055591488706313,0.013489480828784844,5.23
0.0863703793789603,-0.09974520767781545,9.84751182031958,-0.02386866418340369,-0.01258400248673353,0.005831312152656544,5.24
0.10757211513203842,0.1263039806236744,9.962688475706287,0.005491316274440545,-0.005279204497484879,0.016812141399588833,5.25
-0.01979969988988189,-0.11837934706962344,9.891953697442993,-0.00412073130487698,0.016239137906820446,-0.008181648169214214,5.26
-0.02535447179943029,-0.060025447966773254,9.88777774146127,0.0068171699038344045,-0.0024115995380783327,0.007701169755890803,5.2700000000000005
0.09720085544345879,-0.05798213260199328,9.786355100228578,0.0029066182389100915,0.002803855055677433,-0.0031674804590003185,5.28
-0.037545720158861276,0.10290353113718849,9.540210147157696,0.012350277231393014,0.0016082379254729337,0.020774169689527028,5.29
-0.24492303896394874,-0.10828916056949195,9.702084786141137,0.019387585868018795,-0.02420365157305992,-0.03309212007082434,5.3
0.05852822491524839,0.0264359472501845,9.779908037261889,0.015509839912777464,0.01482261157718012,0.007363366237349349,5.3100000000000005
0.10072564151488302,-0.04415759707718574,9.622137086318753,-0.00870211560340607,-0.0147214859043243,-0.00254361973380753,5.32
0.06967502831522006,-0.1653131193606023,9.626700587587113,-0.01930339243413917,-0.0008474334035066623,0.004566877004646142,5.33
0.008139681732033046,-0.1013296828320433,9.803497882976105,-0.005891344373861049,-0.01053864378528453,0.013387949259046109,5.34
0.20045204034931108,0.07214439195476431,9.834125367781182,0.0009807614479155318,0.009411869197689072,-0.020793923883364717,5.3500000000000005
-0.08105721132064157,-0.20405024625741178,9.754110165149704,0.0016475970842606638,0.0006636242225079768,0.006971199521582441,5.36
0.024921008514330434,0.02927125017675157,9.848383749168155,0.009510046807710303,0.00806149908875641,0.0024318243090734174,5.37
0.08822445054374115,-0.0653543815554755,9.644380652280253,0.00978256650982579,0.01035740314204977,0.003831027983536861,5.38
-0.05015177848251659,-0.08085039457518717,9.689655139626892,-0.003978818490018998,-0.010836736041078383,-0.0066116882680003096,5.39
0.16682134340822066,0.01679236387536333,9.648409749106749,0.013365303568052697,0.0008306012363124778,-0.0015046324980867681,5.4
0.05439941125555248,0.0555608256226176,9.827926830057852,0.015121382929781928,0.0006700042123771212,0.02148454169968938,5.41
-0.04988045423302448,0.21505551869916617,9.880092537613091,0.018791686112022636,0.015814338255112175,-0.009887322514780838,5.42
0.012335058833306179,0.20886871987102218,9.728050266997098,-0.010132540893724123,0.00987208653775017,0.0033584719541452463,5.43
-0.0791024373548901,0.08520985171009353,9.901639966524987,-0.006580371689877258,-0.002058968241201929,0.0003150573838948678,5.44
-0.11949154298245164,-0.08238312281429755,9.836755192703121,-0.005164589053998708,0.003123294050074083,-0.009752154363071794,5.45
-0.17590064348590762,0.23801140097141504,9.702532442116333,0.0007649147867840879,-0.0003742048896784244,0.006507016825357087,5.46
-0.019511336623570658,-0.012712164585886058,9.673456177841626,0.01172431944172483,-0.007706606858656008,-0.0009380869218375078,5.47
-0.07403291860801678,-0.014119639595102932,9.662694616102987,0.008317856907485184,-0.008543541790423341,0.010898258937489348,5.48
0.17450171490513755,-0.07395558807832742,9.685636208229692,0.009102161290423239,0.006385106184748871,0.0037693058814085917,5.49
0.027496716350912127,0.045950847476319084,9.69605177735529,0.012282677108273687,0.015388398457829218,0.005218271891317148,5.5
0.07337028699896651,0.03784305205576056,9.745423574650612,-0.0020599718334486047,-0.001770679168980113,0.017296421075170394,5.51
-0.07766997049948518,-0.08624597259004468,9.928107382377602,-0.013193615186860345,0.006721244064760702,0.007907896118237306,5.5200000000000005
0.07660409419518886,-0.04196371872803098,9.726117627695084,-0.003349454749248098,0.005470486570734715,0.014239857318686742,5.53
0.027211127414817772,-0.04126171082938844,9.682934589071483,-0.014937544965073159,-0.0006513870342960063,-0.01509881329641023,5.54
0.19835134978652313,0.04807515301982054,9.828618265848524,-0.0061109205449053575,0.013596143360863254,-0.003743545412715525,5.55
0.030967862612587372,0.01657140557559082,9.9236941242809,0.004572946679472053,-0.0004943814018449734,0.01154553764200494,5.5600000000000005
0.08268733306755162,-0.02373487474536238,10.056263984812416,-0.012878683016025239,-0.006048269410344039,-0.0028649794914642293,5.57
-0.2114777449756664,-0.05474786209461037,9.96246760233013,0.010049906653077824,0.003249162532577987,0.0080641844467576,5.58
0.11168498328646291,0.061985450928950005,9.880771587561833,-0.003510560695107054,-0.025835662184079317,0.02587749571543307,5.59
-0.20567948880926493,-0.25158734169161284,9.843386301494316,0.004273861840386005,-0.013388331938115113,0.01451650727062448,5.6000000000000005
0.05275469488624051,0.09001506823101446,9.873160171650325,0.002665535252309887,0.008150936205897385,0.008571382059826452,5.61
-0.16161670103788386,0.1645942375613701,9.789717751652947,0.0015067359211129794,0.0032802941132322556,-0.01567103043222727,5.62
0.1310404490561208,0.08618928989772744,9.856977835837576,-0.00432853722539786,-0.010057170219810766,-0.007459401687747422,5.63
0.049009704957858516,-0.00310381740911583,9.858534904681843,0.020225669083486362,0.011956210592914131,0.010008331881882245,5.64
0.00048675763460592303,-0.1278116716033182,9.847222120618182,-0.003921361666425386,0.0047589934196175954,-0.01008392663094266,5.65
-0.013870414466927439,-0.11737624562498683,9.769750308182248,0.0036204089469956263,-0.021251075752057313,0.008306045645650859,5.66
-0.11236251522668908,-0.16306277722806672,9.743489126597014,0.0010995904442819174,0.003923966074252262,-1.0959022240950898e-05,5.67
-0.062188660026765145,-0.0015233287688057526,10.043942060802094,0.007147619856448102,-0.030676726551643475,-0.0028603341158069586,5.68
-0.10909886283763384,-0.05325629893804432,9.813467167920097,-0.017509947434254273,0.012903351277681743,0.02083782942483459,5.69
0.018753683188060286,0.1012238635239269,9.771732200533751,0.0019259818138348277,0.0037695904707205495,-0.0011263607911746513,5.7
-0.20255896888363134,-0.1193888254776173,9.780386820575094,0.005935938432382927,-0.0015493987895659688,0.01768169414427844,5.71
-0.12936424402244287,0.06433824007257581,9.78881917800291,0.006573598574061489,-0.008458663114345224,0.012288281597375597,5.72
-0.14298460906113883,0.05153989143469412,9.849448729438627,0.010106621155034681,0.02200403692847313,-0.00320422796335808,5.73
-0.026320810875821728,0.02749353658875228,9.815469993980237,-0.011523366671868776,-0.005029394674574251,-0.0032715175376548723,5.74
-0.08512664807892327,-0.015387594093931763,9.638142256647086,0.006526275045133544,0.013751490637695872,-0.00646513305330791,5.75
-0.1197787072401249,0.10658904227018709,9.759863846608098,-0.00928595903126185,-0.017282100795293975,-0.005028067083685001,5.76
-0.015356525373183015,0.1602177222766018,9.836059122335318,0.006351636490292343,0.012493883119874066,-0.003494273066448428,5.7700000000000005
-0.008245456155519307,-0.17516052035319787,9.956383983512804,-0.0024721990912134895,0.0024838375477287426,-0.002269833866882646,5.78
0.0886179288605114,0.06046087335798818,9.671237645938326,-0.015156904045071687,-0.020544709892185202,-0.007565260820738281,5.79
-0.037533414643035466,-0.06568824862745186,9.96934159693269,-0.020235169681948967,0.010265972705290245,-0.0026486193236483547,5.8
-0.10496277636017358,0.02304592895321517,9.87821316521846,0.006813706372634222,0.014424466944170147,0.0062554418828394175,5.8100000000000005
0.06343605283499588,0.14792267532419645,9.832876798127009,0.011416760179708739,-0.005250316294154964,-0.005530577642020743,5.82
-0.010429466337061846,0.07538654600528319,9.800138958913742,0.006633509110899161,-0.0029838379429055818,-0.012642006954948857,5.83
0.0869539431007289,-0.07791313381998127,9.82065516585566,0.002543113415801853,-0.003415685243583011,0.019788242978565122,5.84
0.06639285765533319,0.07890307052236491,9.749246764274169,-0.0073789294155813595,0.01652559834016208,-0.004311238018148765,5.8500000000000005
0.06566098370048998,-0.14836098763054695,9.804984293584207,0.017492222596025463,0.0074471111653509545,0.014270289236382589,5.86
-0.10438256128208767,-0.17554723664847516,9.759770809730327,-0.0069846143580493784,0.012443742452141264,0.0033348239220501097,5.87
0.06549635694679028,-0.051251936293064786,9.897985527644266,-0.010236598650448103,0.0032016398096095917,-0.008856072210612001,5.88
-0.06091421938664996,-0.018577213869253033,9.78130518177977,0.021070442299610574,-0.003863711833459188,0.00021159833516826572,5.89
0.003137801812216065,-0.04050314508632174,9.642508601199221,-0.019906126511916953,0.012703760974122742,0.00642652061070791,5.9
0.014689610260869804,-0.1496219405864683,9.744899414120606,-0.009024801456167214,0.005670347480626923,0.003728986305085879,5.91
0.09428865536283978,-0.045237252817010125,10.02878376308369,0.006028896668098807,0.014608218268343949,0.0036154483308405835,5.92
0.06621642993875675,0.11950757606934899,9.875371225938522,0.0032583241096590322,-0.007480826652713166,0.014048439172181798,5.93
0.00953791026015316,-0.03942362576039717,9.855476898287147,-0.014594806252890027,-0.014144998881120526,0.0033051826270835533,5.94
-0.12957277894938637,-0.033729794090070035,9.880734316303688,0.002256014161660082,0.010227675436816044,0.0038758901190179343,5.95
0.06108330894942563,0.08144900974641514,9.948869100501359,-0.002833603152743931,-0.005861423696278579,-0.006812486572163944,5.96
-0.006883143459372968,-0.022258697257295353,9.766134127132482,0.005283807197432305,-0.00019025340301912505,0.0055570614074757305,5.97
-0.02940461103360452,0.10643317321413798,9.965780935464144,-0.009092335465515992,0.007424968768159416,-0.010209456284281396,5.98
-0.049896632589366906,-0.07108004539869504,9.7035004251722,0.0033525358361915325,-0.00827598625982386,0.010771113142162012,5.99
-0.09323792602311198,0.12475417838874654,9.676641285861214,-0.0016573489807376906,-0.003074183428649318,0.010983695231484323,6.0
-0.0407686971445227,0.06490714459128785,9.763388761762043,-0.006973911864871064,0.01226632111353255,0.005065375702611017,6.01
-0.14906748129411562,-0.12880273338401377,9.825766348140526,0.009762502607978849,-0.008242363223928599,-0.005816880693911706,6.0200000000000005
0.04712658356483848,0.06849801889617445,9.807802545079076,0.01464605707271384,-0.013073071143730679,-0.00550536893836882,6.03
-0.1238525738001747,0.12201388695681736,9.85062577502604,0.012076650503433475,0.004542846375915126,0.0046961774452310865,6.04
-0.07505717698529996,-0.15717321282136465,9.758651012916737,-0.011142144552477052,0.006010851973273187,-0.013047259599872778,6.05
0.035742780034003524,0.19258615829452494,9.84118550654232,0.01736077623038483,0.007343135225499689,0.00015058867986448093,6.0600000000000005
0.039354137695551475,0.013118060456439554,9.722395545539507,-0.007370437154572345,-0.0022192374285412214,-0.007617080336075317,6.07
-0.07174560317331212,-0.11085945402054086,9.906091212159007,-0.006252690915986009,-0.011737558507686114,0.011508744030216794,6.08
-0.021733622245868948,-0.24436171577277005,9.662600572969783,-0.009257014720910851,0.009213573368497248,0.010180399040370902,6.09
0.04037554466766179,-0.07255633234886139,9.936579207267282,-0.004961844952148863,0.0008220889683646998,-0.0103326483258906,6.1000000000000005
-0.09903892192262083,0.10746256297368002,9.984288876761562,-0.00047583207405576833,-0.0016286242293559704,-0.0004786757832107612,6.11
0.03604148567608851,-0.021444593208694334,9.752403621342447,0.0035435081320653143,0.011326933753642276,0.0017150495995006082,6.12
0.0592501862195728,0.10970275493707096,9.889429857977312,-0.0034001473048003153,-0.005283670614596208,0.0029162081893090268,6.13
-0.021641366770830256,0.09984260012359224,9.897621848130987,0.004096810662147701,0.0025902552636933563,0.0005259502000196675,6.140000000000001
-0.11776301294062363,0.0901643357171252,9.834760194550809,-0.014807446237335514,-0.0030555249983390516,0.0015357514547532617,6.15
0.02930368611886205,0.01837942982213784,9.829768701366065,0.005698045356170057,0.013739703155489332,-0.000489774566617066,6.16
-0.05002327925487311,-0.0771183653671782,9.80226700901914,0.010834796108222607,-0.004994112670537536,-0.00635145748480526,6.17
0.02407106708041868,0.1710405488361112,9.726665938436534,-0.00959520302376973,-0.014440273259494244,-0.013382150394594831,6.18
0.08214203009774314,0.18259529705600633,9.7603728924219,-0.002892576105116971,0.033654369187361234,0.003898032309397779,6.19
-0.07418347658914613,0.036351510876247044,9.856974475575843,-0.004377474852646981,0.011392721889143222,0.0037572550520029503,6.2
0.008426363968083867,-0.02610577023190895,9.914029428004612,0.014447931658518359,0.004940395120122851,-0.01921746305596569,6.21
0.09538437754565644,-0.11459439549233559,9.97107042157357,-0.013303865968847197,0.001880074609244329,0.007219432413926493,6.22
0.05839915176598355,-0.10723789272177674,9.95395677169928,0.01850544189778275,0.01256492767069934,0.000790594633748566,6.23
0.05610124679543761,0.09668674962594179,9.915791011545403,-0.012604207351410074,0.0027384878690318733,-0.004502000976539451,6.24
0.0457064859587522,-0.024494614658926453,9.919025496942927,0.004033502325936577,0.0016030009890462679,0.004293314771394144,6.25
-0.12171230181137736,-0.09829960510533275,9.67258702823106,0.004577748596746023,0.0037411858601414417,-0.0018448930209976628,6.26
0.1376497532896148,0.09307189031375612,9.874796218682695,0.011267935998582824,0.010338030283639419,-0.0018714923912451329,6.2700000000000005
-0.01696690111902326,0.04757331566284646,9.634398044774134,0.0013572109145255204,-0.0035421110071474212,0.005600460966155783,6.28
-0.005789364349583845,-0.04331278362518057,9.621903313000868,-0.005102056998596135,0.0018628503737917132,0.01904039211757289,6.29
0.02095329299530741,-0.01143177047430845,9.809481131337277,-0.00018215950497604873,-0.01597317943089636,0.0058049087854273596,6.3
0.061703753841666126,-0.08934569644087381,9.797261412123794,0.0012527249070223632,-0.004323663289062478,-0.006617458554868904,6.3100000000000005
-0.030674998853976093,0.010834692737047765,9.705371760410218,-0.011252891809090917,0.0036331827895052854,-0.011548969534115935,6.32
-0.03915613086187107,0.10095834743354566,9.782327214868968,0.012746755330277682,0.00010465585209629406,0.020822920148210695,6.33
0.0007671054446828216,-0.11695577293396067,9.818996306698796,0.013536283596950485,-0.012338841845177369,-0.004078041343275958,6.34
-0.04651915417773218,0.0034906988026351345,9.753271470546629,-0.01786689516930559,-0.008099426162396341,0.012521524883779334,6.3500000000000005
-0.07329265246579744,-0.22169297818204461,9.678404435584683,-0.009276998398871243,0.004430958430432448,0.005354418679880437,6.36
0.05313351183501337,0.10092824476597767,9.758734317486555,-0.001729634360406037,-0.01873196190932022,-0.007897893690620935,6.37
0.037805703904687765,-0.10921879746033997,9.960588063697605,-0.0021650553634489623,-0.0015392558341827257,-0.017348876260403913,6.38
0.07638521914504125,0.0011899325064802263,9.830454819833935,-0.012825424430427479,0.004664229970315622,0.0030420023999130014,6.390000000000001
0.053375994232181506,-0.036815788200404605,9.918282226128058,0.02040481778509203,0.0009961296858111643,0.008518171588750819,6.4
0.12002318172953366,0.037911957723870786,9.785929603937452,-0.007907804080364627,-0.008488937850887448,0.0011597132770636038,6.41
0.0965342574900707,-0.13686321225950607,9.919168129973697,-0.02371204845731374,-0.005165705673356743,0.010539581271987501,6.42
-0.09566279422946505,-0.08013845499641724,9.628648229397688,0.0025579210219052228,0.0027988652121876513,-0.004545777594937599,6.43
-0.03757876193843382,0.019655464386805724,9.835104072587491,-0.011066287539595286,0.008718493983650866,-0.0057553197207890405,6.44
0.052722803979989755,0.10470991617229067,9.736862424283519,-0.0007992800580865799,-0.008382974317863603,-0.013474806993729455,6.45
0.0274641002230761,-0.1114701241347511,9.79251716578345,-0.01697591449957501,-0.012944862961855201,0.008967259449162828,6.46
-0.13369934553503998,0.01318326464830718,9.754423310804409,0.0025463759234142192,0.010754106687099996,-0.0017579486096182693,6.47
0.2536384343501166,0.1536857484074062,9.813999088727368,-0.021121391342352382,-0.0005051231696248836,-0.013983822087525202,6.48
-0.040969230218769914,-0.0722479223819423,9.815440203525162,0.011384034003550796,0.009388181008136263,-0.003712028482968624,6.49
0.015122104721669314,-0.031067819645423024,9.812928805031534,-0.0010148851424819122,0.006661151387769191,-0.017281330158054768,6.5
-0.018860233445191617,-0.2778908958364686,9.984934759419584,0.022986350558419764,-0.011270711592027962,0.017785721020255833,6.51
-0.1137938097177689,0.07449135166206418,9.909143447369798,-0.014302573783782404,0.011946640850523854,-0.01389532301978411,6.5200000000000005
-0.056887037956436654,-0.059917239015180424,9.831453621761169,-0.003698561527677649,0.014472041264352961,0.018141731737796745,6.53
-0.009005276501189112,-0.12239251411765249,9.800396708661623,-0.008063295356553334,0.01074155660579014,-0.005546445057868613,6.54
0.20880924655877622,0.02934218991205594,9.745872367487667,0.022387110433451252,-0.010678152343958172,-0.009279275960444039,6.55
-0.15114513444760952,-0.1032021837794742,9.798394547372785,0.007676914297436196,-0.0027927224725233257,-0.0020054087091038154,6.5600000000000005
-0.06495394109700846,-0.055607815058387904,9.868336209156888,-0.004548657798154628,-0.008407928648964265,0.0019220700407597215,6.57
0.07664544670298906,-0.0518475137186727,9.889731360773288,0.00035036331669329325,0.008091264911711332,-0.006282919885052543,6.58
-0.04132926503673664,0.035137547952858464,9.704412872421281,-0.004828851498725938,0.015752762169513775,0.01154208579251345,6.59
0.09115815029519668,-0.0762239828352553,9.82813692599653,-0.00165669399343738,-0.027499337998938493,0.0043050506292870395,6.6000000000000005
0.033259753204609784,-0.171676855422073,9.724839636486497,0.0019396952393074202,-0.010995505271052705,0.0196243386939163,6.61
-0.0414618274334331,0.014600961605061176,9.817498074159415,-0.008432474005754354,2.573355492289153e-05,-0.007622491539712481,6.62
-0.028914227754015788,-0.004337287648648965,9.827416713850226,0.005874601142786115,0.0016775498310974335,-0.012064104818593022,6.63
0.1638416891052731,0.008827704093854716,9.804301520945524,0.004612770682515996,-0.002365163807076325,0.014731258536952242,6.640000000000001
0.027648477189470513,0.022229677807702325,9.894243173442113,0.0020676805932449607,-0.01440245784486319,-0.021931602491918913,6.65
0.05062511366905906,-0.0060881522431432715,9.717156406043186,-0.017908594656218517,0.0029052144545546853,0.007462801358528274,6.66
0.11085629446469739,0.10044505209237396,9.643242713790134,0.021862630272727675,-0.0003698860743611659,-0.0008825296564660577,6.67
0.03885356795792677,-0.04220413550126081,9.981208449946939,0.012693863287056245,-0.0007864441550493942,-0.005205977083849812,6.68
0.0858469139831561,-0.015440920574517864,9.941260275513313,-0.013185656465542992,0.006146110581117098,0.007077418997828639,6.69
0.03412406295251193,-0.045231126899167085,9.86331628599689,-0.004854067278132846,0.0063116853595692225,0.007910292403764464,6.7
0.05633533676351299,-0.0015767550440108826,9.77044683778207,-0.014051719530582749,-0.00864563399388943,-0.004143216490001702,6.71
-0.011012892189135287,0.12864782281784556,9.59829423594571,-0.003824720826892328,0.003248590222873804,-0.011977654290080466,6.72
0.02910046679796867,-0.0050970204048458355,9.6637919722015,-0.011581068461115063,0.017174194949310093,-0.007928235748853691,6.73
-0.05468846411792499,0.012491071976124217,9.780401998621686,-0.010777251345234067,-0.021585953717434464,-0.011324653504919997,6.74
0.03470169616845869,0.11711333789994982,10.040791727213756,0.008653806534323107,0.018152589052239126,-0.003897596046992323,6.75
0.010564723995170677,0.07077333996428826,9.829614937623933,0.0073854507457355445,0.009803511392716392,0.002667017980270155,6.76
0.005912331723628436,-0.05889031017867968,9.926709770226985,0.01362801557748367,-0.010659095222587279,0.007849558876959956,6.7700000000000005
0.008650824293156424,-0.010794399570306125,9.830539065719757,0.008967754871791456,-4.4013341948956835e-05,-0.016778215501349874,6.78
-0.21853499154605274,-0.17104639225071852,9.782742315270584,-0.016014451630832365,-0.005489278044080411,0.010498899282075053,6.79
-0.09867211752994698,0.013284086512768698,9.720676222621176,6.570547180632931e-05,-0.004932511943507533,0.007346867899875466,6.8
0.0499663503979738,-0.052596482159183666,9.790906330895938,-0.013213070615309406,-0.004248158806894329,-0.014220275435078445,6.8100000000000005
0.150118465675873,0.10173918999300342,9.92771001034396,-0.009779936621725466,-0.0034931471747840052,0.002607732484383669,6.82
0.020359494829092533,0.07052135787808744,9.95631854752337,-0.010385164349749041,-0.014784456233956944,-0.004046696426835612,6.83
0.01831755559563469,-0.08800745013026201,9.809338337777273,-0.015449730325537876,-0.0030364376104167422,-0.006362300059144129,6.84
0.08816573409035393,0.01563288621947854,9.908723487614957,0.002591778017520226,-0.0025799850879627646,0.005220803952975857,6.8500000000000005
0.0957917909783039,0.020707887009342067,10.036405636924659,-0.0059909303365342295,-0.010531551684098837,-0.007396904960686219,6.86
0.00691585035832454,-0.07495495296393732,9.740622010522703,0.014804084256656592,-0.015945236324619125,-0.00760165731518262,6.87
0.1507893262322908,-0.11850575778567055,9.828634690874763,-0.017284184815627428,-0.0036523075118639675,-0.0032348846472376176,6.88
-0.05116851432273323,-0.01469944075670973,9.771211819494473,0.007278934179309252,0.006867491538363084,-0.0030223163973240826,6.890000000000001
0.07320380818968164,0.07462120748780464,9.774050623262442,0.007708143728808384,-0.011339528022060674,-0.014682386762323162,6.9
0.04575632316428343,0.028895529011892192,9.913290202925062,-0.0041993117907960405,0.01104288888166213,-0.0018415188501241808,6.91
0.11305888138499683,-0.025124880017160425,9.827964941523861,-0.018303919970465824,0.000257316893763342,-0.006360988774405865,6.92
0.016813927077229767,0.0012533015979744298,9.742881295957943,-0.0010992720339546083,0.00016679399353408214,0.007749494319069846,6.93
0.017742419025136583,-0.02953724776452918,9.874403743188957,-0.006448291048344363,2.135541910381382e-07,1.9832702451705106e-05,6.94
-0.0841630301724968,0.01563453837541027,9.645589929703846,0.01591151554585709,0.017406043948274882,0.009723568884667959,6.95
-0.06865225200730675,-0.10107170858914603,9.69794463936929,0.0028494231895903575,0.004320261551078773,0.003895270485996544,6.96
-0.02473431131618639,-0.06874390218976893,9.59675074441066,0.012026944940219195,-0.019718988190814465,-0.003011239458844945,6.97
0.03399887448085617,-0.11541461365875368,9.874567288421066,0.004816645451396877,-0.008545277217520596,-0.011902312067043813,6.98
0.18300946184256084,0.06507701141874808,9.800487198683314,0.017299914723408624,-0.01489759032005472,0.007840456534815032,6.99
0.024112319735693295,0.13393601873650723,9.635632160871708,-0.01664581343482242,0.030295947539712126,-0.0006882422562179486,7.0
0.11311329439350418,0.06356466735641943,9.693965452402042,-0.001034517251234503,-0.011354582530336919,-0.02123686630906359,7.01
-0.17819588714555878,0.060468013115948085,9.577853876652993,0.0025588789584741513,0.0032180482662221804,0.013568530902884651,7.0200000000000005
0.10125638514892316,-0.021362952705597932,9.62632326549166,-0.00031568941859700414,-0.01712668167878785,0.004894829165304244,7.03
0.02877823735438967,-0.16510307177451164,9.793432358223868,-0.004871344608904939,0.003080339177147801,-0.019982809537166885,7.04
-0.012668215442624498,0.07481612899067883,9.905411504436072,-0.006425367750630292,0.00987105604269654,-0.006252779451659632,7.05
-0.19600984190559315,-0.08164745660567818,9.850931641382376,0.012616004779063173,0.00011166354936462094,-0.0020220095428455103,7.0600000000000005
-0.07084703116031374,-0.0821384760952332,9.703250472417242,0.020709939067216552,-0.009722004792581219,0.004876924044669843,7.07
-0.04480636346618294,0.05353429988579277,9.91463010548155,0.0006272820232609733,0.02265134823014974,0.006874825157201728,7.08
-0.016136041528888128,0.004395427833894404,9.982263830488375,0.02273253907611439,0.005649118670417226,0.01936998213374193,7.09
0.1297039938986471,0.10432998406814786,9.715275632856526,-0.005515594143334455,-0.008808633992289042,0.008424340797999764,7.1000000000000005
-0.13675806983794034,-0.11456857133674066,9.90618450020635,-0.012451881682882936,-0.01094563107459298,0.003094442672059434,7.11
0.08305298578041487,0.001217451842868706,9.858268790007871,-0.0067228463528638364,0.012450007363983858,-0.004231079411464739,7.12
-0.017433569193769847,-0.1052732338048823,9.744737347400584,0.0014659960519039026,-0.004605665595898561,0.008087651155450468,7.13
-0.007853853428546421,0.07601430683558824,9.83324520381049,-0.0107853833697578,0.0074452624214422026,-0.019744472041377848,7.140000000000001
-0.14301217008598988,0.2626462188836277,9.654182262919322,0.0036121569650263917,-0.0023122701541075812,-0.002207754885455886,7.15
0.04366883155562032,-0.25053223939181696,9.787382085768169,0.009145743716383367,0.012835417369701584,-0.01860936885457753,7.16
0.04754064170782189,-0.011712897924765148,9.59491989805219,-0.011292264179968672,-4.126839165684532e-05,-0.00531336107156812,7.17
0.007245370394380459,-0.017824702152878635,9.668875812151411,-0.010200967960743471,-0.017400561019443875,-0.008196039346104357,7.18
-0.012395042368012308,0.19193490896965426,9.901148891730504,0.007571700018209642,-0.009279200795434426,0.013207671578542303,7.19
0.08269127015823541,0.19121055440045343,9.923385166697953,0.004662202773594197,0.0077185768599623205,0.010072763884594054,7.2
-0.00833818278039313,0.0897243165750311,9.758294293999684,0.0067123801187886955,0.011256528838558218,0.0014421701048044691,7.21
-0.05170752766640682,-0.07446408482822711,10.120990926508773,0.0030027158113870318,0.007521508694508192,0.02374266471605818,7.22
-0.07864975474266454,-0.0941944237023977,9.88924906066831,0.0034670808466856313,-0.00885563859257049,0.010271953195052743,7.23
-0.03906656129586321,0.010546483397928382,9.747247541365873,0.0067279852602719625,-0.002891636223168182,-0.005714733554047156,7.24
0.07197100965286198,-0.07918144106290158,9.798845715165282,-0.015899465559382996,-0.007306605982249675,-0.01239325400023251,7.25
0.04383859376036761,-0.129988689510472,9.843512400976921,0.004860716667781667,0.01261834807807573,-0.004488522155696475,7.26
-0.01323529029327677,0.10857995666126581,9.713417058348961,-0.00783464205977701,0.0017068149537782936,0.019195891332967775,7.2700000000000005
0.056108860396323214,0.1327693972534711,9.962527440796455,0.00015857343964059283,-0.0026315998734997527,-0.008695331004342997,7.28
0.12145706748598442,-0.02747819370815155,9.845672792056515,-0.004759657587229196,-0.02033091957873064,0.0040388449097776905,7.29
-0.17232622742041276,0.09196932756948732,9.806732389675878,-0.010002126053389673,0.008861138276119146,-0.007042125878262152,7.3
0.027738976261723666,0.2639507986003542,9.855536380136295,0.0027070506934318236,-0.008798295561918603,0.016901595645923476,7.3100000000000005
0.1839215851767891,0.06000866278194822,9.73753980100877,0.015161636249740502,-0.004937904227040767,0.007363657950237614,7.32
-0.030761254828618557,0.19229370445437366,9.806844184070956,-0.0022830669272373687,0.0012666762161620139,-0.005000038836616905,7.33
-0.14053708294699507,0.0004974227533345399,9.79370097983139,-0.00681724255896045,-0.01288533132099999,-0.0043887738802445755,7.34
0.014311334556283285,0.07359645153730003,9.6882670427788,-0.005605863447203998,-0.011215376317729708,-0.011091580731004518,7.3500000000000005
-0.07033896927049364,0.11104355534332733,10.031428411223214,-0.003485768490538045,-0.0031635172693587794,0.0019054820310405065,7.36
-0.1838085331552531,0.025986099948439947,9.740845608346499,0.002388736867643938,-0.009738674231329915,-0.01356765994663308,7.37
-0.16393312488134903,0.028057846205456972,9.911940517580629,-0.009443264320747139,-0.012878692454140273,-0.010427372963412014,7.38
0.11524476402206468,-0.060231283986753925,9.798506522438942,0.010050166350048706,-0.002584016513883724,0.008907739838547429,7.390000000000001
-0.008079998998400615,-0.08268311762481108,9.877391184944239,0.012596045138809051,-0.002236081110660722,-0.0007876070938256791,7.4
-0.11019546719816616,-0.1265731766050194,9.799830871958724,0.004276689695982526,0.0018829523540041019,-0.008566020617391146,7.41
0.10061972401406101,0.15265671837838057,9.893747498236792,-0.008169938463160633,0.01428156727101933,0.007584819982810992,7.42
-0.0004870327170508662,-0.019166682072505433,9.750199296854657,0.010308380425785437,0.007209747681448956,0.0029613274881207,7.43
0.024300519231051948,-0.23876126540634837,9.795963126934558,-0.005455936981773347,0.0050212152904493546,-0.00225818344436636,7.44
-0.07949654443809774,-0.09770553450195862,9.82118949589367,0.010456685173285239,0.0034823926377376387,0.007185591277241858,7.45
-0.019874392805903984,-0.06073878809244551,9.88695099409682,-0.0008630752397963036,0.0022730812854246637,-0.020760319544884262,7.46
-0.019559431666493658,-0.12132585781079851,9.746777086505078,-0.004472667412513951,0.0004245175191525501,0.008212199360427157,7.47
0.08612971160880438,-0.030960937536204755,9.724781654870636,0.010433690353257911,0.0024585990956493913,0.0011608145496217936,7.48
0.07544852094373689,-0.07221927585359926,9.72317500547401,0.00033790127878762134,-0.018310207893749028,0.011233612525805804,7.49
0.20259425941780257,-0.18916988840006604,9.761165761292029,0.021372931296222572,0.006586139230515209,-0.000548963443757442,7.5
-0.009384673755256284,0.17163231679760546,9.85076611255494,0.008285540629893276,0.00508169037371411,0.0005672572934963331,7.51
0.028229624041608815,0.03414570849393155,9.723156036571448,0.0010778585289112081,-0.014818208405056843,-0.003888417079979667,7.5200000000000005
0.0824181565137771,-0.024132052227961276,9.94043599889915,-0.002471299899623203,0.007194118987453309,0.008633261978855583,7.53
0.044815031726874816,0.1079562783207221,9.680015115593461,0.0008765873273777441,0.0011728193804943809,0.003789236733046613,7.54
-0.12460991249641823,-0.08480098807606878,9.86869837849559,-0.010915562762420615,0.006370831103248238,0.006257045263318578,7.55
-0.0010877355435590858,0.14478760129292592,9.833346019604594,0.00117689996281363,0.006188090521294438,0.009747873015104163,7.5600000000000005
-0.08383866614204419,0.022700031089632422,9.787273151953654,-0.0010396802274556384,-0.01167298033308524,0.01385569027767842,7.57
0.06860849328538822,0.012036173778293729,9.626451681760638,-0.004868402305422712,0.007872057462413887,0.013823020756114248,7.58
0.010150767129803529,-0.06360508111767249,9.79436408976626,-0.0009812540997142833,-0.012541054565294973,0.006678350057292305,7.59
-0.19801408469079373,0.01760010842788559,9.754655912164882,0.0064957811285698205,0.012945878546864353,0.0064857928460765836,7.6000000000000005
-0.021802620071015966,0.029324178970562595,9.792682354369799,-0.009704246992259576,0.012869509838345066,0.022845110791531734,7.61
0.07327013179274593,0.043755895892819675,9.551623969386684,0.00354087726602928,-0.00028798800175827347,-0.009858257252818222,7.62
0.08751105386903266,0.009373787851094878,9.904120575855545,0.020655297127634396,0.004422788780852406,0.00046455656635169365,7.63
0.22176620904594985,0.03129122679850981,9.784041213235328,0.015062891876079303,-0.008051018750331628,-0.008488490126063276,7.640000000000001
-0.06605552696215973,-0.14715016134305298,9.810628354204928,0.003629940560890566,0.00016670011547034126,0.00483552478684866,7.65
0.04764163404853841,-0.005074277536957952,9.670572332573567,-0.0013476291172032826,-0.013162678572331532,-0.0011624963302589763,7.66
0.097703251440453,-0.006632820270433201,9.974419484150873,-0.00028776962189824525,-0.016224022238033826,-0.0024498218136120796,7.67
-0.10775228507674216,0.0467026990804314,9.904653598202554,-0.008192602203890507,0.006628880607266925,0.012852188419117972,7.68
0.18239078730804692,-0.012907951152105591,9.827457071160737,-0.011024233654042875,0.00249847677401811,0.003935139127446186,7.69
-0.10239491209476177,-0.1094920125801183,9.812881766994977,0.012248700800286517,0.009160223729007561,-0.005952963421159275,7.7
0.010075880966726743,0.023425457370208205,9.976293107047134,-0.016994104109269072,-0.012868813120281538,0.008928779775771003,7.71
0.05132721261954115,0.028227454627926165,9.877349469015519,-0.006690233935722886,0.00908061706112864,0.0023618462717819445,7.72
0.06343405618257375,-0.12211870206893843,9.76721198350803,-0.009205868948151145,0.008114323103691642,0.021936148723379185,7.73
-0.04243305172213696,-0.19449843286532859,9.730606171132985,-0.025278861898500118,-0.002497506468530066,0.0016313052728425038,7.74
0.06667429375242429,0.13229099810026643,9.872913036186041,-0.004840430490617145,0.001910253189727286,-0.0013845671507134501,7.75
-0.12157025837630825,-0.07755287970486546,9.977243769661822,-0.01686004805976526,-0.013179728394149338,0.001132156577858915,7.76
0.04246220026333526,0.13123180030442624,9.761208057950295,0.0250986813942348,0.02630813826928603,-0.004398543140993193,7.7700000000000005
0.10158464528240647,0.05413334776021275,9.62172079842809,-0.0023727480260545895,-0.0030527601737750606,0.007858217112041363,7.78
-0.05406384911211307,0.05603844291112508,9.763710102468961,0.0036122739830308386,-0.0030228575648179818,0.004572330518818266,7.79
0.026184746111586617,0.022563128031162685,9.899169670636578,0.009735536391044838,-0.01225333827888959,0.00693896742347087,7.8
-0.13372173288346867,-0.11740441922615785,9.987428691160803,-0.011400963915176292,0.003768655850048775,-0.017675105940341065,7.8100000000000005
0.16012882911174792,-0.23112415729048666,9.906452034563344,0.011117640892485932,-0.0022399951311698565,-0.0013328182672363077,7.82
-0.09201722494825973,0.13686442198115956,9.809701359648505,-0.003302558732898913,0.01100781440506308,-0.008494628731025274,7.83
0.008745747709060043,-0.14105569925144568,9.926494045720823,-0.0020124191092586318,-0.0028714212071210467,0.0032168976630712882,7.84
-0.06568775320260921,0.14685591667869238,9.595794369958318,-0.008614485599219205,0.0015672634267911425,-0.01150535746046663,7.8500000000000005
-0.1409487826273825,0.09853862716710507,9.702053064708048,0.004309393056016191,0.0011712688896732995,-0.012161577417938343,7.86
0.18429497051779395,-0.12622517704944167,9.853835273890558,-0.0027676367289880665,-0.018285330780996336,-0.006963859062605615,7.87
0.021835686372136273,0.17477782724401636,9.808441436972936,-0.00736864649223744,-0.0009809211010275009,0.006012264078859994,7.88
0.024990644706940388,-0.28998504789726076,9.801866082369234,0.0029593970810381162,0.006075225121749346,-0.019032653983491223,7.890000000000001
-0.03885232214395787,0.10382313291277762,9.79987491833079,0.011639193957316003,-0.008266472848750551,-0.0062332186741791695,7.9
0.006317435945281069,-0.10280871042954035,9.81495428446874,0.004701605232324069,0.01669635261945745,-0.024895140410735834,7.91
0.15051220463166942,-0.010470839434037475,9.69046227597609,0.004427067443833587,0.025216148059518564,0.008286606481644991,7.92
0.1917006486316453,-0.10683714787805763,9.742454502957148,0.00046381890539260806,-0.00010215440817120733,0.008120714086609335,7.930000000000001
-0.023825255497824663,0.1027825957134841,9.978057246042017,-0.00849731688271668,0.009790853328964826,0.010856076868560565,7.94
0.069347487492937,0.08245156703819334,9.875739579565494,0.018672848012059422,-0.007232261747782398,0.0169341134222383,7.95
-0.21279308202882033,-0.0506087839717449,9.883266162986182,-0.022366577125723777,-0.004621961567764453,0.012900356518964299,7.96
0.049403331697965625,-0.07475556156989656,9.78700506182223,0.0019945311097949994,0.015436353725603945,-0.0022081617252993173,7.97
-0.21323533385495153,-0.043663233402800684,9.666320759856186,0.013224430925821653,0.0006825460821279416,-0.012251252680030095,7.98
0.053862468420649845,-0.08266516882761048,9.764261469881545,0.008761672145943492,0.011707253206431454,-0.019954639244506325,7.99
0.11354167378464082,0.010622788798058084,9.931728453813985,-0.009329059713370369,0.0029154671868654113,-0.0005054580228558977,8.0
0.08270632507811242,-0.17077090772896833,9.878709364473675,-0.004318372110992066,-0.00044888102633937983,-0.0021914894813373966,8.01
0.1234816065775104,-0.17689030727861021,9.819044620440287,0.004236381782568859,-0.009913436307719634,0.006603839885433156,8.02
-0.08346357110965519,0.08883766934873256,9.751094148850164,0.008548369614126196,0.012507952816707576,0.015608403687765995,8.03
0.011309737306470415,0.014554746655959613,9.71287850372607,-0.005383185636199961,0.0014913873249436174,-0.0053804313377056046,8.040000000000001
-0.04297799067948587,-0.0460416918089804,9.673995367576405,0.0035958718201583736,0.011497844527342503,0.007545483386908041,8.05
0.038118581373765455,-0.04734735243706392,9.895157003025126,0.0024257975837734345,0.014756668846318115,-0.01217223836648363,8.06
0.11172219894732574,-0.09003851863211373,9.872745824943957,-0.003209878424581432,0.005662139177728508,0.007943906864264693,8.07
-0.24320661364836793,0.04252162585740854,9.733462656234154,0.0020231644111972794,0.007046551667472439,2.1515124848584402e-05,8.08
0.0069374796086450925,-0.1431510949165252,9.923634881533406,-0.00016568798921279154,0.01669968171674862,-0.005245509044078709,8.09
-0.19333501271229903,-0.10834478224838828,10.074507937629313,-0.012461606191515005,0.003309916845608744,0.005779830016242004,8.1
0.022976404175479092,-0.046576450312650154,9.601325497112247,-0.0015300157144030394,0.010882516254570184,-0.011498827069884922,8.11
0.05269682471773225,0.010205921273652779,9.808399104487593,-0.0017518813397591798,0.01724840207945994,-0.0005626335267517878,8.120000000000001
0.1024895237417048,-0.16616678597275236,9.970222317323618,0.004882450970909936,0.01661370360815163,0.024453102371481076,8.13
-0.16687015956839477,0.1059677558413815,9.803520898142503,-0.006603683942253497,-0.009998692220973458,0.011544429155384634,8.14
-0.14465942836749776,-0.04449094932588485,9.876764130714676,0.013208550698583834,0.005684215185885729,-0.005367975015971303,8.15
-0.15419292024750375,-0.08186866741855273,9.892231130197276,0.000857683140140711,-0.007143813127118833,0.01582152017225185,8.16
-0.01858294284933431,-0.0033133175131890833,9.764242330771772,-0.0009396019727099242,-0.0014743094974286194,-0.01161879242167118,8.17
0.026478664337706723,0.002081812285813689,9.75140496667881,0.003233561835112534,0.00014226176463419325,0.010546913459016292,8.18
-0.08866213051280912,-0.0800885286877458,9.755642945081872,0.013369746425611584,-0.006170283848652649,-0.0013430357648700735,8.19
0.09414651496193883,0.03770481633265045,9.64674223588891,0.0032530342642508926,-0.0064447155754375875,0.0001786838421047206,8.2
-0.08174374192181405,0.15540376158709865,9.608002341088813,-0.0055278169474670315,-0.00010119068253767408,-0.013806611468075783,8.21
-0.03737128333574703,-0.2127834216031217,9.608972637572874,-0.008773743720427723,0.0016236345406027276,-0.010866867558991253,8.22
-0.045318295371331224,-0.03550952275262272,9.977074745068116,-0.009373696862487901,-0.007677623640922265,-0.0004298836178437025,8.23
-0.14743882347920698,0.05597497821069547,9.669242308256901,0.0019768455221128947,0.003946373170263497,0.0022866387144335836,8.24
-0.11706128113001246,0.07532247679143342,9.765039731102041,-0.013132551332191812,-0.007541006311474251,0.002832975436441,8.25
0.10678295860580311,-0.06190842639424363,9.724044397671358,0.010920461028393169,-0.012688857919381503,0.0034568601471157774,8.26
0.014081944322677701,0.06468541783618169,9.745006350946698,-0.0035509377948930725,-0.0017578216414266903,-0.015263922498315945,8.27
0.0890997677959905,0.028931826827060355,9.751157549994472,-0.002699382955636966,0.0016496706447076204,-0.0028578991664423327,8.28
-0.016061438725017134,0.03149667366781228,9.783109750529395,0.000369680331471118,0.013888993524295299,-0.013904130955568542,8.290000000000001
0.10419766960700344,-0.11580759499084953,9.884869241199521,-0.0030002629212938043,0.001974008862744111,-0.003250816565116528,8.3
-0.03753500074969002,0.16192931303437674,9.807244463496833,-0.010332526175529167,-0.004469299152524016,0.01287672618154871,8.31
-0.033649496351302696,-0.049633536194968235,9.803583977751604,-0.004240507811523084,-0.00322035918279624,0.004738482639050333,8.32
0.22238772561391928,-0.012405467584625737,9.65958636703536,0.01577034015090663,0.001111586146110111,-0.0022478505194003014,8.33
-0.1658210419823255,-0.03124994637901551,9.80672142228142,0.007092423499727282,-0.011308753517958863,0.008633085728536879,8.34
0.08164839823494752,-0.1772518509300848,9.866552062440041,-0.009422904429018483,0.012018461240491591,0.010889326884808872,8.35
-0.13604729859463496,0.25736832664217335,9.720969130385138,-0.0014840815781249003,0.012824763372032574,-0.008244683330777946,8.36
-0.010879296851725156,-0.0070250571596579565,9.739903388725153,0.005656068376519953,0.024535518400996766,0.0054344496962483255,8.370000000000001
-0.06020532560588043,0.10005895108133148,9.755117233587626,-0.002632530629814773,-0.0014406640228435137,-0.0009542808447011991,8.38
0.011942028076543055,-0.07280337137713942,9.825590176389815,0.008538984822932234,-0.0012297359495025606,-0.015703054828806677,8.39
0.029102311241423443,0.1741601612877826,9.641965529617986,0.021062461810508956,-0.021205388617872946,0.013547743370991336,8.4
-0.05228884743413044,0.005643614368950766,9.775669754373078,-0.0008010972460658021,0.00874974420206699,0.005315948023023189,8.41
0.14225109878929593,-0.04930832582452145,9.897260541995355,0.005335960586175291,0.00016029133007355555,0.013777340758357879,8.42
-0.05222536979906989,-0.16418241834850134,9.768754985427723,-0.006139266156971816,-0.010987780205042083,-0.003117807307452496,8.43
0.02843140612144552,0.19014078222862407,9.959969160637351,-0.010046587717161439,-0.007018353923718812,0.003981844376405598,8.44
0.19473580903195403,0.016429740196310515,9.881557159561018,-0.006716089742151611,-0.0044224549478469625,0.0075724419159313595,8.45
-0.09496589843056957,0.016777826667056694,9.960088542871945,-0.010614294321411952,0.021260779133097762,-0.015434322045663171,8.46
0.03936592931456294,0.1817151284703944,9.982299909927615,0.003824329685900796,-0.005840177817011451,0.009888646277559568,8.47
-0.002004261717534218,-0.014204471635995176,9.735490936656088,-0.009404362121926392,0.012428532634666999,-0.01501297580626274,8.48
-0.004347445601788238,0.007864941267488918,9.696892372354787,-0.005256671383998744,0.007590681427312129,-0.001551976603394673,8.49
-0.05919209053362337,-0.07139888999120127,9.989931021051103,-0.004673896266389029,0.006077199741970554,0.014034956358741829,8.5
-0.05265589234013525,-0.12373240764422513,9.805987008436936,-0.007046326884141825,0.006832539641883954,0.015051459501069555,8.51
-0.16171516517495893,0.18216473824171345,9.75845532973926,0.0012488268002779038,0.006441348628043702,-0.013976440923913378,8.52
0.06337751879644202,0.059987425077673254,9.68893177779156,-0.004008811606555482,-0.01788069871802933,-0.005587441790294205,8.53
-0.04241594947251143,-0.07695240400558924,9.798489571704364,-0.0036647054068254144,-0.004129753376614011,-0.01144853736620751,8.540000000000001
0.04419841700978249,-0.15032051384764045,9.878037649581383,0.0005886168562655034,0.01960760954475053,0.009486212538973538,8.55
-0.10764289668061111,-0.06297963723107351,9.853827398566672,-0.0003112766681336371,0.0008660007016598064,-0.0023644766948082326,8.56
-0.11016427845122567,0.20387292942546426,9.759458072168892,0.0009229559930275987,0.004701001324607827,-0.009309279860076599,8.57
0.08238008477973156,0.1630764981083505,9.790561080415323,-0.006843208371791768,0.0022947115488756516,-0.001695100349908827,8.58
0.11270526514289728,-0.1353420339789891,9.832718613257663,-0.014470347525656747,-0.0006287425574451282,0.022119828423436197,8.59
-0.07629361888448755,0.01355978777426341,9.955670526823834,0.0066524408359290455,0.009228649003119779,0.011644488727350109,8.6
0.02083944026003813,0.16820915641576106,10.057875165252318,0.000749727453186543,-0.011731465390625083,0.013185229585246852,8.61
0.10392350070914454,0.023762587805133285,9.760905671776158,-0.0008077418349819263,0.008435572325856133,-0.00418905073078624,8.620000000000001
-0.09618577273964272,0.12445933947231609,9.647769106396138,0.00048236854943774086,0.0033075584561945625,0.007197052665614306,8.63
-0.07477249726377731,0.013931049337252295,9.946540064223322,0.007796571418354563,-0.00492909893577027,0.011211985710852631,8.64
-0.04512887376845688,0.04196397000977952,9.887439220343682,-0.0021621233451609226,-0.0030000819081392295,0.013268387311212331,8.65
0.06272025680092667,0.05332942470450561,9.593509140560633,-0.008962049330716456,0.0015814415562569015,-0.02125156021958801,8.66
-0.10066761920885077,0.06487164055490081,9.733456952858,-0.00902286811736687,0.010846454678376525,-0.0011067728778043255,8.67
-0.011069815297805017,-0.03215150281623393,9.918949740387193,0.00258444050979132,0.004487044066067215,0.03347143710708006,8.68
-0.12257789667684578,0.07610865266829536,9.871555413133285,-0.018964616924132666,0.018001066347213407,-0.006375746790142343,8.69
-0.0733996242631889,0.003756516941949731,9.744055092599378,0.008269045369964563,-0.015566078746581113,-0.009055853174436282,8.700000000000001
0.07154797374192891,-0.20248666695988718,9.804889144889811,0.006901640989791442,-0.016728771490848927,-0.0012486380450394373,8.71
0.20900502304105234,-0.20788990756098766,9.79833106222266,-0.018789558220514736,0.024835161541773773,-0.004168897806796203,8.72
0.013875723708217045,-0.0751558018661303,9.916846499069479,-0.0018674834021977563,-0.016823036407599305,0.0022827852922165156,8.73
-0.038896075602666,0.33456337466289066,9.821517879037259,0.007133481580416544,-0.011913503797486338,0.00020130824993466618,8.74
0.07262650552439485,-0.1343937409759096,9.709330041874674,0.0005429094640887726,0.013016326500082219,0.0017821354349869206,8.75
0.1418942491210085,0.04295049476372886,9.712117126625287,0.004766779160847952,-0.00271525620715953,-0.005306672317356747,8.76
0.08613743457146361,0.03744399266322731,9.68920322017197,-0.0066372919093995435,-0.013542223712218436,0.002877410079617244,8.77
0.17482690442423332,-0.10084836417275363,9.903729863756887,0.012515899683708148,0.0018524034012173056,-0.00189958180369572,8.78
-0.10902706526558173,-0.12779688287617025,9.91764473680231,0.013003112013460015,-0.008738980060502378,0.007130756291019092,8.790000000000001
-0.1653508784974816,-0.08398560365871822,9.845901831797892,-0.0007557974805361286,-0.004828068604167116,-0.007334364407316403,8.8
0.002052696969487371,0.015083016859252627,9.703942983801788,0.006512456458929993,0.013442507184572114,-0.0005424217985347777,8.81
-0.07903281735391113,0.03903172192156257,9.841840782569092,-0.0026131066830112192,-0.007521190015580511,-0.0020882115253367914,8.82
0.086431750843474,-0.24283454207345911,9.7328339441577,-0.003649056622821582,-0.0014513057716808557,0.007923583974641742,8.83
-0.1371771380838048,-0.053790609891988,9.713549377705291,-0.000620048945667132,0.011069273002434502,0.009388184620852625,8.84
-0.036768529748231076,-0.08682309860460188,9.798190592987067,0.006438028087804394,0.014271866657021804,0.012677822853602918,8.85
-0.0746127613038015,0.0017771650733122099,9.80592080058956,-0.024194743295565785,-0.015973342476824116,4.267421629179569e-05,8.86
0.08881608810206951,0.07976725810610014,9.549067161198206,-0.009139043449129539,-0.011958207369092436,0.0002893022834253223,8.870000000000001
-0.12412975773817975,-0.14147568732069377,9.874113793972699,0.0021339125046613257,0.015087502326563512,0.003372334251258849,8.88
-0.1798448382409,0.08385910664662699,9.718892649409472,-0.0013852556180062876,0.0008411046203141082,-0.009613873105467702,8.89
0.18460509400883085,-0.05254362072762192,9.843639861165116,0.006325591064604099,0.003084984853353964,0.002169031018379761,8.9
0.027722567583557386,0.0025336889830070795,9.770242136919341,-0.01404833877070122,0.008815203033250443,0.010379768708880764,8.91
0.12267478008744262,-0.01729493963347832,9.78734304967318,0.0077819794640802235,0.015089547811975933,0.012769756282506319,8.92
-0.003524244206287855,-0.015976385097556382,9.810495638390176,-0.015314762968219174,-0.006721878154183623,0.020065370021144606,8.93
-0.006737301132772513,0.045794248451411446,9.809183447831463,-0.00571066652046643,-0.006205924693496131,0.0024761716243427265,8.94
0.03466858750252472,0.06174343197442326,9.724167961544545,0.010380863531771723,0.004262101493802389,0.014118741838442203,8.950000000000001
-0.1378937998148225,-0.04973491221867968,9.828323580864616,-0.000936155281822383,-0.007910707547524536,0.008640855080587779,8.96
-0.1235991094823114,0.00809517072306899,9.700199083334695,0.004050737610465398,-0.007180432560940267,-0.006007988850115218,8.97
0.12715603923110586,0.1050097832606884,9.869011941072621,0.005621524292944344,-0.0032263309051270023,-0.017060839283934547,8.98
-0.07272561992238552,0.1325145823512773,9.968395222624359,0.0171563344242526,-0.016684221931020676,-0.016348199330869177,8.99
0.019390268411061423,-0.05607826252581902,9.786304513245891,-0.015657740232361925,0.006408461787224448,0.00018588935458846434,9.0
-0.12586812128370875,0.07076573693719848,9.832258259949432,0.0006804580516894215,-0.0008165461015886945,-0.001741472333551101,9.01
0.17060719125474427,0.0625673332437685,9.591368452080419,-0.001963408606041791,0.00420414530299447,0.0006369415313004767,9.02
0.09085716515995533,-0.1753988757389016,9.977335937829466,-0.023290175551766636,0.004430448796114559,-0.006412238662720421,9.03
-0.02259485785063571,0.04848635751652586,9.705473917429067,0.0010224444004533198,-0.006614139634124647,-0.011269902747416172,9.040000000000001
0.1397265507491784,0.048285697088498274,9.793797896805767,0.02470031292843323,0.016906989501587852,-0.004170010018500087,9.05
0.08121165001803493,0.012608241386065408,9.60689372361221,0.008519364344761103,-0.0018617865829348703,-0.0064081361189982115,9.06
0.15947470466271685,0.11748230793558859,9.633282706729975,-0.005121301388710507,0.009523319323052669,0.0035159585607942123,9.07
-0.04156303404185559,0.038087476119608776,9.975535882847451,0.013006193514056283,0.004072408266551652,-0.011867909864419582,9.08
-0.04690053054229168,-0.0030329179930001864,9.633343534003085,0.000831660096738496,-0.011218460837223268,0.005341388349898351,9.09
-0.10428122140464145,-0.03314354586219053,9.83659568528423,-0.007729822826352455,0.011261168529459036,0.003018863845269232,9.1
0.053578193047730975,0.05206268986281118,9.952601495924089,0.007200014108386462,-0.0008287132827946122,-0.00348650302573949,9.11
-0.02616063443934479,0.014860516594819646,9.755726337670959,-0.0029258993122433354,0.004418957678374245,-0.002121962941752369,9.120000000000001
-0.05054329252207271,0.07914550623823746,9.679003140452409,0.013938006048556655,-0.0027388590458030594,-0.012176511604827044,9.13
0.1345236035061374,0.1311412562980145,9.799501096410575,0.0007831230046167267,0.016073907028663254,-0.007974446513419678,9.14
0.16291643969729022,0.09513024249743239,9.725018399735552,-0.00355121726585028,-0.005496477353872719,0.0030273611629468627,9.15
-0.031254684053122664,-0.013524839076096896,9.706771873059381,-0.00885438464457872,0.011362223907290126,-0.006980113815416502,9.16
