ax,ay,az,gx,gy,gz,timestamp
0.0804086471845046,-0.09367693655059794,9.685813304430054,-0.005610921997882397,-0.0037072502148414034,-0.010397421741326686,0.0
0.04388924803490564,0.00283211464159362,9.684049253678475,0.013042646058590495,-0.020011010762994892,-0.009851873617327906,0.01
-0.007606476196317319,0.05850308733989278,9.86016362947119,-0.008749964856557116,-0.013410036131183817,-0.006978566286065516,0.02
0.19860646479942276,0.07519900586697607,9.730438354033602,-0.01766821660991212,-0.005510317423660208,0.0031767029278731407,0.03
0.07393091647303987,0.09686452852097065,9.866537577151869,-0.022533968946685835,0.012335402079121106,0.0009938455975141585,0.04
0.25751340698302916,0.08291984790174857,9.704596779677358,-0.010122900244795681,0.012153036557475698,-0.010084468250968542,0.05
0.20482728088360969,-0.16265639611840213,9.805087181842502,0.01486822070075813,0.006613906657842406,-0.008234601823574593,0.06
0.04364425837257284,0.12152982527736743,9.943407968592005,0.0008086282452992738,-0.009700308220189087,-0.0028870524869630356,0.07
0.03681101154800397,0.07591423571444178,9.87805408626172,-0.017418976151966664,0.01827412326812656,-0.00684682328436321,0.08
-0.13924537037058973,0.10261554839663466,9.804450415019716,-0.0021857218231534276,0.005497250870686059,-0.004802822865896305,0.09
0.019340655894549027,-0.015397931218174045,9.846865680002185,0.015687557482958053,0.0037472504470381237,0.007410371037319014,0.1
-0.03322492109717727,0.007342286499000811,9.866936960687724,0.011739115622346197,-0.009846297940680577,0.015008484668203835,0.11
0.04225414631320445,0.0008275787680137371,9.88381199457596,-0.008348605532562527,-0.003649605360327094,-0.006209680362634228,0.12
-0.1524150664674767,0.10902980844240279,9.80248782561412,0.0008521928173011954,-0.01846522526761121,0.001789677478658483,0.13
0.014446961407181156,-0.05675893103206521,9.773099648668438,0.004282538559251636,0.0054429509921434995,0.0001170497789887837,0.14
-0.04652735111859268,-0.06366437496656223,9.911042447988251,0.006828172669283483,-0.003756141534614427,0.002526237880060267,0.15
-0.1406060621461858,0.08124201181148641,9.761067932501627,-0.002258921509227287,-0.0032521203109941157,0.002989078387734406,0.16
-0.01980663910687278,0.09826050881170006,9.757032313410473,0.005272367903151088,-0.013348561977061926,5.0419573339401806e-05,0.17
-0.024799172872896357,-0.0020498078261115215,9.927088521943293,0.0058772474837520605,-0.018363842222435214,-0.0011652687674515848,0.18
0.10654284875329918,0.046978402660816015,9.786168668685574,-0.005916012823228685,-0.0001069589289734119,-0.007239314250634074,0.19
0.030829135957704125,-0.028741766400383617,9.820900383259932,-0.004202762392475038,0.0007325378649396272,-0.01875590018993016,0.2
0.2624339670359274,0.12457279425948259,9.773721824352503,-0.0036739851561881746,0.012339571369517457,0.002106900113819863,0.21
-0.16874959503069212,0.14540478881054741,9.942260378829323,0.007154591353522761,0.029165034574374006,-0.000803450737674305,0.22
-0.055613815577269535,0.10063534401964613,9.579594365878325,0.010685205857022415,0.016532956214226433,-0.0004349510844029771,0.23
0.06486739676560196,0.15386074019585594,9.674014998206694,-0.0038441900621434626,-0.006227498578655681,0.012153297295698074,0.24
-0.15362686245957563,-0.06849204394369436,9.803757588530175,0.007395001009074639,-0.005022194212559662,-0.011189640509945078,0.25
0.03737755703799599,0.22537913269379772,9.822173604309073,-0.005368181818502185,-0.014305966935400639,-0.02335211164125885,0.26
-0.0076040189342720665,0.19053723579326848,9.902523269188686,0.005662188525256068,0.007785519436848445,0.014763669615717758,0.27
0.017789405017560066,0.07043531282831966,9.74284274956702,-0.00414997684517664,0.010486361525007879,-0.004760239506623406,0.28
-0.0717285240486839,0.17107688102589724,9.773211315865497,0.008030576682727851,-0.008024205041943478,0.009814604515868332,0.29
-0.00961524498934457,0.0027711728918147363,9.801438275206262,0.013009669849768533,-0.00958860231599994,0.011247000011005061,0.3
0.01633191694363773,0.049831663235682166,9.94670444150022,0.004948587596294658,-0.004748249621673222,0.009680096659258229,0.31
0.19185119629790237,-0.004438834719636186,9.957772297888742,-0.003378056452234417,0.011396606281066923,0.022502341663222448,0.32
0.07771578132070897,0.012580346478430258,9.888180844728003,-0.006142112697196603,0.011955185703503885,0.013423233471869161,0.33
-0.022006590510342892,0.13226027053222641,9.74555342037332,0.0005568763641549633,0.015301834076336849,0.006843192839796205,0.34
-0.1340570205872714,0.22709580814422542,9.690551452451587,0.0003180029164914155,0.002665660970002307,0.004792401476425476,0.35000000000000003
0.012013211472399941,0.0023126850640965576,9.767326880522763,0.0106483682987922,-0.011899460621971383,-0.0013294106770513309,0.36
0.005381347628414098,0.028578901175416838,9.76463026528095,-0.0046947959307429175,0.002259856436282027,-0.009090286367792792,0.37
0.1469619123272989,0.06129286231601688,9.809222838665107,0.004569783095848352,-0.023956036833913667,-0.003325007336851656,0.38
0.03418719007201845,0.1688137649441605,9.817420247090997,0.020398382039333734,-0.0005904336506092354,0.019122175724509093,0.39
0.02603735152288363,0.13663271212339465,9.948300686017554,-0.002332125951643343,-0.003925397791730996,-0.013833935168103693,0.4
-0.03911205850939159,0.05324669773300116,9.822258938266742,-0.006552989673495658,0.009802631579272884,0.004918608706196243,0.41000000000000003
0.05243215923805194,-0.07296784186212944,9.84890360960449,-0.008496316136633257,-0.0072277680136719445,0.011565261052743947,0.42
-0.05117652114472271,0.13095721938305496,9.871825277724069,-0.0068766962399949075,-0.008985082993228114,0.002365454304089443,0.43
0.04319904329152896,-0.0542668082501933,9.782068207131985,0.010017858289467966,0.010153752304914944,0.009098172628152641,0.44
-0.01810462220218891,-0.1033874414394981,9.772412755998642,-0.0019102266497534521,0.004311244558628009,-0.0017131030872909007,0.45
-0.16661690036166754,0.024083871037389668,9.829886253075877,-0.005632615338968468,-0.003922563327083625,-0.0022374206010500235,0.46
0.04315859114252904,-0.06409671304692942,9.779971236409823,0.002207981909141764,-0.005531732788750214,-0.006378308374906919,0.47000000000000003
0.15803324375698186,0.041755334261606825,9.917055480679487,0.0007971499224973988,-0.0030673396451376335,0.009133537012036607,0.48
-0.03216298202893544,-0.03103075222662796,9.758421481492837,-0.012723717030533141,-0.010066696571400247,0.0015859146332646737,0.49
-0.03683380300006225,0.13687987645952496,9.827658990026329,-0.0019541609797113463,0.0023277490590110396,-0.008779200103106484,0.5
-0.10043646344976992,-0.08463521188421824,9.87081861501644,-0.004188780290635434,0.020475534474603867,-0.0046266727739976725,0.51
-0.027438836258489214,0.00825371091457439,10.094519234444016,-0.01799377173054312,0.01636510430076803,-0.017937215288585016,0.52
-0.07526995468035819,0.004161964898741352,9.645167590640325,0.001076570415015173,0.00010659985411934201,-0.012763750914165237,0.53
0.018282011656077832,-0.20791332028614265,9.80747966826438,0.008874827703837365,0.009889120217809492,0.0067623143812686375,0.54
0.08266526265386129,-0.02418386550317909,9.663756649644254,0.006567850865236734,0.0019326371111298072,0.015430328749875941,0.55
0.047592019656308916,-0.017326451478637313,9.778344151637238,-0.008177970547167193,-0.007509533137568736,0.008830729389568071,0.56
0.008510548903521934,0.0924457035304584,9.73394218118388,-0.0016201628609629835,-0.009545451130358297,-0.006408240492127374,0.5700000000000001
0.04269588884643452,0.08961634213351395,9.799994289530854,0.009448771182150689,0.007574644088577937,0.006543602857397138,0.58
0.004750240331591859,-0.08835418710007811,9.77344677696797,0.0012926813856797867,0.013514514086995218,0.023629377992686346,0.59
0.02070393412658182,0.08609037539293252,9.73802406696414,-0.007270470260829435,-0.012343516000710025,-0.0030929910885573206,0.6
-0.1199502678029164,-0.26270204362697286,9.81749262322611,-0.0008287818649329048,0.00453573307386865,-0.005851749122544812,0.61
-0.15312036822341532,-0.002981605559340732,9.839673965138816,0.011666075453421387,0.008054708099900786,-0.0061342417731183665,0.62
0.03208885340710047,-0.0008554996838709754,9.91626877063624,0.00330324068139572,-0.0022222354279286065,-0.004813464805359063,0.63
-0.050810718269205093,-0.10242813164124571,9.767163164484218,-0.005692552225660359,0.000991911150873188,0.007542430309258845,0.64
0.08737658899480259,0.15521703645868057,9.796803235063365,-0.01148449347265163,-0.007610004595546663,-0.010423483784269081,0.65
-0.04499864904019006,0.17779897798465433,9.980848738824285,0.00031869016305518204,-0.0006504548676409644,-0.008145185276857625,0.66
0.04816177851467908,0.14478729553063982,9.616593893108746,-0.015898616005151703,-0.0087151474302371,0.011177048170294546,0.67
0.023174955595098107,0.11497137714165867,9.838248982262735,-0.016911270063580824,-0.0037285741209350186,0.01150695948062905,0.68
0.02039017265129289,0.036348590414294495,9.731454076257291,0.0060433529121213594,-0.009297001927620268,0.0025788798946492133,0.6900000000000001
0.18328044936121815,-0.08048008761838552,9.678369998258582,-0.0005455031790000182,-0.014421839514996338,0.0100207025122748,0.7000000000000001
0.006814788985081734,-0.08562403116456206,9.968559910157564,-0.01035206784428131,0.01151659359783059,0.004587799622384802,0.71
-0.08093604516486042,-0.10125040679409314,10.009666275696455,0.0008108337504416135,0.009571385167630706,0.008357426020871115,0.72
0.15589315975499154,-0.025866516775418735,9.757063620248788,-0.010713988076536382,-0.023793140266810592,-0.002758410496862664,0.73
0.008025280725568051,-0.033126962838312554,9.805494009305141,0.01059852573553783,-0.009605177451747807,0.017442466434484525,0.74
-0.0037145296976854557,0.04455482059298059,9.861263767835718,-0.009570493389183256,-0.005047965445889581,-0.0029853315646755007,0.75
-0.1640613927207601,0.06921622623561478,9.711766688036784,-0.010700821378816536,-0.011217470977505969,-0.01658070204529293,0.76
0.11303565014397961,0.11849643297273788,9.658049180019177,0.0058701895085029885,0.014926342133319274,0.002075945332627685,0.77
-0.1650219744501455,-0.028945906148488174,9.831646833608295,-0.016061169443634192,0.003396014891723537,0.010527326590537754,0.78
0.11058618222327726,0.09983661090998314,9.571639095792758,-0.003998328531300024,-0.00032551680076590083,-0.007888074443623749,0.79
-0.16953942063148006,0.051427661192091335,9.874481206564166,0.002662247175344443,-0.0024977402993084387,-0.00775357218309878,0.8
-0.027023374072792813,0.26251811674722564,9.720522939985713,-0.005946626740585219,-0.005410915428606901,-0.008504953233791043,0.81
0.08290607762447878,0.07935272661266937,9.809076720895032,0.004736096347301764,-0.009685289589896008,-0.014678960609885588,0.8200000000000001
-0.1480715329625278,0.04555496811223741,9.624703778162289,-0.0016633856618952629,0.0012056738406675319,0.02096869096617667,0.8300000000000001
-0.06058568034531492,-0.13203570902215875,9.915347394435933,0.00015005261238810823,0.003743742268428398,0.00645284947766968,0.84
-0.11264267741680936,0.13442285240401988,9.720819842918852,-0.009534390396463492,-0.006983745578584,0.005304048429304938,0.85
0.019043489850196785,-0.18539641176280278,9.846811932522622,0.0014307175460701671,-0.0013111858708372331,0.011444697399778962,0.86
-0.04504157894397818,-0.006297149236657241,9.68235746037925,0.0041295988411623585,-0.009708410755866752,-0.001954133084602006,0.87
0.04965511584406713,0.06176226592403533,9.715536034756264,0.0053780286119707995,0.002908356420252806,0.0005025817690270336,0.88
0.24775386912591657,-0.11727693240704343,9.817883796120311,0.0057097277696495745,0.00733868724554451,0.005076437709020755,0.89
0.05908245959422878,0.014671858583540715,9.664869378871408,0.006066526830676267,0.012793657329253765,-0.005799921114055543,0.9
0.18712598420744242,0.032732618663182396,9.69170832254924,0.004310600132448085,0.012542911605373757,-0.009422576992996408,0.91
0.051874960076627924,0.050033327032011535,9.80951077696254,-0.008094872048870608,-0.0047412494816261065,0.007239484971660012,0.92
-0.08932441026816941,-0.0012661704401265245,9.720032126187231,-0.015056101832262716,-0.01854232771771096,0.0013508668873936755,0.93
-0.04039651411867965,0.09810091952019098,9.847187020494838,0.015152389093628297,0.001951154748987629,-0.009386586399158547,0.9400000000000001
-0.013102867434834735,-0.3577498972274352,9.837703598089007,-0.010215992143255996,-0.0037494651861707845,0.00323959683037505,0.9500000000000001
-0.1155626179505712,-0.03796873310481086,9.758054725163582,-0.002423864677187047,-0.002451860999875844,-0.00035357842799185843,0.96
-0.09871221001233033,0.15929366526227962,9.899475205306834,-0.003868280994491369,0.0017262846435048577,0.010191398376319756,0.97
-0.0016010571984991446,-0.1295704252082791,9.861465656146574,-0.004880347996108295,0.0036832250335691575,0.013097124425062423,0.98
-0.14985618863344227,-0.0034769478473371043,9.795122827342126,-0.004352832563018344,0.0042421400187353155,0.002876725326103217,0.99
-0.07998590817142008,0.20547571628032044,9.74530858082272,-0.003724651199280326,0.0017500604037235157,0.00015328176598485515,1.0
0.001493801987091924,-0.06651619103799865,9.922171527641446,0.006006255401087406,0.002414215213949362,0.02055338768038907,1.01
0.025381128504147338,0.16501996741785507,9.866683648491895,0.0028431602049336373,0.010633784941009004,0.014307732193068814,1.02
0.015194477676253605,-0.06206656738551324,9.853877958459712,0.0015951466984459246,0.0043002195804389305,-0.015582727438485216,1.03
-0.05055797365665171,-0.0031061870863970903,9.82842870923886,-0.014689925939057687,0.0150607146493119,0.01630237146608269,1.04
0.022916089562835355,-0.04514211124382741,9.866362691856192,0.008505235062120663,0.006446327487995221,-0.008128613363080042,1.05
-0.05554511568634727,0.04925569597040825,9.941337688297768,-0.005930021676659051,0.0034706759500569497,-0.003943060044613413,1.06
-0.026714512465610227,-0.04983793782883762,9.86062821345674,0.0185938752255047,-0.002967037014601082,0.025490565081949294,1.07
0.12750811272357207,-0.03511471238802994,9.774425823157406,-0.013373894673840387,0.002423553803018909,-0.009744470588686509,1.08
-0.11953768031463603,0.09275758579866245,9.655646776853601,-0.005092228303611837,-0.008812966754260815,0.02051241667286458,1.09
0.019613187048170833,-0.105341997781896,9.846880478930235,0.014510968621428755,0.027226042199494198,-0.014474543358637569,1.1
0.04211161148918966,0.0660014321776282,9.865354821819805,-0.0024115861817384323,-0.01216313057788851,0.0024324127494121366,1.11
-0.20605192859011742,-0.000912868061262982,9.819468658295655,-0.0012636815359548493,0.0019124895336459246,-0.015548085306964115,1.12
-0.05455840023212603,0.09380126753634337,9.845802001750835,-0.007824358873097396,0.002290692899336915,-0.014593473878716193,1.1300000000000001
-0.1412703792910712,0.039123957165559164,9.647376025941394,-0.011638498524847028,0.0015168628029570386,0.003996451339158528,1.1400000000000001
-0.12289953920620632,0.019120846454065282,9.74633717802094,0.009318498874388178,-0.010943346173987945,0.003545270980543593,1.1500000000000001
-0.060936046590563425,0.012390910066197336,9.779408002578124,-0.005298204487633633,-0.003085252245205749,0.003771125962973391,1.16
-0.024097781965645465,-0.01897826800524576,9.94636996496408,-0.0012143165439479956,-0.0026420038422248194,0.001008794278032141,1.17
-0.011126990033465869,-0.015254694386407641,9.809170531909094,0.02182018567259724,0.0015961674225781475,0.0006398311345369392,1.18
-0.13355089340913928,-0.07421244581775337,10.001154947613434,-0.00788204113159541,-0.0047731490318508145,-0.009614870936917916,1.19
-0.1009035008000902,-7.856261655354154e-05,9.901672874535405,-0.006031908013459683,-0.003622656784745395,0.0070727103385408744,1.2
0.10289769435876557,-0.08255768977488342,9.624889795837538,0.005730115143612398,0.005293366085102056,0.0034956052286864566,1.21
-0.04942146228690761,0.011842421976299053,9.80037732361649,0.0019499873395988122,-0.004970539012796435,-0.0001613578514273405,1.22
0.028006459830936848,0.04849997819108578,9.901943967302786,0.01729301957225919,0.010394895325405818,0.0016041301106313793,1.23
-0.19470198295243493,-0.14195896829199223,9.775928820627534,-0.010861847906585292,0.0021282177603661277,0.0017877340809561155,1.24
0.09323675487640615,0.2382617697917374,9.816019313823348,-0.006008376708890414,-0.008575502661052474,0.007063370836906901,1.25
0.10974899383213813,0.16451206320528156,9.704267266664676,0.01194129801883619,-0.013239888942497736,-0.01847115479048078,1.26
-0.08138096436216394,-0.052366103270832645,9.886747727657763,0.0012661454222343896,0.00023327553013200125,0.011270176852501382,1.27
0.013135229510916733,0.10330353879893937,9.81594062806022,0.004057701254641346,-0.020669625035848724,0.004527525134549845,1.28
0.029377015796458253,0.015585855871509964,9.707965850209074,-0.0030436290662070333,-0.012819821108916647,-0.006889270565075649,1.29
-0.13915399446268592,0.03395582918349073,9.920046027558264,-0.007118867578975805,0.008141060069634734,0.001629689343294922,1.3
0.010733614915319658,0.07499990579967047,9.831207668173688,-0.006212435364686752,-0.004249121306247775,0.022976773865378598,1.31
-0.07422379993903215,-0.18144725034186224,9.744960256250593,-0.0017225351990848476,-0.023784425646843802,0.011820213621707215,1.32
0.05769307895607667,0.06590017139572012,9.874162898839307,-0.008438803325700241,-0.012455831659849034,-0.011231773363736805,1.33
-0.03444204368745002,-0.01624619927218716,9.786499075041263,-0.0009805293251534879,-0.0011988806393533704,0.011041837883773721,1.34
-0.12352429708314215,-0.024562265887712775,9.929129012319438,-0.0011527065182048207,-0.0031231719042913,0.003586681871167381,1.35
-0.1170139986487851,-0.023632458618694046,9.814419917263546,0.015265989276123056,-0.002915902102633668,-0.014765326364763248,1.36
0.2053640605598402,0.08108503165203076,9.760056438385735,-0.0033853311781516155,-0.005796628827823642,-0.003442648172563135,1.37
-0.12419660296502646,-0.16086950084539778,9.795740951915805,-0.005108870655537597,-0.007329445812203878,0.0141390141521884,1.3800000000000001
-0.004720948390711514,-0.09560348665037612,9.970600629342128,0.005215364630525203,-0.006820668260957947,-0.0023345998850497676,1.3900000000000001
0.12423033097353862,-0.06919798276734807,9.839285545778957,-0.005913354615821871,0.012018944602790255,0.006099607658442072,1.4000000000000001
-0.11469067998348237,-0.13652538238664985,9.889751331257923,-0.007767296642126116,-0.006723711303357,-0.003589405319800636,1.41
0.09999645756270391,-0.14047141093572488,9.807013442590558,-0.0026024895236708458,-0.008213114810657765,-0.0005053337451376838,1.42
-0.02001498928913524,0.01784658804440922,9.851389479417943,-0.01604039064378815,0.0048419149182361955,0.01671005024000015,1.43
-0.10027255134744471,0.056605705335247114,9.76256438963299,0.014769589062988881,-0.002749840937800497,0.00047479387182311364,1.44
0.09213921394181666,0.16066237502795067,9.935883526648851,-0.014137305249673927,0.009656442533703232,-0.0036077663905047137,1.45
0.06724750532694272,-0.13589797947387025,9.804343997361178,-0.010831537133701519,0.010336133048949347,0.007081047799212385,1.46
-0.09051192004024393,-0.1771017567786658,9.842102653807943,0.013400228592404782,-0.020811462426912054,-0.005065738615517483,1.47
0.09670020496973634,-0.053730131857902146,9.8879416140617,0.02360242717048358,0.006239916846407129,0.005839268867566763,1.48
0.03970874601693705,-0.028068984745495018,9.885007410207116,0.00031628071737688717,-0.025430905106461368,0.004077259889951538,1.49
0.09687466563727633,0.012290114921243385,9.647781446051916,-0.016692819536346656,-0.007879967510010662,-0.02215796690939625,1.5
-0.06733788402287202,0.017170460358366262,9.70952028260807,-0.004767062470132309,-0.015031376497483845,-0.003958943354652279,1.51
-0.2299303552222044,0.1277731893140148,9.870040292414895,-0.0007431299889381928,0.00048197707409530327,-0.006151052296433561,1.52
-0.07670576222154162,-0.11028441629027799,9.814346761754361,-0.014968191502877962,-0.001963483422572644,0.0005305783196906644,1.53
0.07758119250986972,0.042989775205659164,9.712290881148377,0.01349064805289967,0.013014281865857832,-0.008316630406182196,1.54
0.04788243263489463,-0.04815807836447857,9.732212678691921,0.008259831474314304,-0.01316891720989893,-0.014529983457466334,1.55
-0.0709975907312543,-0.05723982615240854,9.690814130173257,-0.004821895419848855,0.014880120704636702,-0.0009942445304301655,1.56
0.026480528291112256,-0.019858504049173144,9.666519501629468,0.00728337948058652,0.000436095954371516,-0.002961250021020287,1.57
-0.001379794556686502,-0.07867402704061598,9.633675980318381,0.003707284739362847,0.001407877286602956,0.01786147726115374,1.58
-0.18824737192817526,-0.11432994233817209,9.721439696527476,-0.005664208481144207,0.011218687196164834,-0.005317693274710192,1.59
-0.0904695774964487,-0.10228542136789123,9.847215066643711,-0.027307983832110097,0.003486805997791373,-0.003446855514349903,1.6
0.06363619266410873,0.027096762748074002,9.778663744220752,-0.0007049306201545417,-0.0023681664967921006,0.015843121870608802,1.61
-0.3215981777064698,-0.07232086476161799,9.758632674971153,-0.0038458322678118734,-0.007562125381634028,0.0050116715285831274,1.62
0.09692141895775103,0.19275419402018984,9.973920632641924,0.013146317972737605,-0.0038288553127298216,-0.02091812054645668,1.6300000000000001
-0.06280826264300969,0.1211743026275526,9.966133215613246,-0.008577098250629666,-0.003919519282843886,0.013677716257355988,1.6400000000000001
0.0977119297330286,-0.1332423456904954,9.723182185325356,-0.007545218772775131,0.006493686330500407,-0.0072087530831143765,1.6500000000000001
0.08476828789099358,-0.07577421049089975,9.617893810766269,-0.0021342101916802026,-0.010402164156567882,0.01392740336889452,1.6600000000000001
-0.12747387972686264,0.1885907836259656,9.855082611237696,-0.011180153179491798,-0.0036869515710589254,0.013949694550853391,1.67
-0.07256796937970583,-0.16398637110139647,9.949494312618135,-0.0032570180291340823,-0.00041591312480776494,-0.009261497825726654,1.68
0.06969433392647446,0.04318625009885264,9.983745061788143,0.0019808671083486463,0.0008534592963004445,-0.006646089094266783,1.69
0.04573619502967066,-0.16236954035362247,9.906137842402924,-0.02783873249894071,0.007373613960088195,0.0011357245715743834,1.7
-0.16627261929789103,-0.09360588343282349,9.735085669768551,-0.004515515624139355,0.003134649000918843,-0.008687863288846354,1.71
0.1080600824043213,0.005657924489890228,9.919268387248264,0.009315368361103145,-0.0002172656647012824,-0.0034185575960002964,1.72
-0.18842940113160708,-0.15463422716977623,9.898006190334511,0.012264378858805616,-0.019889023630206316,-0.0026679639191330372,1.73
-0.19165322467112134,-0.07628227980437291,9.839199486397549,0.0013877843824468502,-0.0025765057937112467,0.010026519217889008,1.74
0.01892948794804666,0.009471973422093827,9.778146922530752,0.01323649306311546,-0.010720444627629699,0.0025780950562080606,1.75
0.07866188383379258,-0.14571194013006328,9.743954971860896,-0.016766065716906673,0.0038397946840603215,-0.007668903259456258,1.76
-0.028255526061332966,0.047330728748645065,9.932781222852668,0.004946502488164333,-0.010042727719765273,-0.015505534902971598,1.77
-0.010439242198568309,-0.05327585813666505,9.896336599742021,0.013652012648719849,-0.012289013237938733,-0.0025302028355956865,1.78
0.00853567436687349,0.1543773770837789,9.847667908992193,0.005486389922917178,0.0006843792670706476,-0.006780459816385488,1.79
-0.08433337601750913,0.14535245977250008,9.605497190196338,-0.015772441200598956,-0.01016654930566872,-0.008999645285397208,1.8
0.1190609590662072,0.10185295791455505,9.798678219231386,-0.005928954303233764,-0.0046570992184478835,0.005328454610008383,1.81
-0.18236090358366153,-0.14537039704979934,9.69572314876737,-0.005358114753178957,-0.0021805326008497963,-0.00826263072895916,1.82
-0.015044693911386232,-0.14699690397842818,9.998414384775629,0.0030388109760991233,0.006726764540176737,-0.005065470294722218,1.83
-0.018224188741931793,0.08100588422690919,9.630430018561595,-0.016487591484113485,-0.0051394326482258005,0.030466102164995863,1.84
-0.18379963792767873,-0.01510407106253463,9.821501844498952,-0.0017150544543775093,-0.001657508233396774,0.013708503819093602,1.85
0.04336205848536043,0.13793673504977427,9.93229317863087,0.027255721967822645,0.018125753699919953,-0.0040084002501679025,1.86
-0.02013121573307478,0.016545316762124,9.836800592006895,0.0002473346497537687,0.004855772990995645,0.014297035249503445,1.87
0.03166802432856206,-0.05276037693703746,9.871256879665118,0.00546647840451903,0.008643338225289163,-0.010152396374204764,1.8800000000000001
0.0033410582050598285,0.008982074181279746,9.635146070729009,-0.010854532846020252,0.0032654639069706155,0.0055496065508914005,1.8900000000000001
0.1224695847794427,0.19792161740048445,9.790223497516926,-0.01580802255292612,-0.00555015738850164,-0.008286163275385169,1.9000000000000001
0.05034100323187656,0.021111499778680688,9.866176259610816,0.0013789766452989535,-0.010533765582614023,-0.002737147523917763,1.9100000000000001
0.003997799345953237,0.036498536429342865,9.936163437480127,-0.011127012958328278,0.012313482532474041,-0.014948445523712264,1.92
0.1817732522380888,0.20515801785594057,9.857930333434048,-0.007531202570544178,0.0174202361176169,0.022218918239730004,1.93
0.10539317830730917,0.0009682930468173459,9.923734378978736,-0.0009455100608098417,-0.01449817742775379,0.01367783746713688,1.94
-0.13520232188992512,-0.06974805676735062,9.873056856188368,0.020143236294046477,0.007729106598582624,-0.02445043522277504,1.95
-0.07275089470832079,-0.03900816199419264,9.84373992125728,0.008431462887914496,0.002079188801152651,0.0018066395832053847,1.96
0.07608921621640378,0.05383873021590294,9.848699748984876,-0.022731526914843668,-0.0007478305979920455,-0.004578730305818102,1.97
-0.01946941867396954,-0.016556832629113727,9.95870461452241,0.015530524268106626,-0.003185273608726268,0.018479435324511486,1.98
0.10611312074545075,-0.23457186491899018,9.74584890860497,-0.01204424585752106,0.010525548889975755,-0.0005916041135497334,1.99
-0.11186282521430602,-0.04873254629529561,9.728629067863992,-0.012565672710333459,-0.016020652603651684,-0.0029230687008593797,2.0
-0.04450018306715381,0.11881382211451381,9.952261494500679,0.0023220980897212234,0.006481452731004234,-0.008565855628267113,2.0100000000000002
-0.0856992402224971,-0.03177725836931707,9.655024321667884,0.01481158522267813,0.0027201424968723935,0.01094743431774037,2.02
-0.09148286401379944,-0.05242069714713632,9.793645583614648,-0.01737880974365597,0.007346318518587227,0.009854296195378916,2.0300000000000002
0.21706542570908513,-0.18152118830374997,9.714943654070316,-0.0027457542478435608,0.009903530681298945,0.005457442876947699,2.04
-0.14964427624865706,0.012128549610987145,9.800625451585589,0.005690241280914208,0.0010207765227739363,0.010127081379783926,2.05
-0.062418210776858996,-0.22468213538892395,9.663551695105252,0.007580314856064577,0.015446423674227324,-0.0003267077693871691,2.06
0.141683077902972,0.1536867150037852,9.721288455959876,0.01623722686655744,0.006493450870416516,-0.007687895203582635,2.07
0.07843287471189084,-0.15939088851673272,9.959131064582891,-0.004749148806023525,0.0035226502148916674,-0.0052851555890617965,2.08
0.03765841480053701,0.08904061007275135,9.984549780759567,-0.009139581321608784,0.0060874938823512826,-0.007938055979057345,2.09
-0.05808471385900974,-0.052846283391133377,9.704931742769736,0.005241837782440635,0.010918691489654101,-0.0062575403149941625,2.1
-0.003792770370280472,-0.05409694628603837,9.83813385254445,0.006104272521275021,-0.003828988626921458,-0.010970147363852352,2.11
0.06270647596491723,-0.0809966112860181,9.841334800224118,0.020569981674216295,-0.00806209407734423,-0.00540246668309542,2.12
0.11331205953176052,0.09857333708967059,9.858048032606694,0.005726018585679606,-0.010294674576454294,0.00026342084718652676,2.13
0.018032084220425446,0.1325995274478078,9.861098520915753,-0.017656355919646517,0.0029392813010570536,-0.0033004840652688283,2.14
-0.08189871806142011,-0.07658703545953094,9.968907572857608,0.007458103099769532,0.013555876051069405,-0.004733161727936109,2.15
-0.0923135496438379,0.12230106753949291,10.076422724208971,-0.008188829540290486,-0.009530787820587847,-0.0038866900811643447,2.16
-0.14075864680830819,-0.07965089634448212,9.595201375839551,-0.008181728983858907,-0.0012535137706019472,0.013006079945352902,2.17
0.09711442354338308,-0.035644187487036676,9.527192391613083,-0.0067754455577517456,0.0013260127308073013,-0.020100519225320097,2.18
-0.1469001248836097,0.0169837537795918,9.869540400512182,-0.006354160431390586,-0.022539266449700272,0.00953279990396,2.19
-0.03320788221071519,0.004361828108368953,9.827185765186243,-0.003342933816406134,0.0033785195036386746,-0.012200167179747168,2.2
-0.06566052211177473,0.04087545857780046,9.789639969225291,0.00994643379772645,-0.011452387209322379,0.01611974833407679,2.21
-0.0112097586217182,0.27522172753338875,9.670499559878253,-0.0022883181868549045,0.005587420844331401,0.013224824471970908,2.22
-0.05695977471988183,0.08446018648495096,9.80716441556235,0.00671501422081415,-0.006135318660896553,0.0003052822827562287,2.23
-0.14377073162590878,0.12252744718409148,9.920394443973887,-0.0009105549054211277,0.01304091583313216,0.009592069658610227,2.24
-0.07594003107398785,0.0049050350621811095,9.840249535274731,-0.016802740133567497,0.00012496958630034215,0.0019858667270949816,2.25
0.19435753288792096,0.14890191856429266,9.789865664089994,-0.005291673319718807,-0.0013629764052694975,0.005651662039718146,2.2600000000000002
0.12849575425449059,-0.04752723231753433,9.987627986263744,0.0033835354883728157,0.010204012541299403,-0.006415903322636591,2.27
0.030694895738147793,-0.15077371387603464,9.714932565313921,0.005394345793222221,-0.007865646783076288,-0.00356938414303497,2.2800000000000002
0.14490832026585782,-0.02572154526403272,9.723133356836474,-0.022649965264444082,0.00970975568511684,-0.0005848903288862187,2.29
0.03802557042510154,-0.10570443018084344,9.776283416621935,-0.0012372813445086035,0.007057111341023241,-0.0030685952911461843,2.3000000000000003
-0.029034349558268564,-0.004477096710238278,9.85793135643665,0.013649682501926037,-0.014050372610816876,-0.010327102788425363,2.31
-0.13011833801925357,0.057093517268915296,9.850090721762944,-0.015148080552258109,-0.006635213348776187,0.0009440046573551055,2.32
0.06141172786089047,0.07121712967077364,9.735672685232112,-0.003881319913120333,-0.017286397371553776,0.004910560829641898,2.33
0.1588703112563883,-0.06624257646004293,9.61232246982841,0.012124640614439472,-0.0005058260263587176,0.006736390316414757,2.34
0.1166079265991721,-0.0772298071479821,9.845813658576656,0.00114041965729294,0.017993905052023206,0.0022983836022255296,2.35
0.15366249258981213,-0.10521847817040111,9.838828732361659,-0.019439752437634933,-0.0008000063331311011,-0.0005064803549875799,2.36
0.05079230943555148,-0.011254935432761654,9.855429801704258,-0.007381853395188008,0.0018162764840191062,-0.0020288152264198306,2.37
0.0434191375815649,-0.3135474298549586,9.652457885998494,0.0001798871711253952,-0.0006060711169286329,0.0033689738510148965,2.38
-0.1295047031957141,-0.044927021068268735,9.68841463463788,-0.0005363937970046255,0.0029095677560055043,5.3194156639953686e-05,2.39
-0.10790632591847926,0.142776679417552,9.71486917515691,0.000510408613022867,0.002390238783856003,-0.024628365558411525,2.4
0.13748053188135262,0.02967994556902692,9.83086803814254,-0.004360153627811443,0.018840561563625697,0.002221766098064214,2.41
0.25104671149080054,-0.20593149418365067,9.812938029351232,0.0018447274720033674,-0.0025161475911541966,0.012194203644671173,2.42
0.0035962897403249167,-0.030883644575616827,9.834398204352938,0.009342814805289765,-0.011623461692182466,0.0010515844453798451,2.43
0.05253979646925571,0.07965115650421166,9.996164366654078,0.006837098326675817,0.016121168823111754,-0.016238342837991408,2.44
0.1270310353084255,0.11546843914481655,9.873567262166857,0.015282921047401294,-0.0038869700932502517,-0.008508110753188115,2.45
0.18880796075507142,0.030897129005094965,9.868544214570292,0.010764185832499532,-0.004283335684648455,0.01877316525469937,2.46
0.12438245710884997,-0.029976356385208028,9.769473591170991,-0.002517913756926779,0.003908655526758481,-0.009503143674027522,2.47
0.011102965266931279,-0.032099451509002085,9.876029179870493,0.002248993920927971,0.005514498344995329,0.0005878673661957423,2.48
0.06077018825490417,-0.014643256849905133,9.929444732801917,0.015614229361463028,-0.020261158445500485,-0.002179587435226476,2.49
0.10474100022631726,0.18303938505696363,9.968896604493459,0.0032415257689066596,-0.006876506347886272,-0.0026071299264772137,2.5
0.05953515121093375,0.1646513591890539,9.83892608622038,-0.02180973625129634,-0.009248555928928145,0.016454416255274402,2.5100000000000002
-0.10110453465037013,0.04541777405532601,9.814214044344812,-2.3142860041231916e-05,0.001303551623422822,0.016842781655005863,2.52
0.09330119397782845,0.17802734160526035,9.850985572221745,-0.004110805447521309,-0.0005136481108782803,-0.014342271704919805,2.5300000000000002
0.06011899951149328,0.11944904650880164,9.787994947784838,-0.017324197146048343,0.003973735182206621,0.012557233894109152,2.54
-0.08926582473291848,-0.12264615054542621,9.971893468914358,0.0028331933818887085,0.014114518273550918,0.010989908555903987,2.5500000000000003
0.0377654349078089,-0.008862532060882096,9.49158949076972,-0.0009377141311411768,-0.010820129787162512,0.005127066817697915,2.56
-0.04600751965197082,-0.09353981479060083,9.691941151229186,0.003854420522335416,-0.007245748855847563,0.008525729083788704,2.57
0.11394002398516834,-0.1566929879978354,9.832155224842431,-0.007047773184309183,0.00947013250396418,0.00825011267502522,2.58
0.09019832167349667,0.09273848342632708,9.729114322525234,0.005328307740700974,-0.0022781302037185058,0.006279319503451453,2.59
0.03840494859465676,0.025225748043022703,9.806879187901002,-0.007697219402813701,-0.009702203319390763,-0.0018081181697276163,2.6
-0.11237213814536343,-0.15544100041338527,9.80710623962691,-0.004766966887203858,-0.007668132316743736,0.012061820514401491,2.61
0.14801916093101572,-0.07653573204983061,9.909501942426346,-0.01493446500996188,0.0026624380782616446,-0.015022577665500383,2.62
-0.09653468458536027,0.2740966386809743,9.866307722577995,-0.003943650811825186,0.0012219229235446503,-0.0023233175227280367,2.63
-0.0701285784553256,0.11742400590230413,9.777121097587152,-0.007506497734740855,0.004457987186454377,-0.009818649342455413,2.64
-0.0731194273325413,-0.060848577784373414,9.867091302090747,0.003129484589148142,-0.002080029090465897,-0.016611165778051357,2.65
-0.2075391099658922,0.07080689866145472,9.755979294395667,-0.006943762567157952,0.0020261912608321355,0.01543273500876763,2.66
-0.038332299871160436,-0.07274436876534873,9.687443850386813,0.005750638911701574,-0.018616155116576247,-0.011358045412623544,2.67
0.055805369452974596,0.01432302448405836,10.04432842463442,-0.009646938220951565,0.0017674823348605966,0.007822329991334231,2.68
0.031444099026669704,-0.0540075266481362,9.676718868543967,0.004518785080393649,-0.025450982258050234,0.009572268073775718,2.69
0.02882774231274417,-0.07285480645621761,9.912065517716266,0.00243694518356344,0.006852613432197629,0.01001097734276948,2.7
0.004938937617180447,-0.17725893731790104,9.768092560228526,-0.0013372394922223578,-0.0002977679320508418,-0.006099377129961701,2.71
-0.12107629174591866,0.07248348834584792,9.967055085636336,-0.012697073718895847,0.012483210366283432,0.001652486353220654,2.72
0.07437768225326939,-0.0009220913308969466,9.870413775134248,0.004909171159655448,-0.002664904526196988,0.01143768421771635,2.73
-0.1250131476884434,0.08766661185043155,9.692290891859084,-0.008132375918768434,-0.00024589035165952346,0.019517960916563545,2.74
-0.00046951051408736515,-0.1424515017345223,9.824385691535392,-0.010248187236379673,0.0045558924302156,0.01733368080914653,2.75
-0.006918246693920597,0.03837654360054744,9.777310068589077,0.0035692883370504686,-0.020593155329237143,-0.017949769614566458,2.7600000000000002
-0.08677458330366773,-0.07487417203476429,9.791232470408913,0.010996088566090398,0.009341280589628841,-0.0032621427647517155,2.77
-0.09138258362637373,0.06764685135266156,10.02973681167543,-0.012456138031411943,0.008592010220276803,0.004914347948845155,2.7800000000000002
-0.02449362066771281,-0.09462547915150035,9.827961682265443,-0.01166208219983787,0.011683414946729349,0.0014997515407746999,2.79
-0.04408485160090676,-0.01941923600429881,9.832138663687164,-0.010947543079045401,0.011257820154753276,-0.0029808803888577286,2.8000000000000003
-0.11169388195344013,0.07917259051892006,9.817818868348901,0.006328447213634922,0.005417543688527104,0.0010575208486222247,2.81
-0.06004561175332782,0.07830877373687067,9.695219659833485,0.005251196430664276,-0.0002839281308523371,-0.01140370400178491,2.82
0.10723454707570364,0.170592879809055,9.97829197296072,0.012913722638149232,0.01042135027399844,-0.01020399198587465,2.83
0.037385202482771926,-0.008862730808663823,9.780529399266282,0.0020495185521573357,0.0009623693438679773,0.001066954484669522,2.84
0.06655956007327549,-0.10712697111083279,9.732212353431112,-0.005964917223714556,0.0024227574730770786,-0.011412170858960399,2.85
-0.07815176616104694,-0.12438091807764831,9.691412283868893,-0.01153434514416186,-0.002610134563173897,-0.0011838740084571463,2.86
-0.023939280588913134,-0.03995560596032322,9.82305822563159,0.00840888734070766,-0.020245078790683824,-0.0003685494663081062,2.87
0.04942043779661738,-0.027911407553057002,9.948432866481244,-0.003822136357755798,0.006395074371404304,-0.007599048343623955,2.88
-0.05167671874640291,-0.08617939210685822,9.907037585631663,0.00722027126821457,-0.014592959660291517,-0.01628127037759316,2.89
-0.1515263368245,0.019116908684157625,9.725785342104853,0.009827544818624382,0.00236227091890124,0.003044287870184838,2.9
-0.02684969431586734,0.02314001804333886,9.840503398582388,0.02507567745765595,-0.009927563451126987,-0.007212714186588048,2.91
0.17627868943393063,0.13746012045150482,9.960197478059102,0.008950517531149725,0.0034110258930560196,-0.007707866888988641,2.92
-0.10629242547908131,-0.14839151020474084,9.779457256497166,-0.004611822591269202,-0.0029506773110237377,0.0024344831325845166,2.93
0.16803038171330786,0.06309773544021503,9.703352570969503,0.005455873189233788,0.006177508186135039,0.019092610180105402,2.94
0.04843335831143018,-0.01426303448351893,9.784005445151095,0.008485685042589971,0.0011102403279253218,0.004190590238595455,2.95
0.09819933047006532,0.18991869646707246,9.823709951619968,-0.001466988053881271,-0.009357783737260315,0.012779321089203462,2.96
-0.10526303396211129,-0.04932740976009448,9.939641676776086,-0.006059276014393729,-0.00884944079076864,0.01162285388367791,2.97
-0.18480514939450332,-0.019096389507272396,9.839097237764493,-0.0018562275694669306,0.0043015257460129385,0.005089341216357706,2.98
-0.0918017851074295,-0.09971327576074294,9.813077441903609,0.009239365733855465,-0.01063879754715043,0.004274073659973284,2.99
0.08353130172941436,0.035800130599949964,9.817304712281917,-0.0258637232587538,-0.01613104213416405,-0.006195871193009735,3.0
0.07847580308571742,-0.05846737739513681,9.877894533261472,0.009877082657237276,0.02240505146883848,-0.005818116553972077,3.0100000000000002
-0.1564276290427811,0.1905815802971077,9.937186990435778,0.0004269359639254271,0.012502339593081932,0.008482508507882439,3.02
-0.0827312482778093,0.06562154841567037,9.740362669450613,-0.0011639314709521518,-0.0015592973825298301,0.00915958828160695,3.0300000000000002
-0.2025596031899698,-0.18152087781543624,9.723516103315573,0.014178794937754119,-0.0026878940611213997,0.01737259030935134,3.04
0.08180444217692744,0.03300848021638671,9.845987429009755,0.007726436732274039,0.021773628878766726,0.01728903027338589,3.0500000000000003
0.17624568819059439,-0.07530720375585333,10.146617565707244,4.227952860988542e-05,-0.0031655518611540985,-0.0013162424857276669,3.06
-0.04602550038057763,-0.008037176592198486,9.922888859646227,0.0036080882695973112,-0.0043125823762269425,0.005332730682279895,3.0700000000000003
-0.09820837354341216,-0.15742078861100506,9.75167321662806,-0.015212530733854143,-0.003043975062587141,-0.00800500999831569,3.08
-0.018196214258830848,-0.08431590222830887,9.790611003172772,-0.018067781343733325,0.012711770385722137,0.001891866183086385,3.09
0.021692435170435596,-0.041556101593384936,9.878605448781004,0.0019855220828532342,0.00945766973985569,-0.015547248370182898,3.1
0.002453712066742439,0.058773079154962465,9.74343346868632,0.01669055274916257,-0.0055125722208905804,0.006677902170250426,3.11
-0.0180105070522332,0.0038042434482337484,9.83348466079425,0.001315852834058506,-0.011308339381008944,0.018063149518644194,3.12
-0.1069627113125532,-0.09354859602128329,9.824904992797295,-0.022394614837986753,0.0007331846785509809,0.004340595852318996,3.13
-0.08387171929939044,0.035654609914214694,9.866740273789183,0.0005614457733750111,-0.0073366334890774655,0.00304843021136295,3.14
0.16403765945037393,-0.09688906656701532,9.838278822348371,-0.005107747017938199,-0.0005203362203639719,-0.00611578255343034,3.15
0.024410982328496006,0.04595452369909069,9.725381066451869,0.021125441713255318,0.012167791457057134,-0.015479234873667647,3.16
-0.2567552797505585,-0.05387941596064292,9.81101270007035,0.003598241597683268,-5.2762801823926944e-05,-0.01615202296033057,3.17
-0.12944227260100144,-0.005545652587106914,9.892199621735564,-0.01693011703611762,-0.008778483210529113,0.010831328908333675,3.18
-0.07746904621365347,-0.029199112846956612,9.787017220935514,-0.009590762666310424,0.00425057786632386,-0.004734113217004893,3.19
0.15459336323682424,0.06389943844526397,9.880359752889849,0.008362518550875478,-0.009433244518400942,-0.0002697255876334422,3.2
0.06838133234256973,0.04918464526886816,9.824260644538812,-0.004593811251677044,0.004457363917061455,-4.238699994053316e-05,3.21
-0.009343457642303927,-0.18713699781798032,9.821438136974106,0.004089406330592148,-0.0028813857586656596,0.009968905644181446,3.22
-0.04430704402762336,-0.1120347067274537,9.751383494719965,0.003131112296445863,0.0014291590612555793,-0.0090769893900538,3.23
0.27231927936587863,0.007439817836618744,9.993496745659666,-0.0027215845348844514,0.010197627810536696,0.0049943052859410635,3.24
0.18120691085417784,0.08370297907071039,9.779243181133218,0.004801545062710499,-0.0073201744034656294,-0.006901030016560107,3.25
0.028195408868195992,-0.09978207142332422,9.863944461231355,-0.010961139146273526,0.01326848262923399,0.0048134841079950945,3.2600000000000002
-0.050590557035871814,-0.10674154852417908,9.899303492448112,-0.004604296305743508,0.011945350741145628,6.025904791260749e-05,3.27
0.08537779965935853,0.06140053816124185,9.798217185348218,0.015867516248266256,0.020138544977875213,-0.0013387448513780592,3.2800000000000002
-0.06055010734162273,-0.09080486334943041,9.77785084962125,-0.010825535369724729,-0.017188374349322254,0.008047021440466618,3.29
0.07482440544315376,0.01469844359254567,9.915875712448855,-0.0009149877487115192,-0.014967731598275691,-0.010072342474837013,3.3000000000000003
-0.013762172648287902,-0.0697920809847155,9.744678710503797,0.008636274529235715,0.016507992881601506,-0.00031851656392407126,3.31
0.022885853364050187,-0.07659922853009025,9.780678306826482,0.010339402099740538,-0.01566151873831041,-0.015248219384849696,3.3200000000000003
0.24439326010219237,0.015619717607543921,9.808544998347305,0.004454564691499953,0.010994376627649917,0.0009414485490168722,3.33
0.02868450207696792,0.16966725235545796,9.668144275635186,-0.02029019399042475,0.016381730824201978,0.002702353760829313,3.34
0.01687741324117523,0.056948681042703245,9.854468635302846,-0.006346081369261501,-0.013639409706964667,-0.003236938847873982,3.35
-0.08326237394390934,-0.07854139427246361,9.906214997581257,0.0031560258525053014,-0.00270888656009635,0.0017347775929903023,3.36
0.10436624438681559,0.11549487411524291,9.779740353766293,0.006358898184643328,-0.011602869743626811,-0.008546288650833653,3.37
0.04429573364178782,-0.2013907662572493,9.803548891629012,0.0014568402590338801,-0.011828529874916248,0.014063009020172497,3.38
0.053751551044949664,-0.12702691181296,9.86181560987248,-0.007730420365119933,0.0027923907970087065,0.0049309629391715345,3.39
-0.27516338011412805,0.01289394291837601,10.025972417418565,-0.006201014494927535,-0.004706729142077391,0.008672078286891531,3.4
-0.04616604377284473,0.01684018703111242,9.783728934029329,0.0056378760764439,0.014515546200971993,-0.008291299177286713,3.41
0.12380215006899596,0.059007669828664316,9.79680193328753,0.009150374749413541,-0.011783757331535511,-0.007025783076443436,3.42
-0.01879933366598749,0.03677555053403553,9.732583762144454,-0.004479953587242485,-0.0012206522550696317,0.008473435337681029,3.43
0.06589365815505636,-0.18525989116107439,9.824466333863223,-0.007232350003810881,0.010479352257997626,0.008065793658679887,3.44
0.021919352323182956,0.12013986674529105,9.865503726242403,0.003235441241117141,0.011090134355578684,-0.009732975012843934,3.45
0.05172899484233415,0.15131740523755474,9.703327996510945,0.01154915110159557,0.0013355799843873864,-0.003638473339339855,3.46
-0.1257970175886154,-0.005772934541946766,9.752311984107513,0.0027876165249218453,-0.0030610236402105234,0.008338316976115983,3.47
-0.010609365627245106,-0.022666300386188325,9.80899692067143,0.004134113207464827,0.009908382513574891,0.0038515105399280192,3.48
-0.1069282061037012,0.028874090256120023,9.775444696542401,0.001744613924620852,-0.005764690791786804,0.003659099171399762,3.49
-0.13664467583893614,-0.016066510816141546,10.078813636441243,-0.01829304997056388,0.016754488429637934,-0.004085734554254014,3.5
-0.044741591157931776,0.005414786130522744,9.821593547706744,-0.004662772253764383,0.0023183760452399026,0.006784257025476647,3.5100000000000002
0.022731367121793557,0.19173637948300307,9.786140530216956,-0.016848657854679407,-0.004830600562543515,-0.012902424178880385,3.52
-0.0893765127961972,0.050110650966270556,9.90100650085396,-0.007206480045102626,-0.018825902152452147,-0.005713283140642043,3.5300000000000002
-0.10885089141520528,-0.17067402819079697,9.652615202609285,0.0004691837567447905,0.009098438111748368,-0.0036939731631188345,3.54
-0.04435225892922072,0.0055785393044611555,9.557853370381899,-0.010515628451690701,-0.011093933527059075,-0.008030978124297575,3.5500000000000003
-0.0297662230626108,0.12337965033515448,9.902637597791058,-0.020889768319071234,0.007913946386352776,0.0003202758363640183,3.56
-0.14700250118645647,-0.11200780280215528,9.846723237663294,0.00312035942769063,-0.002705176181415953,0.012204774435375572,3.5700000000000003
0.017371996419806576,-0.1530156239404648,9.728396434449179,0.0197562114417351,-0.014259886484795046,-0.01239825741323017,3.58
-0.11843426324332276,0.05090084124672126,9.649085635283809,-0.007730236573265274,0.0030355871306387513,-0.00820843129002704,3.59
-0.13263871048375134,-0.11699253034096546,9.635803049082838,0.012271228656960212,0.005780317513522727,-0.022472876864884198,3.6
0.0028670022692071427,-0.16761414800239507,9.615371995754947,0.00021714557419180518,-0.004395056132284679,-0.015109722418598525,3.61
-0.08011017887428025,-0.10539107917411708,9.822291487064302,-0.0010046093358738637,-0.0002837783941240592,-0.014361447902120737,3.62
0.015081249234734573,0.08271324595849683,9.921401282771035,-0.004115316473003388,0.009791410786679269,-0.0008212655277847597,3.63
0.24565678860540008,0.15882372219151306,9.872032166170209,0.008845781745402116,0.0004690468609237801,-0.004800407143837338,3.64
0.03477079460719799,-0.06955034093065542,9.71002848206522,0.010054358439405909,-0.007480309891780032,0.015730604828861766,3.65
0.1416473464745277,0.07991879916044456,9.66856296718748,-0.0076344038058056155,-0.0017117070944155696,-0.009285970366541267,3.66
0.06332517820493143,-0.1710494215050269,9.576291245742436,-0.00490432143740989,0.010646224300394304,0.0060475636351406846,3.67
0.1072611978111348,0.17182966908763983,9.758033853610504,0.007346513692687691,0.0007734944611072077,0.016763009972871487,3.68
0.08434645166948795,-0.15019019660584373,9.804878747731324,-0.0018788562303567932,0.007302744492426061,0.0075519957375585695,3.69
0.011736824704454793,-0.07347112447720919,9.644316764670709,0.012021864406792293,0.010690111182948565,0.001088345992129254,3.7
-0.09638109635994296,-0.23312687023260753,9.886658413314828,0.008100193022241114,-0.007822959100598834,-0.0001564402220459361,3.71
0.02508986557001144,0.03843227777106485,9.770503076570266,0.001680236826337816,-0.01191032290463391,0.0008427410714293386,3.72
0.07765987733652387,-0.10908274682255237,9.800123740246597,0.005675931727542181,-0.010464634999524457,-0.00394803097780409,3.73
-0.12266032708891572,0.0037458807130864575,9.802934845081126,0.010106594154458269,0.0027451466941234514,-0.0013173366242710221,3.74
0.021082214357539698,0.011449013604417073,9.639049856032253,0.004832386754449471,-0.008727871039050834,0.024676758601738888,3.75
0.037393514775905745,0.09988943548381107,9.900676287996921,-0.003065167151821925,-0.004931489339988897,0.004243455483614184,3.7600000000000002
-0.10066325561474782,-0.15726492015488258,9.823590913986644,0.009774011408157725,-0.003970735769304751,0.0011221371686176724,3.77
-0.019073981037923033,0.07254644427607704,9.841329820199368,-0.01938032252710022,-0.00856673606065095,-0.0014727427990551606,3.7800000000000002
0.017157848910409525,0.21903920630767884,9.626699894981543,0.005035897894725305,0.009276364572059633,0.0014437039558866558,3.79
-0.02556835953780269,-0.025402048164992527,9.828708027317052,-0.006598700293222899,0.00038489087432567646,0.0034070945888207194,3.8000000000000003
-0.026789008004710787,0.11026170101039943,9.96910696490646,-0.008739035721771536,-0.003897040958966486,-0.007624210842055761,3.81
-0.07655401326446624,-0.13543052293189373,9.747173691870936,-0.0018295806873157795,0.01560354967755426,0.007069147089854178,3.8200000000000003
0.11023683518439714,-0.15725267876438645,9.603651200046151,-0.009939755919352948,0.01099719198623869,-0.006435457089615864,3.83
0.16487125852628276,0.107995140100124,9.81280138000605,-0.0016179743037104083,-0.007068528925606014,0.015460208773869987,3.84
-0.08808266538246082,-0.0017180728417396846,9.779093065943528,0.008783754655602856,0.004376870700240923,-0.0047459954009432806,3.85
0.05385410826212587,-0.11458040741457723,9.862804222803042,-0.003940665391045488,0.005142982576588374,-0.018230210602513394,3.86
-0.01827232458089384,0.030609816712272548,9.870724335001478,-0.0024825429875692264,0.003765713309124101,0.00652384578325253,3.87
-0.08633425210230888,0.14674161924344117,10.14988969726517,0.01197032291317963,0.0021090117218301343,0.006364131420593372,3.88
0.02457501663191799,0.016089283503372246,9.787367525760843,-0.0065994111216353644,-0.002830653994253734,0.004789058805822751,3.89
0.061753172377495474,-0.1833619177944754,9.796358286773852,-0.005118695960209196,0.017936742774212457,-0.001878640847690375,3.9
-0.09359114907914828,-0.09352118335914233,9.814746995678648,0.00602253588497641,0.009354889711892425,-0.007502460637870038,3.91
-0.07064499842914766,-0.04643902827537566,9.691018729141303,-0.009664866593546036,-0.0016270918155110701,0.0007198177836591333,3.92
-0.17169433595055208,-0.1316818938291531,9.827285030495979,0.010741686788139786,-0.005916736337880269,0.022617933103484575,3.93
-0.02326063657668338,-0.2596502703621981,9.897686966543688,0.00741894799734878,0.01159199089671999,-0.005090847861858118,3.94
-0.003184090037954577,0.08147039683313817,9.893647808189781,0.003434585877763032,0.0116585967816077,-0.0017559516265944167,3.95
-0.015499994293006279,0.05383928457078683,9.714231947002345,-0.01337838642236122,0.0036373859566734973,0.012475311425331424,3.96
-0.05210075984404462,-0.08456828121239322,10.02360611463612,-0.0017275621034506337,0.003699510228031416,-0.012098084218878667,3.97
0.0268255335095367,0.11241941480892895,9.871004082759328,-0.002028855496271621,0.013993575290238541,-0.002438092402799978,3.98
-0.007330548693219927,0.09044100027742355,9.836587002555028,0.0031623915248287834,0.007627329696845423,-0.006926302037802015,3.99
0.10623699979725812,0.04903496599121651,9.776418281021352,0.01514326193484356,-0.008810055381114066,-0.014407613806753263,4.0
-0.019281179544024706,0.18144167136058278,10.051545890466825,0.009692232606601823,-0.011631100729485658,0.009776423171964291,4.01
-0.20202108263131846,-0.24016883870962974,9.783993689982646,-0.0016204047942185566,-0.0027041890740723286,0.002723825643113133,4.0200000000000005
0.14824928723322423,0.01108511243293897,9.743950993356322,0.011165235093981618,0.013335733173073816,-0.010652698585999563,4.03
0.014370095130052255,-0.08297158057423648,9.821822458242695,0.002265487747285133,-0.012909399715100276,-0.0016898344381407174,4.04
0.013752383243612058,-0.14184320483349896,9.877332308980629,-0.0068043786114814165,-0.0005459129877214085,0.012074428226073837,4.05
0.010519394144868788,0.10110913112418139,9.59125403543667,0.010108797494866357,0.0009521903140429128,0.00941362966015956,4.0600000000000005
0.18829337362735132,-0.13315266970822487,9.85282416838184,-0.007644553404705652,0.009091756533278754,0.0028186288716897058,4.07
-0.004447613396808362,0.09079928595864378,9.88971324218185,0.013604061553363767,-0.016731412491706534,0.005594474940857487,4.08
-0.04904200109047305,0.10483677301332078,9.920014175816204,-0.0005287197915457162,0.008916065558896324,-0.007990754424527768,4.09
-0.20813281447518328,-0.06146934692582532,9.682662705773012,0.0005322462052787038,0.006733597066472077,-0.016763338158340434,4.1
-0.2821364402906041,-0.03179207855147469,9.868264899430299,0.0016624370308145281,0.012115587689504,-0.010675341521822135,4.11
0.060286878647267464,0.10533412464945231,9.744163030150043,0.004165873967271078,0.008431228311135438,0.0005728898528674231,4.12
-0.01625664463185907,0.07315190881346519,9.831110498839621,4.484351683329857e-05,0.008563618865884373,-0.003031111407058891,4.13
-0.035775079852597126,0.02732226224447265,9.703747825030758,0.023945372054348303,-0.0018492831664594384,-0.026775719407418373,4.14
-0.13396623399780036,0.15168495744259802,9.835383328007316,0.0060368283164026,0.007006856571775752,-0.004139261210191145,4.15
-0.08983233946333008,0.035913622331730836,9.818176681579738,0.0048257524214986155,-0.0118897912312343,-0.026975926398177693,4.16
0.009804210865630984,-0.19588048673425917,9.86312577796619,0.003970783124180343,0.01494735437867654,0.004221265007178769,4.17
-0.22535159055099127,0.08106633525429387,9.7689016596032,-4.379773391328681e-05,0.004307405567866699,0.0035418042847592153,4.18
0.04034252438841945,-0.13428097807030112,9.820118006691082,0.011997884195372439,-0.0012019807833842221,-0.0211259458672028,4.19
-0.022165479368385945,0.046495126366716516,9.861535427436069,0.006954841458149851,0.0010561447590577344,0.0009292991081708746,4.2
-0.035325096340912826,-0.028332950979800958,10.044577723200561,-0.008076208127235696,-0.0032795415291192345,0.005995381535392196,4.21
0.08005751432667783,-0.0775127799900638,9.89742125193639,-0.008696427746122969,0.0013804730616830295,-0.010875186189936492,4.22
0.17952667936068487,-0.07102904765526978,9.76880381872095,-0.0010578326235337271,0.0050814958806529534,-0.0005918100619668385,4.23
-0.03184262672766017,-0.027504063886021526,9.936758217137491,-0.007195381831773185,-0.001852298531985739,-0.008617797781031923,4.24
-0.02834490284992804,0.09692883844487829,9.856373427676937,0.012212530035415057,-0.01667874784297206,-0.0009377048761385029,4.25
0.1713778260376263,0.07069650784334115,9.849750680899007,-0.0026888535702710814,0.000976659369402333,-0.008736392573835563,4.26
0.04208468876150935,0.15762926852798056,9.820353308101907,0.015103712308411028,0.016006413010585724,-0.0034577415537439932,4.2700000000000005
0.16570238500483092,-0.06327183023881106,9.815826034661741,-0.01660475845278918,-0.0045909995836134745,-0.0009695888553143565,4.28
0.020152666122856305,-0.08676325620932304,9.716826008804833,-0.00025034141093340905,-0.0042548000542318035,0.015348638158339091,4.29
-0.06642364652049397,-0.030184792160302593,9.82386805616453,0.00117294353059859,-0.017961431554998405,-0.017725850928369216,4.3
-0.07943653909860975,-0.1551002210228695,9.926056635186766,0.0011860146046648258,0.002169771403476239,0.019762221033291796,4.3100000000000005
0.04503350891571456,0.0634712996495168,9.67427934452255,0.01704765433909204,-0.0006102356093097036,0.008109010134962884,4.32
-0.12497656746434223,-0.014214141163237416,9.676780166975062,0.0016031507631213402,-0.012445049194484503,0.003967625492229407,4.33
0.14526182776929458,-0.01592776886365565,9.654699150166083,0.014958693490679263,0.0019675691837914957,-0.0026419048992863676,4.34
0.05656386451388795,0.11089103734518951,9.8554128248308,-0.007489958333212199,-0.002274483441116666,-0.01669081851982233,4.3500000000000005
-0.06814802657548878,0.013803242983025621,9.663181925538865,-0.0015830435793668985,-0.003985836399854116,0.003583100475808511,4.36
-0.1323012866515436,0.0238000662497499,9.873454955280726,-0.0027445002398691527,-0.006854118223947884,-0.013124128795652688,4.37
0.07321830758364027,-0.162433139335744,9.725543494573895,-0.008472757377307157,0.008496825146560865,0.0167259719330797,4.38
-0.03041046145340184,-0.0435057799776475,9.752094475555673,0.0020452240409951183,-0.012247126186124937,-0.004046920835649352,4.39
0.12913665476584538,-0.06273286118938912,9.788420384046935,0.012733273081535393,-0.0017059078774408938,-0.006090615972779198,4.4
-0.05507891105022766,-0.0992257843986868,9.810229682122143,0.0031886892196500084,0.009414043644579033,-0.003952150675427832,4.41
0.20361018208261328,0.051818748771795514,9.704812549630086,-0.010287794410369809,0.0022997274557979386,-0.012887479119961617,4.42
-0.28393362941896844,-0.05321570330781226,9.697247500827341,0.004561635488501112,-0.006776727654731964,0.012339135801194848,4.43
-0.03677984359599503,-0.06435184690377699,9.949984420881304,0.013243757752331569,0.01563343289637303,-0.014060180097690268,4.44
-0.00721609272532489,0.10696417360626198,9.931553132356854,-0.007383062691538643,0.016227643486162492,-0.02272416930600653,4.45
-0.041998086512762586,0.19881120373592354,9.806966872883983,-0.011351513611725959,0.0036375985696626236,0.015757522451683183,4.46
0.01613670880627474,-0.15053340871950424,9.966268596626437,0.011670497014708864,-0.0007770881261803496,0.0024804575563965653,4.47
0.03403537427932834,-0.09700558100667955,9.935832140755059,0.002427660098298854,0.00047573110932537646,0.011415791965795905,4.48
-0.038817431619287565,-0.0029641847087428837,9.73552423262091,0.008594253442180419,0.01610574444175967,-0.01014951001941067,4.49
-0.03238214494504069,-0.021632940503846777,9.901921677624122,0.012552322242299218,-0.00307932771289107,0.009333311916215824,4.5
-0.035419396600690746,-0.04880227245368522,9.77954112560388,0.0017080915547965534,-0.015940938204488685,0.010351538205312068,4.51
0.06732352607616134,0.029254144117066144,9.896583261769436,0.020884706029505012,-0.004082250823128349,0.0003106452519181425,4.5200000000000005
0.06525161862250724,0.0008673132273232826,9.755352250490061,-0.004870064606532663,0.010218281500209194,0.00923962235528335,4.53
0.1307711561926824,0.020096242198990824,9.767359101915039,0.003647473300656975,0.003738358243214832,0.016967734237306194,4.54
0.057252948523325055,-0.11993903401613853,9.950775515819062,-0.00457069059855782,-0.01453376711864578,-0.01391130268285004,4.55
-0.06545324815027959,-0.06886197145649475,9.749904933017145,-0.006887877444529503,0.007072840088106542,-0.008502479460563615,4.5600000000000005
-0.1964758037673381,0.0539334917033092,9.69371963080138,-0.008222921262888094,-0.011998137134902016,-0.000764548193722452,4.57
0.03723065401221845,-0.15086627434243682,9.61796435035677,0.010606863547192567,-0.017706982010043667,-0.0031079820528608316,4.58
-0.025610226312849812,-0.1029322698464562,9.732617085156345,-0.011458238853696382,-0.0032933520877228284,-0.004127628812358339,4.59
0.028537542088496532,-0.0010315365963841415,9.961368553138895,-0.0015396922431159547,0.002018701214698516,-0.014620602510930693,4.6000000000000005
0.0001635338886601114,-0.005767653731240631,9.856226144137334,-0.005750076304795595,0.003803508462742208,0.004887288048144416,4.61
-0.03923059489103853,0.061325237946247516,9.794411245789876,0.0027018486408903076,-0.006546368714850763,-0.00027971072388152305,4.62
0.11178703083807043,0.017719408804535725,9.687421159079218,0.005090392563282419,0.0013093588215808399,0.01452173800491057,4.63
-0.06591062771568106,-0.11240643948708305,9.852101204224855,0.001373859241716792,0.0032875882905616465,0.0035541691670306153,4.64
0.013000505887196182,0.025158598956301438,9.927032573902947,-0.002959306871978433,0.004212338871713674,-0.016683577006733303,4.65
-0.07459432614868247,0.043441993247319635,9.873582262610826,0.00630813538927604,0.012639165710514762,-0.01711623537282247,4.66
-0.1940077951044564,-0.03128646754002436,9.835651481064872,0.002555779559701678,0.00567382616670845,0.010786293821439205,4.67
0.07827884715221585,-0.19779552516311485,9.714481605297886,-0.005439080586780842,-0.0170250827764532,0.005616981541818826,4.68
-0.028290058648165153,-0.005348864057809761,9.805497737996594,-0.002892554821569742,0.007640688266881448,-0.008868657703241013,4.69
-0.17827494864849575,-0.1264475494129838,9.832347167861458,0.00245453677723266,-0.011070239843187486,-0.003645119603445042,4.7
-0.10673756658302594,0.09616899438907538,9.754351811807805,-0.015485370866442319,-0.019935957535826884,-0.0018858606317309053,4.71
0.04739007775673039,-0.18795587195180216,9.828521644358624,0.008681186068714554,-0.0028555126318407084,-0.01626728485249646,4.72
-0.0031035204386734706,-0.05701769781677725,9.572105286779056,-0.005948986747977677,0.008053150097369656,0.013208735888315795,4.73
-0.24784025936224668,-0.026706302303013674,9.96737524913355,-0.0006024561643147545,-0.009345675495152653,0.008736884584103535,4.74
0.0888928745908219,0.07094263459305111,9.709094207644664,0.0016396499996545943,-0.00415057177536809,-0.010911558787988112,4.75
0.075641246448663,0.013346955672372297,9.934284055888165,0.0078113306877205324,-0.0007697727935283861,0.0018374030218295354,4.76
-0.0002297952677560129,0.050342911016767605,9.678944254302309,0.009746848646871245,-0.013423778167810397,0.0047167335634646585,4.7700000000000005
-0.03679013384972549,-0.10348322428532586,9.784793285047781,-0.0035047397691577485,-0.0009951492867590515,0.012231247427700851,4.78
-0.019688506532107047,-0.0064658373892685075,9.900746223192936,-0.009595026016259426,-0.00622026382914372,-0.002305941118465355,4.79
0.05035517362476105,0.13433124785012193,9.942850811351423,0.009623888171323347,0.004914270732830344,-0.0008837350433380746,4.8
-0.007728855474858911,-0.0814479896113254,9.742940067628972,0.0004629500493887925,0.007872077820218457,0.004053298772073837,4.8100000000000005
-0.06497327332847862,0.006214436036839494,9.939536553666033,0.011677489399826274,0.02334414789306814,-0.0133242092754997,4.82
-0.08814864173962371,-0.05393882260766635,9.687332825615663,0.008239328911094567,-0.004497852229211064,0.02175945007307852,4.83
-0.14321788237028144,-0.09851970494823942,9.757657651371634,-0.0007141815001201854,0.009532524511396943,0.0068550168309779,4.84
-0.11736002180714984,-0.06406322387418471,9.881840506060731,0.009447158690491914,0.011263786128421467,-0.006939088280071506,4.8500000000000005
0.006894109271527864,-0.03636458549941007,9.787336815377074,0.006794934731962922,-0.011939391393661292,-0.008421106572130474,4.86
-0.22160213133990211,0.049132063506968755,9.734264298050705,0.03235372821131834,-0.007533325914487855,-0.0014385299671662128,4.87
-0.006410449045694955,0.0445569316845362,9.928303794223776,-0.010612560079676061,-0.011343959816306079,-0.005023387623551636,4.88
-0.01838932613053026,0.09832219597712222,9.771261244381432,-0.010198976601735063,0.0071636250549469375,-0.007394370238353702,4.89
-0.14216565343420295,0.11769909475421508,9.858406162773235,0.013827763089315423,0.00039531685889140813,-0.0010134306686006421,4.9
-0.015471160462271621,0.1376334251628263,9.764040710805537,0.006308736200963592,-0.005436442528094511,-0.003476727790658522,4.91
-0.15954848778413047,-0.19511444212503015,9.925347295369736,0.016917251472837572,-0.005727021067282909,0.0036384519305632627,4.92
0.006481610861627005,0.22410909362843423,9.918168029224946,-0.003342434011503715,0.012731044242504725,0.004326434819208911,4.93
0.09365443229781382,0.16942889150729898,9.839634527344733,0.0008344881927266325,0.010925286342767149,0.009452388309251079,4.94
0.015837650867321095,0.14791402635987505,9.82929368187728,-0.006226874984002581,-0.001263938435724504,-0.010097581246483793,4.95
-0.02607947928762095,0.19357539788225475,9.710358128979003,0.005770525435506657,0.009034806661965891,0.008953513462254613,4.96
-0.03055112574084361,-0.08773149406396678,9.764529680631865,-0.004123911003448274,0.0049704803129701864,0.015045778113855742,4.97
-0.12488174388908445,0.059677882349767924,9.73437342495864,0.003973188704899195,-0.0030138548346529555,-0.00945858206750142,4.98
0.008921829292387636,0.006510395811978021,9.75380901366276,0.004038079413966413,0.020117034364462424,-0.005901353781186971,4.99
-0.08448201952004991,-0.03866941693935738,9.825902323917692,-0.013272172341552146,0.005640940853081361,-0.007270133058909369,5.0
-0.04491911279778505,-0.06294910070684982,9.83263196480469,-0.000551356162783525,-0.0024179067163487547,0.010887338288329676,5.01
-0.019930880592130773,0.040409883097400304,9.640599215788598,0.002382570428270805,-0.02489787338025037,-0.0037657088301707624,5.0200000000000005
0.018911029089042578,-0.13351775467840762,9.565115227622009,-0.016049170834488122,0.0021120614457117073,-0.0029394230987012967,5.03
-0.09272348543229039,0.019916369357168607,9.934993296940661,0.0039022256976113064,0.004057012004758606,0.009351501676539902,5.04
0.14938742447439166,7.897920837469113e-06,9.866710379259555,-0.003608449628383827,-0.001742983229012835,0.010429825409180367,5.05
0.035003317868079746,0.018442565510294277,9.900149767919473,0.010406826097476682,-0.009686862133430658,0.015645693556355394,5.0600000000000005
-0.004039885181012029,0.001637693263594121,9.852743701644716,-0.010545752882367783,0.0007743274873293176,-0.0023190396588850777,5.07
0.05573492467150472,-0.1427522795868474,9.837859738034444,0.003853493115198611,-0.005004973868785059,0.00031614310005003847,5.08
0.032187730367461066,-0.04403360480687634,9.743608274962545,0.00887118503876908,0.007821714857549627,-0.004355470403930483,5.09
0.014562082340040056,0.24368005253137942,9.836138749058575,0.0153758054977805,-0.026797271001804495,0.010281062873431548,5.1000000000000005
-0.0475630946735171,0.015840636842276764,9.849834397102011,0.004926042014477931,0.0019228485511421155,0.00029908383444302207,5.11
0.1503768809023976,0.08825392201846813,9.663939543698687,-0.012828542130843923,-0.013545553092141501,0.0015194654098613233,5.12
-0.08241122313649878,0.10813127143762787,9.800873415853925,-0.011329115180870633,0.0009933858091551115,0.007675396010102975,5.13
-0.0025316356873184205,0.09259054739961445,9.776252150755216,0.001231054905703671,0.015362811924617206,-0.013850417236040776,5.14
-0.0719369010633706,0.18688122351087716,9.678221640379943,0.007046469868935442,0.008412594706154963,-0.013098192187166374,5.15
0.060485640279847167,0.03291875563640884,9.66135965677867,0.00341629087614561,-0.007997390898755471,0.014526766227455528,5.16
-0.19159204852363548,0.07217950486453409,9.71772074389869,-0.0034067119035617642,0.0011992992021303962,0.013603413754358019,5.17
-0.016982485948089262,0.21860411252791734,9.707250024606473,-0.025108614911584188,-0.004970242962542314,-0.00748548854093118,5.18
-0.03562127159070368,-0.02688129953946332,9.785959696708938,-0.0019007314315334723,0.010609319707386352,0.007649460989534241,5.19
-0.11094705397417769,-0.17353135671191816,9.749328701242181,0.011864449664673227,0.002380954209674303,0.008624995740765844,5.2
0.03918369654262217,0.02447149768903059,9.833103962966815,-0.0019133483521464982,-0.003925256144714308,0.008035511153514164,5.21
0.02999454564703079,-0.16116317291123777,9.860371225367256,-0.0029727568605172065,0.0010594186697415289,-0.006109103285558831,5.22
0.13568504739151957,0.020400036831414798,9.799312178085685,-0.013125479636231601,0.012433591275461443,0.0005564972848661523,5.23
-0.012378435398354998,-0.16340831667403385,9.974523667209116,-0.011387057299358357,-0.0030794749863646636,0.0017496258707663586,5.24
0.1024968815919009,-0.09001705361812666,9.719128790206412,-0.002771284558362903,-0.008342029010638876,0.032231400936851104,5.25
-0.09836163665882834,-0.12119246432290315,9.657003560462174,-0.00029545192142865393,0.0014820261179149794,-0.00645586626387281,5.26
0.008915345950781032,-0.034235162496461385,9.854261115149084,-0.003441063434788888,0.00705585652177331,-0.0026973565752745833,5.2700000000000005
0.08398751392051741,0.033128671949432496,9.895072663403194,0.0031041136533097803,-0.03342628038379277,-0.008618940054311228,5.28
-0.23607391525490262,-0.08946952614085973,9.67747727526638,-0.011499299970038186,0.005106791220414594,-0.013229771259702008,5.29
-0.01846521113097067,0.13561796192058514,9.69528202896397,0.026572002826415315,0.016238666970781985,-0.0011214287424212738,5.3
-0.13514833182494093,-0.16599487965192258,9.867378803695402,0.001835082942323446,0.008221148629024374,-0.0023574862436700696,5.3100000000000005
-0.09513007463421215,0.03720638941831298,9.835872322782144,0.025283845885800363,-5.013344735618035e-05,-0.014195376590238853,5.32
-0.15706724741656533,-0.11142210244981453,9.807830076613179,0.008335782596148597,0.004742864119335136,-0.00021644665944100998,5.33
0.011642203510543328,-0.080822002497134,9.816672500921873,0.01387499824683265,-0.003120508263466072,-0.015532607739850997,5.34
-0.23532857677644406,0.07109475306761141,9.719945339319867,-0.0022829715644106076,0.004116972919418136,0.008730538454790616,5.3500000000000005
-0.020925454288923118,-0.13611981266133055,9.813966838330336,-0.00399062944797237,-0.00622274461598227,0.013691296216172124,5.36
0.08477404997757503,-0.0242327931342163,9.867753641581753,-0.0016054043607873914,-0.012536606721140296,-0.01918102299829275,5.37
-0.0354157040771267,-0.07019824415762081,9.882076776535326,-0.0032639156450087405,-0.015536913675257025,0.002532507504922119,5.38
-0.08752992522021726,0.1288433237021294,9.802247242016232,-0.013773440854543928,0.003832531060084007,0.007694402905382243,5.39
-0.030111622721060622,-0.044108513342193297,9.704555861157875,-0.0030723202252697546,0.0036542742092392972,-0.0074614570301499185,5.4
-0.032018026248233904,-0.08144177422056934,9.916068733914418,0.0020030968969173345,0.01981808631524827,-0.006885354308950955,5.41
-0.08500610326445629,0.07409763430107444,9.676380073357786,0.00230758374269491,0.003677953070524718,-0.0018279478548202403,5.42
-0.04736017286995266,0.022426890960827072,9.73221482635816,0.011484675019920993,-0.0024613686340714262,-0.007593170462189486,5.43
-0.00730561743115005,0.05387862133739094,9.931320940971574,-0.002983829458278264,-0.0015467638159215077,-0.003719459924785661,5.44
0.024639959057337006,0.12917731783208483,9.63264269874791,-0.002482790767683432,-0.008266032999824254,0.006300592228111607,5.45
-0.08214299683912743,0.11039070774406404,9.949063055737435,-0.005810944924223326,0.0003835329089196353,-0.004088741023961314,5.46
-0.06907296443928311,-0.11528788251072625,9.896111742933371,-0.013875694439896183,0.01607657142236803,-0.001542230127236987,5.47
-0.03662399334866154,0.03234912469696904,9.69376848788745,-0.0023101620248600564,0.003439450798846249,0.003215674674547222,5.48
-0.16491925593702259,-0.10301817087815937,9.70636464086296,-0.018581624822425022,0.002161569838769901,0.013419425662544867,5.49
0.0011649889634072154,0.17740043235183933,9.746282636802654,0.01401001067601887,0.010884236989923968,-0.028666769206396228,5.5
-0.044018995593045195,-0.17502790531167714,9.761789339520593,0.0029270495528833525,-0.0012789100476914464,0.005339079186024539,5.51
0.033743935788925324,-0.14969870561350182,9.899662867522332,-0.010887696443355329,0.0029956054518673063,-0.013937228807728906,5.5200000000000005
0.0051689936859877885,0.07711523661803064,9.980837957881985,0.013387642198531152,-0.012454174428120798,0.002539785649769431,5.53
-0.11579811744671975,0.05486469807797864,9.905451467548396,0.013077676003189044,0.002931880135870459,-0.016167857289626136,5.54
-0.04848246533248813,-0.027458402350771346,9.816683075210618,0.007416468180641329,0.017148494161618195,0.008955379403681678,5.55
-0.06635113524119199,-0.1055496390554167,9.866369457842115,0.03305914821698212,0.01108967997808637,-0.023846829307925636,5.5600000000000005
-0.12733302297538684,0.07814101697611468,9.968130096218237,0.010077699511892444,-0.014593179912958627,-0.004038260001866453,5.57
-0.036216875420342694,-0.03226463599517673,9.756126969884551,0.009781440063365348,-4.2032694011747126e-05,-0.013977628959006727,5.58
-0.056280982701488985,0.08316657913465939,9.815269555988321,-0.005957365776002216,-0.0017360636608812396,-0.013973615878242352,5.59
0.04381489506377044,-0.12840481589300282,9.839561682483433,0.02065788869223311,-0.011514879794025441,0.006584686303522543,5.6000000000000005
0.17450517302731927,0.05975775841166116,9.868378956505056,0.005891355671815102,-0.02012200980407614,0.02444874064792608,5.61
0.018278785393141816,0.20627098733831695,9.937572741036128,0.014794731805709914,-0.0030079942845788517,-0.009429838051204883,5.62
0.07146705259965905,-0.09539179550989361,9.822402726472173,0.0063432491086742706,0.005947716815227824,0.0004945656299303292,5.63
-0.06922846926013985,0.023495249462463993,9.826600954369905,0.000899960321228424,-0.006739532058910857,0.008097163553423176,5.64
-0.11778927134295927,0.24445752941236099,9.799151383043434,-0.00158806990399482,-0.0005710865764644562,0.010416538699786282,5.65
0.001820389609293326,0.06526939355826913,9.815012423863307,0.003308966083932729,-0.003487309863619664,0.00962690414271992,5.66
0.04098157944177418,0.204022758024058,9.91633526507463,-0.002264858288831189,0.0007970439653392414,0.011516905789555784,5.67
-0.07740428361277335,-0.007205507398952076,9.800622708671375,-0.014989325947033073,0.004647900616495897,0.004853838027850142,5.68
0.029608978598480037,0.12601307820158533,9.773358850900049,0.0077149430444995535,-0.0018744404368888962,0.004789300655633685,5.69
0.03364272185176192,-0.2529042936055909,9.75046189540809,0.0014464720994659148,0.009056836027623815,0.0020238488947735014,5.7
0.07173294165242355,-0.03037702315377157,9.914212071948421,0.009403782956929337,0.006781694201064365,0.01582484306551932,5.71
-0.026028489716489297,-0.1600097230134448,9.938310221991415,0.01166548402676442,0.0033773345725456073,0.0008318786736466722,5.72
-0.22765657116572602,0.0614037403799275,9.703688701857896,-0.014431156649028226,-0.015503728558730397,-0.0060309143199857255,5.73
-0.01979802511460363,-0.006801046838463447,9.893603749106871,-0.010371730632143387,0.0027903705298614797,0.0045153132937337925,5.74
-0.017491513061752003,0.09520904050138035,9.790657432553663,0.011307726131498271,0.008021390498914129,0.02436728714390386,5.75
0.031957702371027706,0.12018257462736615,9.829293534567077,0.011280323894343355,-0.029760781724775358,-0.012230971870157181,5.76
-0.046003931643289496,0.13470978889480145,9.935539524617152,0.011050803097111497,0.0019943487079591015,-0.008991916309837878,5.7700000000000005
-0.020589845221541468,-0.021547934259055466,9.64172336607206,-0.008552983419560924,0.0034488982265874976,-0.0032610012049405913,5.78
-0.0005769363634904589,-0.0613908951412406,9.853629109167864,0.031550739429155344,0.0006911225479396032,0.00960213281093081,5.79
0.05791437962524559,0.031716857065259084,9.923198947420106,0.0010717190495853545,0.005324972637217778,0.024545642747222304,5.8
0.22839141510872318,0.0746478599893653,9.902322415357032,0.011122896751390247,0.0030684157211649022,-0.002366255030165098,5.8100000000000005
0.18888682414880342,-0.05701193835395514,9.78284210719905,-0.0005245977193029527,0.004119478944541382,-0.005566517093403119,5.82
0.06925500968661816,-0.04013174722394953,9.838686557698376,0.0036240443203906687,-0.0038192840291417663,0.006275402398834213,5.83
-0.11525459191947185,-0.11534792908865173,9.716273273939212,0.007471028280370222,0.005762340687059235,0.0007131445757462833,5.84
-0.14069721539069727,-0.09837225879584538,9.766724166158731,0.009834831008464278,-0.01533896971449969,-0.0028506422674415776,5.8500000000000005
0.009434369098321444,0.10015861287615076,9.639408391106766,-0.004481729312224663,-0.002428846597449532,-0.007739017952924181,5.86
-0.11939073857404302,-0.024199722318518517,9.757678775715688,0.00015265033710152922,0.010855106777593184,-0.0008974509005533392,5.87
0.05174512549680708,0.06342876019283566,9.757016269527496,-0.0015925025045342156,0.0009310281662711088,-0.010944894796358857,5.88
0.04601207031169677,-0.01788149095277913,9.804482603677819,-0.002560356852026945,-0.005295762655409437,0.007620042627607322,5.89
0.09851155757353788,0.07320416345392126,9.806585875435136,-0.014077942662149286,0.004277401995659693,0.00452794219107489,5.9
-0.15837195627831172,-0.09078699192361789,9.844543777033515,0.007234222615403481,0.007039034092860421,-0.0046072553481008435,5.91
0.029049544900184396,-0.01855999433317993,9.709774056717857,0.0022353568376025485,-0.002997369624847693,0.0030724399948465547,5.92
0.02382503983443836,0.01271383441160377,9.662591726385214,-0.006679587578920177,0.004603541543905907,0.0033554521326453132,5.93
0.03295346711113306,0.07935238271873694,9.932043299701222,0.011416966230384136,-0.0068199772449254485,0.00929425716433785,5.94
-0.0792164630785969,-0.20720663819796578,9.824889950260287,-0.0008960766919777595,-0.011413441707557202,0.007997497533116973,5.95
-0.13492135072339803,-0.17425947686417917,9.815568645073675,-0.007511422398660471,0.016085977291773666,0.0071866277353566915,5.96
-0.03600237807377407,-0.12722411407193185,9.857345495774153,0.00724003793470988,-0.005727621619378277,-0.016620012956298173,5.97
-0.05784956222116791,-0.05740973521150266,9.819108817521936,-0.005565670832838193,-0.005880334850694038,0.009811802021707998,5.98
0.10645259293281602,-0.10000864901802374,9.781609067083682,0.0040099987203183664,0.009395394580325648,0.005197318012818203,5.99
0.001596757180824969,-0.08940231475673496,9.772552716507438,-0.010337759701579215,0.0032639712321092876,0.008638493542932914,6.0
0.08471056294731287,-0.02398607989384695,9.885833462890831,0.0003867055175968986,0.007646765722653266,-0.006611361336715232,6.01
0.011504507890830382,-0.08472338250267264,9.799771107359291,0.00033035353666788843,0.001439293315601534,0.007854145088324924,6.0200000000000005
0.09822650364894968,-0.07643466667043547,9.692646567327376,0.004155741687711123,0.003996419108380418,0.006366885615675674,6.03
0.08987776658275295,0.06266792773261741,9.79744719714747,-0.011091813239587337,0.019343913752629543,-0.014722186757381716,6.04
-0.11623740510110075,-0.11780918740348212,9.645221960479025,0.009603131603861786,0.008733196097939985,0.013282322638014437,6.05
0.037471638727681104,0.06718416144520833,9.670164853210833,0.009207537662683375,0.0014269243205259686,0.013213281734649631,6.0600000000000005
-0.18223477049884337,0.07526760244757773,9.774755466202675,0.00903411871898197,0.019868465923674025,0.017116991363810598,6.07
0.15766724048540243,-0.034463420940791065,9.853259669784144,0.008775615243667744,-0.016912658797196632,-0.004934071657164055,6.08
0.09971321747848613,-0.10115465671608022,9.88817592511545,0.0004345627664414105,0.0025781026455509214,-0.010201400836358192,6.09
-0.14008548577811528,-0.10549455138327386,10.007610427367041,0.02051316184834287,0.009893135076276855,-0.0030268868006247895,6.1000000000000005
-0.0345761373664066,0.029378956637081035,9.774337993250665,-0.008234450036418465,-0.020261180081582664,0.010946683024498305,6.11
0.07503892863633888,-0.06595690696828727,9.802616948399335,-0.00043475809174376876,-0.0047579486523333684,-0.003989450780145749,6.12
-0.016613374680870815,0.015038832572141773,9.975212924998727,-0.004139394476379618,-0.017038615588643887,0.013478163078491983,6.13
-0.15392189517105256,-0.12402043787295663,10.016711029139712,0.0044209014143919865,0.0013906345652470703,0.0026198320639289016,6.140000000000001
-0.06341877538213762,0.015397414356069916,9.849496635074052,0.007333602319451984,-0.01227383864974185,0.0023482161484686664,6.15
-0.07844741557141476,-0.10661999546885802,9.918509050454949,0.013998803945210428,-0.002111396464520255,0.00545946966448015,6.16
-0.02462076416342266,0.13158534067344937,9.688508302652934,-0.003372837321128145,0.0034423393790253953,-0.03204062459788796,6.17
-0.22439408399928018,0.03097215056284748,9.798906360886567,-0.0033884148497789483,0.0061696208532407825,-0.0048397991723882925,6.18
-0.020327528022849137,-0.1629607907379619,9.702594216148384,-0.0023022170347700398,-0.0023016964949056492,0.02098194482309661,6.19
0.11336628803084857,-0.12141639721474254,9.854876793368696,-0.004610713702082297,0.0006432273353477502,-0.01993426095530504,6.2
-0.02637618101047457,-0.19412539356992128,9.918604322506496,-0.004222619256425644,0.0033925382426275236,0.006639747355262935,6.21
0.15485136126252325,0.10975110276620058,9.757619740117505,0.00505391191379994,-0.0002394113174943366,0.0025216095059121934,6.22
-0.030905513181201234,-0.09401332261959937,9.829737876931642,0.01698701102925758,0.007615636808500584,0.00045335314454907424,6.23
-0.07510957394725881,0.1670637724423487,9.75587457826456,-0.020267857707733285,-0.008119377843971895,-0.000965919283400159,6.24
0.12614653816305196,0.10833297884248279,10.03038920197153,-0.00632151421993245,0.0056664995654646146,-0.001095995089660381,6.25
-0.09797328814985597,-0.030413586827245893,9.810094945176179,-0.0076097348111839385,0.02055069042362014,-0.02207151626484072,6.26
-0.06041778739142476,0.014479512476725756,9.951500094324766,2.516429639452213e-05,-0.0005414619732155006,0.0021673750164431043,6.2700000000000005
-0.06002833079714198,-0.08869968333565827,9.82754674674748,0.0010814504364070696,0.0016020980623107051,0.00964738913332946,6.28
0.22331246728088258,-0.1387103437911075,9.835304363512835,-0.003513658681330166,-0.0017555202761461318,0.0005219160209433182,6.29
-0.011184626230387051,0.013763726287205484,9.88465213123186,-0.00020653430968234777,-0.018694140602544294,-0.005353594242451487,6.3
-0.02723195974267615,0.011761285468011059,9.713865207301573,0.006921691943675015,-0.0045150614210022364,-0.013301142711799033,6.3100000000000005
0.17489324803677886,-0.0013312005918748133,9.615115359747014,0.0008587369617076076,0.003312183219053474,-0.02194854859033105,6.32
-0.09715810922945299,0.011694966526967894,9.803337500543261,-0.0036826846739195147,0.018515247941957108,-0.011750187600935396,6.33
-0.08498032764103794,-0.07522747479717456,9.835083250892415,0.0007598732175560437,0.0018076787588843651,-0.005025781437346741,6.34
-0.04281614515589016,0.12736250058955523,9.84201624922535,-0.004236976104561401,-0.00031478657641189007,0.006683104557371557,6.3500000000000005
-0.14652733074113825,0.1774397374760712,9.817811236347092,-0.02025549718618892,0.01029357917729266,-0.00011363134079298211,6.36
0.2555709363980979,-0.030937650612760038,9.857181652494202,-0.009017639962759927,-0.001526507707164032,-0.002764358160071544,6.37
0.15128225383432756,-0.052862380658506396,9.795406645481986,0.0007419244433781247,-0.0026018494079379346,0.006176254164698104,6.38
0.015405971372729824,0.01710614879464135,9.902200236630629,-0.006340830465659468,0.0036126780677394645,-0.0018011953736005867,6.390000000000001
0.1374190011601681,0.1559641711347793,9.774641574086397,-0.01501582663042698,-0.011358328765440741,-0.001446225995921094,6.4
0.02213809549947153,-0.18129729364036049,9.749676770480658,-0.002560840281481593,-0.011445055111520542,0.007788111677134512,6.41
0.017952402526148815,0.06315386798264272,9.78560691682816,0.0038359281182364477,0.0075738449487494424,0.003977094674687666,6.42
-0.01438261767640835,-0.06021855657387365,9.816123707082705,0.003577832961926496,-0.004617430745803417,-0.004707975817755476,6.43
0.002416801222348979,-0.06487979443963308,9.745226951007098,0.009247018937466355,0.022527555889056194,-0.017205909168465282,6.44
0.0685686546849713,-0.09394985798002187,9.751389666982057,0.0041259039791614865,-0.004246962006481709,0.017228453468411797,6.45
0.022683953152885225,0.09175673462535124,9.789979419691944,-0.004083246692822398,0.014732059559215383,0.000796384775355683,6.46
-0.10630880825995968,-0.05889274054943036,9.797726904247698,0.0192879543018558,0.0011833656234557473,-0.017148139078738037,6.47
0.049564979736101605,-0.07203381909708267,9.92780566087353,-0.006623357394572369,0.022172191839580458,0.02911381576883956,6.48
-0.09820625715836695,-0.044345217002320726,9.857513070485645,-0.0010551300676103666,-0.005917129704428902,0.015886602002870485,6.49
0.018325888727180318,-0.23238988636788127,9.680536770130244,-0.008607848503418199,-5.283596345781492e-05,-0.003316235249909847,6.5
-0.13804081867260462,0.10323767926472496,9.886768811625789,-0.01985406163121886,-0.024805039622127115,-0.0063900255554085305,6.51
0.023368463348670206,-0.14835719849031764,9.95611822696832,0.005788029750287486,-0.0023013672445637984,-0.004477781017031439,6.5200000000000005
-0.106684549504641,0.009709654248098746,9.95059416939319,-0.01142887886341391,0.015879190289246895,-0.006274175546057553,6.53
0.026719929657489396,0.013664673141442808,9.944636214016247,0.006374530656919865,0.011429890489151547,0.013505563771315903,6.54
-0.02318556745161803,-0.08716966013829235,9.757736384653603,-0.005699931624594257,0.0037044859689553335,-0.011860676776887515,6.55
-0.08559123628977527,0.11236897277239558,9.89453477342959,0.00041191556603751347,-0.008045507171404863,0.00876914961514718,6.5600000000000005
-0.14374089935481488,-0.172026015851803,9.767123206893125,-0.0038467924971704245,-0.015550882536069831,-0.0016235971494561617,6.57
-0.10709114619639747,-0.03272696389578379,9.850479061166025,-0.006950474712337497,0.0060567548173388885,0.003501651590647028,6.58
0.1583793660770761,0.16014581495659475,9.781514577863643,0.016221054705136677,0.003675067766599022,-0.0009159820967593015,6.59
-0.0008324391156131419,0.12212725627838734,9.814377077657115,0.009337109693378327,-0.001381860440540993,0.01744207558602379,6.6000000000000005
-0.004076654423805212,-0.13403785360878553,9.918723383586201,0.007190849485699062,0.0071973637362003785,-0.004398596345382402,6.61
-0.0612244967612236,-0.019538884413040414,9.926891511577518,-0.001302373639285639,0.006647387397415711,0.0003850804263483356,6.62
0.255323777632391,0.0641635496908619,9.853594521556788,-0.001211912582341888,0.014823717492196077,-0.0024743078932391144,6.63
-0.08270878461193937,0.12559945438634904,9.82335963246048,0.009672012567277361,0.009460004762577438,-0.0005475361093646597,6.640000000000001
-0.09003036899808599,-0.05427761423597893,9.81054846255829,0.008970158526170705,0.010349024559673157,-0.0021272177147489296,6.65
0.19031122669431605,-0.04285074210659132,9.904327660359307,-0.009539370779275578,-0.0016027241638180716,0.005215189138750261,6.66
-0.0472501985318991,-0.004998516485216145,9.801682382612704,0.002878923682618051,-0.008192247688899605,-0.012061946543236966,6.67
-0.04658375268940367,0.24306035411486673,9.78786661263658,0.004262125694403722,0.0013978898806042413,-0.0007145247329439833,6.68
0.0027997950362494777,0.14406010554323914,9.730307267625259,0.0019260191149771102,-0.009559556916665976,-0.008940347619099034,6.69
0.09333562325633471,0.00883465631719146,9.820468267785552,0.0014787365197273228,0.004047868455214213,-0.008989797513020318,6.7
0.03863876442882635,0.13179623274114854,9.827071716036118,-0.021817763478939593,0.018589271468790258,-0.011491538647657675,6.71
-0.0631876118188525,-0.05169582044263582,9.831977551938008,0.0126382772240998,-0.005258457961205717,-0.01798948104917219,6.72
0.05205625711049913,-0.0318793987492764,9.686525788534679,-0.00559001281936372,-0.005123697666831924,-0.015496448537262762,6.73
-0.06618383114461511,-0.07786440993117703,9.626543745695303,-0.002592716141949092,-0.01420549247952366,0.009068322784014158,6.74
0.09875440662362482,0.0373581494037982,9.79238738525565,-0.012150830812134101,0.018737527967600313,0.004296170307356988,6.75
-0.06940334207275939,-0.014166534979251511,9.824247615450863,-0.009294857319360025,0.014165078692637558,0.011442142394159168,6.76
0.034906889275993315,-0.10474631732453162,9.662009912164509,0.00808425519298071,-0.011313802149145815,-0.0027232993062139238,6.7700000000000005
0.07042163704269817,0.054029184560611544,9.585064070276145,0.008333203955282167,-0.003594426833206284,-0.0038163201635611054,6.78
0.08299620979700761,0.07993397037934476,9.760987520700288,0.010755857823191944,-0.013697996883719945,-0.023181998037488324,6.79
-0.13219831256759892,-0.0769666120767314,9.780931243454175,0.006159501979072644,0.002041123812885348,0.004264504181636763,6.8
0.14311437920399003,-0.010212128727283302,9.88010827550452,-0.014339968648075675,-0.009238091410378424,0.0017330561432731249,6.8100000000000005
0.0014223013803942386,-0.08213428839043341,9.698893655753063,0.00741031124811021,0.0036425712547304414,0.0023073219597041987,6.82
0.0026944545607763075,0.12091673887050194,9.800646900865358,-0.0040187357114825715,-0.006464681434880857,0.012011270384875608,6.83
0.03133067424870772,-0.09794609580956476,9.978893420460533,-0.010964810728389012,0.005459243448386732,-0.008035100328909422,6.84
-0.050837896083329184,-0.03171152211042046,9.792349786345891,-0.0030088290175917126,-0.012762549322235315,-0.01061686992120136,6.8500000000000005
-0.026378707630971845,-0.008690488057726741,9.919441587160119,-0.011926435103380316,0.004669183687380654,-0.018529081960282058,6.86
0.10060316190058101,0.11452020359706197,9.837380459026923,0.006203131017135598,-0.003038541648603963,-0.019223269203474794,6.87
0.032952903637208326,-0.15838344831169102,9.698636209870143,-0.009118491333555426,0.011650312636278103,-0.008358990316905197,6.88
-0.1058678355438743,0.050362434629404144,9.785513084691557,-0.0038539004241856453,0.013271965293544009,-0.0062279184524882914,6.890000000000001
0.031257601933951586,-0.11670986000838644,9.805187750124315,-0.0003369995139070306,-0.0016294920248362192,0.004655597253055529,6.9
-0.008835496034574954,-0.030683253650802003,9.963384684289746,-0.0024554613293902056,-0.010013132261681788,0.012425925941379062,6.91
-4.124572344174602e-05,-0.09085811424132878,9.795996274909493,0.006337374362223166,-0.006353349448566345,0.006023811638644976,6.92
-0.007003057574457869,0.17886436244031859,9.83927905718823,-0.013321754429790696,-0.00984644168210392,0.00401239938162566,6.93
0.057594625348620754,-0.013319881793527841,9.766494681386243,0.01580674874963401,0.012227275998391313,0.015741185595621068,6.94
-0.005357379970411047,-0.07715668890051758,9.712118656094354,0.011362589766620057,-0.004011628136282796,0.0017339986082741113,6.95
-0.059439373054091464,-0.00020271058642587194,9.734963347129527,0.0024044794704585217,0.00819958826526217,-0.00030467848217221124,6.96
-0.10276571524727118,0.09386319680607941,9.80623136125897,-0.009400390231114749,0.0074890749005317135,-0.003797607161299233,6.97
-0.04272229514377239,0.17392312381622116,9.984496660130521,-0.011193592196124152,-0.018976074716472054,0.005502525445656516,6.98
-0.05720309908686673,-0.03572915362907309,9.918654025334515,0.0010011174507491341,-0.0047073406761907015,-0.0021587522793695964,6.99
0.03690494176642357,-0.08987724215379682,9.73653816696211,-0.002012071093262902,-0.009691914521858866,0.007118610427852496,7.0
-0.15573409829296458,0.1646046262205244,9.782711557527369,0.0008848121343775919,-0.019042838488799407,-0.006296710426215071,7.01
0.2835906324775235,0.12467639323810581,9.895038777105583,0.00020765255334872284,-0.012185589717438265,-0.0216550338642769,7.0200000000000005
-0.03997253087505021,0.0035214742302115453,9.602489177822621,0.00554211318085337,-0.007344683126559106,-0.003935152049768288,7.03
0.026465594138894086,-0.070498328847698,9.73568840145116,-0.010570970346827292,-0.016748957491328022,-0.01439711702933309,7.04
0.05260903575723888,-0.05259416208094082,9.847519515360336,0.0012185098801123777,0.013710999577691846,6.478361474632233e-05,7.05
-0.041408659157697904,0.0003552679171712366,9.861323858570113,0.0028059159232409663,-0.0005042143097639361,0.009328444293651041,7.0600000000000005
0.0004695301491689429,0.00024122182123243287,9.827004397218182,-0.0008799536923435987,0.010861217022279643,0.0017241675247958099,7.07
0.07513671780946615,0.06633270159498804,9.839376925877502,0.014652070630170398,-0.001568311200641819,0.006647879540916453,7.08
0.13733980144866478,0.14264588507288428,9.818862215709553,-0.00631670371754289,-0.0015586583173807433,-0.020626509640225183,7.09
-0.012458358811947541,-0.13463754536127373,9.969543093832355,0.006909943128662055,-0.004712287547575455,0.011441158112348384,7.1000000000000005
0.06091910928044291,-0.029966322489843246,9.933017908138988,-0.003374172462528096,-0.010322382338203604,0.0071499399013680385,7.11
-0.07857075160958456,-0.060572750756646414,9.65980516123839,-0.005280460723262245,0.007400939582523709,-0.0010801781983360503,7.12
-0.06473547203139197,0.04163239475419289,9.87024273364127,0.0017321977372077397,-0.00862116239892827,-0.006640741878016859,7.13
0.12097616236916718,0.02394113593326728,9.803557089510756,0.005201364732476107,-0.005367958023401322,-0.000804615257559116,7.140000000000001
-0.0723015685594719,-0.031016438029703566,9.70944437434085,0.01719247336235549,-0.014170791292425194,0.013532029414936553,7.15
0.1249862517647675,-0.014464745693927,9.9486943823861,-0.0076092200216267,-0.009165864607404858,0.012173371719681672,7.16
0.12740684390135443,-0.08002393257397872,9.789442943384355,-0.009778204334877753,0.01108411223518447,-0.008715478136744188,7.17
0.06098346907536548,-0.0343004747321782,9.919752232134941,0.00729940764431179,0.0010858900576465355,-0.0010208229238214015,7.18
-0.06724191775406463,-0.07087383955316094,9.920631792953907,-0.010891721332239899,0.021647708296020137,-0.0028924802145857283,7.19
-0.008349743506800239,-0.1287502446770412,9.85662979366737,-0.008957387367556798,0.0018311612588242099,-0.002332636255843649,7.2
-0.08508867076291388,0.06473176498357781,9.833419308338284,-0.013629640619261996,0.003765902150950104,-0.008348553410069003,7.21
0.06950236507225817,-0.15324111273946972,9.848805067187438,-0.0032890733308292186,0.004251112365728557,0.014616534160218114,7.22
0.18599474667397276,0.042177231546871884,9.938230983323178,0.0145665272925743,0.007963539650823992,0.007703135322592988,7.23
-0.1198364748092719,-0.02639445200645556,9.781854960774593,0.01169805307080968,-0.004583561510493114,0.00522826800038862,7.24
-0.1600495222503785,-0.04590371562949672,9.665648496381387,0.014470774029257403,0.019122952853707863,-0.0032403662795046856,7.25
-0.004528443641889204,0.09300588297397984,9.787583765901434,-0.0006383798294684699,-0.011236763103684001,-0.005225019911727492,7.26
0.0498834740287002,0.06305356890819094,9.942976062890752,-0.012332271734013474,-0.0005245110566643296,0.01065616272713883,7.2700000000000005
-0.09701839051655813,0.009885014292068617,9.842396134163918,-0.008068868075495781,0.007603445414641885,-0.003070895423151193,7.28
0.11565770834975551,-0.10387820959210362,9.867187790352666,0.005864165683318738,0.0022351381496560608,-0.00905250942660942,7.29
-0.05783341870489964,-0.06698864738624151,9.687254653334895,0.012780149217907598,0.013660015760717738,-0.0028145863314573594,7.3
-0.04653506204825502,-0.0906114873684572,9.616050780271612,-0.004773621746541839,0.020945269838452667,0.005572818532544098,7.3100000000000005
-0.18050969610422302,-0.049458417676139343,9.786559724481497,0.006715929364217452,-0.008529347586589785,-0.008219835980665334,7.32
0.05420611677508929,0.02449800702679247,9.903190354234159,0.015878015266485874,-0.008650959573538439,-0.013054717174652319,7.33
0.08178971058962455,-0.01966283234330443,9.803188853304059,-0.006523068121322674,-0.006587622267404043,-0.010163088981001014,7.34
0.07046785861672454,0.1548641096807506,9.718832827082425,-0.004706454198410736,-0.005149299657204838,-0.002066571032609468,7.3500000000000005
-0.03712943538050823,-0.019859070504756153,9.57901679706558,0.0005856112456917111,0.023964484054486306,-0.0017105731716220022,7.36
0.04873131807526341,-0.12117946323094692,9.81953625773637,0.010610123393177776,-0.004430996351108596,0.01043035377651293,7.37
0.17610464380597726,0.05065438049017761,9.757587202812674,0.0006027815244665706,0.02416995890562301,0.004651674566426246,7.38
-0.06994450432961054,0.07082887992468921,9.879500197690385,0.010107714108801092,-0.003492672636507039,0.006151602267987714,7.390000000000001
0.03526724722294146,-0.048156534849454403,10.026759792903968,0.009395995197080727,-0.007064489604632635,-0.01776449175737222,7.4
0.09903658868300824,0.00649623292352801,9.839564920377251,-0.006470857929013543,0.004927570831984865,-0.011329576613750883,7.41
-0.02947930350576665,0.09855947160303825,9.7201590915274,-0.00015120898728617814,-0.0035218949604784696,0.00783567209015406,7.42
0.0005161445660389173,0.2667387651763967,9.857968490125426,-0.004047046874272664,0.007346287203637035,-0.025499967234597173,7.43
0.11224660337640824,0.3129144146245946,9.962588289045478,-0.0027045585366790342,0.0051279588063790895,0.0010388788322155966,7.44
-0.15675184647584284,-0.05838902180317911,9.577006903838344,-0.01182265440927261,0.013827429385758025,0.003903318030184925,7.45
-0.10936857280824529,0.07264199990097268,9.787684503428164,0.000123035068075926,-0.013627158053579677,-0.013782265982730014,7.46
0.016531586277126243,-0.14582867949152295,9.882398383017286,-0.0019401813317263309,0.010973207633869997,0.0033620834458950766,7.47
-0.03897920325379334,-0.10696824970550001,9.833804117725375,-0.003995273411857447,-0.017281213105012266,-0.012245896756275711,7.48
0.008084902292564937,-0.03565593047435389,9.919385285680136,-0.006501509346619516,0.006976331500009417,-0.017212969812709228,7.49
-0.11987556564043461,0.0023205354103552375,10.05076770310961,-0.000827580000144269,-0.012634920686196626,-0.005819503849711293,7.5
-0.07884522618849488,0.09930769506503581,9.824378321217935,-0.01608564757212308,-0.006428924175831558,0.005793592182633534,7.51
0.05550441179266852,0.04571193090744313,9.708058415150905,-0.010636974657759602,-0.024689220269453433,-0.004178702378233846,7.5200000000000005
-0.044711773083227664,-0.03593021213318363,9.717343574417663,-0.011776319835388386,-0.007462492082332617,-0.004291916003390561,7.53
0.08613425036161533,0.07392747751344945,9.908613443664482,-0.004285594353097723,0.0070458398129079084,0.0033898063827366605,7.54
-0.007535050132155267,0.03409692721465526,9.787849615375693,0.006733255909066538,-0.008342527825203382,0.00020071798412687886,7.55
0.05769145137512763,-0.14588234740308387,9.909477647652807,0.002808285869852894,0.0026546205669564765,-0.02795398335138405,7.5600000000000005
-0.14049113900567753,0.03381164572806403,9.743455829852525,0.001015057512024339,-0.01304198167370108,0.0075664511913762725,7.57
0.06814477607422338,-0.08401083796124843,9.826500474337873,-0.0003961325580595811,-0.015173295798734492,0.004294409946732043,7.58
-0.07791626647774993,0.04538441632442982,9.898838287489244,0.0006992326135114387,0.0028917939426682227,0.006618396075565286,7.59
0.00878918726826036,0.023718241916453622,9.92782298747966,0.00184133555502917,0.011531206168763986,-0.008978740974156305,7.6000000000000005
0.21005839274129867,-0.06887286118445284,9.737724294240937,-0.004775002872294732,-0.00046061643886362443,0.002467701775456308,7.61
0.01842331992463747,-0.06794400302613311,9.89980811357717,0.0005730001706848842,0.013582448623687187,0.006607525475278154,7.62
0.004150224316921097,0.12075018364447543,9.831572627255522,-0.01929088805480303,0.008004065225493417,0.0011410591766955564,7.63
0.07847149454916222,0.004801995160126665,9.660943497670576,-0.0070152090072843985,0.01980286878637031,0.0007635918418402553,7.640000000000001
-0.030578960118606658,-0.015589816523773812,9.771330634067164,-0.0035542155466240493,0.00839009236057388,-0.007600655213213588,7.65
-0.05903766100840402,0.07110816082874155,9.928339443366957,0.009106693007193764,-0.00039476897255416956,-0.005727275791249422,7.66
0.11657910205684577,0.09887692686121395,9.880114141205484,-0.0022604262705658924,-0.00561607718191167,0.0010451196315621263,7.67
0.03747244187147388,0.050981702904049214,9.893094359697587,-0.011411756775861686,0.00941700652858642,-0.004567395510029448,7.68
-0.03755845814401352,-0.035744209959256465,9.7061908669962,0.005787685399660292,0.009085739492118453,-0.006911950171050923,7.69
0.0678057560149317,-0.017203890195099082,9.829440104233097,0.007655588895712654,-0.005575385869527362,-0.010380188385568949,7.7
-0.12372038118851075,0.12196388038292878,9.97058395911911,-0.005223224421982452,-0.0010739955315106475,0.005431973721484873,7.71
0.015745027510053296,0.11451171958803548,9.863944679813105,0.003573708698960402,-0.0029605263458739885,-0.015513719546360574,7.72
-0.17496713533315134,-0.03843786170434609,9.948987352599044,-0.005876935798621128,0.027737301586485474,-0.01025895938248672,7.73
0.019749258168217362,-0.0991618401863717,9.84599937506839,0.018031830683430974,0.023567788031356025,-0.0069713051206634034,7.74
-0.1611428070773298,-0.016388167262576993,9.91679648477254,0.01028346633641875,0.01280789469782032,-0.005991972293344056,7.75
0.14894373457910923,-0.15861848892424166,9.890000252776893,0.00033284871164002356,-0.0021145312191019915,0.010775309175723573,7.76
-0.01569573523219607,0.025471718993705303,9.665823158093813,0.0018135484153550716,0.012304258077962432,0.018436480683359253,7.7700000000000005
-0.12346293496162726,-0.00734783967324483,9.835382939535396,-0.003185843022502488,0.0018510676745440904,-0.004826673371901553,7.78
-0.028924509080310485,-0.05889552844948718,9.84164529601279,-0.006796113291925812,-0.0015157769409631136,-0.015150765093245073,7.79
-0.07272501781894239,0.02273989325255695,9.82742339534086,-0.005621573592850663,-0.005214323055202803,-0.00618696238588402,7.8
-0.19948249271974305,-0.18658979079686283,9.81970261343154,-0.003448110125943616,-0.009688209731721922,-0.01840115764628617,7.8100000000000005
0.12970243540126056,-0.1764968909402739,9.627173919277716,-0.006718164465959604,-0.012977203353699947,0.01924235959280289,7.82
0.02555529751869087,0.003164077853842394,9.904641822278723,-0.003248350799846898,0.002451559220278363,-0.022228888171569684,7.83
0.1474031773096149,0.026761565954625963,9.89235226757804,-0.004395899941480128,-0.0035517101395908237,-0.01812795720439631,7.84
0.02999528676163922,-0.0604411437116745,9.911535633394092,0.010816838007811915,0.00014988663286092283,0.024272414850976864,7.8500000000000005
0.04718430112256875,0.04430403765698873,9.642345057454332,-0.007084178107358558,-0.005513527952981251,0.0020548542464983734,7.86
-0.012135100670144885,0.09353883845781932,9.689516870138927,-0.0033177773630114166,0.017735184269422416,-0.02090823637471901,7.87
0.032693337407313824,0.04326722275399522,9.840306028502654,0.008263602232723802,0.01073228245159584,-0.005319848570400228,7.88
0.060775610144242515,0.03559140121303092,9.667004462269148,-0.006352310568991295,0.014400154664135401,0.006396593013445542,7.890000000000001
0.08209988059044578,-0.061357997319744374,9.874116522693205,-0.01709963716758274,0.012513974756893118,0.021137150353824952,7.9
-0.059354451494226246,-0.07010193443858358,9.772916843319294,0.00888929175800932,-0.007453627010258428,0.005629254871538254,7.91
-0.01958753591197999,-0.18918584116957682,9.790170582242238,-0.006690840496846563,0.0024412038477926432,0.005763458715279338,7.92
-0.023571300556423914,-0.058069134847985086,9.787875133549857,0.004176676188055845,-0.0032141460663165484,-0.019959710577945683,7.930000000000001
0.08935382954656518,0.06849776064647746,9.738698501489507,-0.016831929524571892,0.000980829739487461,-0.021567942839415842,7.94
0.005525234710366013,0.24975569568096825,9.534379013459795,-0.00358952546296635,0.029523152079652774,-0.010182173891344697,7.95
0.04828104902975469,0.034787043117500555,9.903915204459341,-0.01816236152641303,-0.0066462363651491165,-0.0012782513363082087,7.96
-0.0015155455132774144,0.057444530083728476,9.756111811940904,0.0023383086101976384,-0.008328183840740477,-0.0024017344015239217,7.97
-0.08645921619627561,0.016623737091037358,9.722559106206898,-0.003286552568907288,-0.008216493347663492,-0.010462807717099105,7.98
-0.0010457320574431795,0.044315615337449744,9.782938247407088,-0.001243007220881333,0.002808651353005449,0.013536803027643731,7.99
0.25855208977230193,0.03448451471620411,9.831211208871974,-0.0011762021688840891,-0.005072448856762327,0.01007583328383915,8.0
0.03054699436177266,0.05421026503575808,9.87929222518144,-0.00819186242606146,-0.003779709655339794,0.002621902619428782,8.01
0.01383987604610052,0.1142894476870236,9.986155381428556,0.010265318652437403,0.019025911232864307,-0.008550856200206682,8.02
0.13009076044887463,-0.04504444716288242,9.691769658231156,-0.00022277913329089475,0.0066014777574654624,-0.008737531031722536,8.03
0.12487211993859182,-0.0752066299275946,9.767444043682897,0.012850169033355703,-0.00019210453022982675,0.014097372656611405,8.040000000000001
-0.0855216608481353,0.08821811911960362,9.938694297802602,-0.003377558956599296,0.025995542931422557,-0.006188659195444942,8.05
0.01687950980063684,0.08883468345711773,9.927549676870068,0.004712174224038489,0.012468984611015858,-0.008311203284597333,8.06
-0.006704922187129413,-0.0067230021535153485,9.847155145475668,-7.757964464152488e-05,-0.0048179156446965365,-0.0022353942050414776,8.07
0.16619713617286674,0.01646644412548363,9.817843905971307,0.007910879744309752,0.002608801934191605,0.006861447990465599,8.08
0.09906377385956594,0.02789411665343676,9.931509223720544,0.002828866882052387,-0.0008667750119611217,0.007853370142814892,8.09
0.0040464673802809254,0.0787721368560119,9.634190158296873,0.006164388398960967,0.005760750792529085,-0.008408173097101776,8.1
0.06212120137138865,0.2212868467777861,9.694799318658896,-0.004770688646011993,0.00951224932419757,-0.001711465343099439,8.11
-0.20841391878705984,0.01577269830566131,9.870799954744333,0.006833256869892014,0.00984065838487473,0.002626476573053106,8.120000000000001
0.11819001926596145,-0.08002947983696071,9.797902194563912,0.004766203651147561,0.01715497271848892,0.01118110767644309,8.13
-0.023215904591054423,-0.015171242118228206,9.81052847453773,0.002895016330967774,0.008059054875365967,-0.0063157765802463375,8.14
-0.14727310444748848,0.06786426167223404,9.673164573839696,-0.0004551423357664676,0.004758571866253137,0.0029387929304191614,8.15
0.14906408880900776,-0.07704871431200443,9.809980729561891,0.00016791528101587507,0.002571555427929992,0.0024679954786900765,8.16
0.256594324951922,-0.013008074713994977,9.730884566322237,0.005325928055265003,-0.017047760597685126,-0.006257062073005764,8.17
0.028398171845458425,-0.004822906418081272,9.702464046126023,-0.004374589399607575,0.005033584587097167,-0.021797846386845916,8.18
0.02181511429761936,0.08191155331818156,9.863224335527603,0.004060901237150129,0.007775648274342555,0.005502389287789031,8.19
-0.03762136828374189,0.030656732558681645,9.699335873868842,0.007407985062582534,-0.002117643641042026,-0.027333774111502833,8.2
-0.013218926414029289,-0.021244147241290548,9.823211943336048,-0.004677871271538258,-0.00847842976684781,0.0020178014527434227,8.21
-0.033138656858823765,0.028397519083800976,9.842191524193751,-0.009887390658363717,-0.021233204060000573,0.0005275237416845685,8.22
-0.030917344121092167,-0.08029143818883881,9.725495375365144,-0.02016315214440415,0.004867709024161172,-0.003919925192531378,8.23
0.02228067041056455,0.00243716371386412,9.824789434106037,0.0015132579345701759,-0.014147961399674619,0.006215338033921677,8.24
-0.05768696747464474,-0.15400379815460902,9.944419396857558,-0.002299660952412944,0.0006567210037592444,0.010513860943212095,8.25
0.06731817240262736,-0.019011155523497913,9.631680745780146,-0.0011064420319343076,0.0008488288676789957,0.002836153805433793,8.26
-0.04221172442067501,0.019037921255819972,9.875456042068942,0.007972789216599793,0.007641568409592498,-0.014848888844189665,8.27
0.009433048565914991,0.14759191286534087,9.990662241961846,-0.0015470831672678234,0.01077891259039688,-0.0013396419126941984,8.28
0.07520088320656258,-0.041473731188054606,9.941230701303816,-0.012075505104705564,-0.002782691989496292,0.01281297223086383,8.290000000000001
-0.025311855354358183,0.021923387087097,9.812535827698122,0.004118989501935857,0.00840109975719509,-0.009803863683687766,8.3
-0.05930778235984407,0.005665209745112819,9.695095246631249,0.006264392499834576,-0.010539446915874159,0.005560224629079675,8.31
-0.0795183726558252,-0.012996715342872587,9.79962503654934,-0.0055421254814613345,0.005797656553553707,0.0008591207571215701,8.32
-0.10082690934972949,-0.035079269472813035,9.991574701960399,0.008410293944421127,-0.013848435088957497,0.0013290663715674483,8.33
-0.10610964250113573,0.007581959083980162,9.922828954724562,-0.00651981307855333,0.007965830080868534,0.015922437149723447,8.34
0.07818487910802005,-0.06804554616881943,9.773319919803038,0.007105027392795392,0.012607282262943343,0.00787349298604926,8.35
0.16510944461811522,-0.042909604123626766,9.764266083037707,-0.019470997604777177,-0.014131092506726306,0.0005816442969795576,8.36
-0.026111209304708588,-0.21096520804305863,9.959304793909855,0.005198528391947755,-0.006500941867526168,0.017887877375983147,8.370000000000001
0.04281304188818676,0.13276013416433988,9.688494602193432,0.013451540660125574,-0.01115212543674134,0.020341682680501717,8.38
-0.06820677059608614,-0.19716662793733358,9.853379319226399,-0.009499478121519266,0.022604121383583326,-0.01414420372569432,8.39
-0.003783386378498779,0.017142285277982738,9.90325137571327,-0.012646438851678378,-0.013297857212802721,0.0012198781679112855,8.4
-0.1866661648242725,0.129001046287489,9.76070230984061,0.009034730346500456,0.005350048211720555,-0.005153419615146181,8.41
-0.051937840945559526,-0.0442433146167719,9.882851847100461,0.01671696583902556,0.008590020291667068,0.01418604895018188,8.42
-0.103938302542648,0.04594075919484968,9.858897022161328,0.0015334752196941408,0.013941769607883053,0.0004707048176691081,8.43
0.0941199285163175,-0.13670486743984991,9.663783143547153,0.00795659572098599,0.0026268268190535937,-0.00040933118831182363,8.44
0.07152435279997062,0.08681990313218725,9.774977114256421,0.0036539524217673192,0.008389537704589058,-0.016318118233085894,8.45
0.03594360379929023,0.06740242419135055,9.855973044524136,0.008149745755701756,-0.001147105747114516,0.011730281539320566,8.46
-0.04062986091940177,-0.07791327270215698,9.837287306002208,-0.01726088289035336,0.0070877164656035895,-0.006716354402884997,8.47
0.008561097949153029,-0.07487615406822722,9.870273264267276,0.014952102241010028,0.0005382998551141143,0.03489992818271401,8.48
0.006456882296377505,-0.09293824044448297,9.69650899338531,0.020196595237639482,-0.001834258497748722,-3.485912718016022e-05,8.49
-0.12792133983723428,0.23381111822058087,9.815425021099559,-0.008582978633546678,-0.01195990750229907,-0.022338423924595837,8.5
0.04383666170667251,0.05234052828100502,9.76217056602443,-0.008795047716078487,-0.009939454510192734,-0.004432421794793142,8.51
0.09317622223434995,-0.18060400676029573,9.67249881053254,-0.004503882557362618,0.004370756300863303,-0.00905010660417794,8.52
-0.08329629713275533,0.08443453218003316,9.764056165887869,0.0018436619371282501,-0.013928960718554918,-0.0009078681705560847,8.53
-0.08788718667927692,0.04062118536734301,9.685604953661228,0.00260493180616787,-0.014218405194294776,0.001278280370103545,8.540000000000001
0.1065236941928915,0.05557544760958841,9.674389031733707,-0.013055173146567154,-0.0026606838785905498,-0.017608447358251657,8.55
0.05532168347119653,0.0015862131533712022,9.772516003156408,-0.0017685305150273662,0.00033820468096901245,0.008302720248702093,8.56
-0.09401800254943771,0.30954994084992893,9.967132298253057,-0.0010015657405681628,0.001981534266935348,-0.00855265496555088,8.57
-0.2132286698230632,-0.25963379877115716,9.701955438769584,-0.007257190920297572,-0.016546083022210504,0.002057227032178156,8.58
-0.037788056348928276,-0.11825106810244829,10.045404098665884,-0.008027569818124122,0.00345545995341182,-0.007091773750556869,8.59
0.2395332699760236,0.050761981367350495,9.887905351212614,-0.004788180070260146,-0.01014035158602592,0.012714808620135909,8.6
0.11752922047168478,0.14770165899409518,9.861034390544294,0.004830761999792354,0.009666821453951674,0.014925632072114921,8.61
-0.07516438216626425,-0.07598966812398088,9.94698316580046,0.004892960218733237,0.007004565079789412,0.018731413026838697,8.620000000000001
-0.08357132191822804,-0.2427040310101396,9.842197740483616,-0.013157221580310838,0.017107081276793234,-0.0078105066803969446,8.63
0.10268133871372116,0.07668026169705411,9.715563330636932,-0.004192394441492909,0.007441217031081464,0.018885712275336464,8.64
0.13285279904210373,0.09836334693356319,10.039676627322255,-0.010288472012064965,0.005468419047606632,0.0035150819280168346,8.65
-0.12490343692888246,-0.03277955645420446,9.681504006380719,0.013513623577759423,-0.005045645300399925,0.007352157446630695,8.66
-0.13597110796726655,-0.019467214725812948,9.86955415083666,-6.079428910060279e-06,-0.016207643379136404,0.003644798572037149,8.67
0.19661360907686246,0.06990787259150867,9.814735525257413,-0.016864485222884147,-0.01624190975563485,-0.01634075516964514,8.68
-0.0031397697550432074,-0.022588977881483174,9.716417898741556,0.004708265021325767,-0.015647080463095348,0.0003213619354365967,8.69
0.10121734923806996,0.1737762126058097,9.927006387887714,-0.0013216942178976507,-0.003748669243987517,0.002343941812256137,8.700000000000001
-0.05867747295979037,0.1080760740962379,9.71977079757083,-0.0015580788365256407,-0.004553402429096588,-0.0005198446425533106,8.71
0.0319491273945488,0.11397715816440086,9.805565861936579,0.002648781929087785,0.0026235290043679377,0.003600227874902302,8.72
-0.06764032591135553,0.009942618576033648,9.758496518925037,0.002266553789664585,-0.006536437833583538,-0.015089201021715588,8.73
-0.053294533670556254,-0.051655314172726965,9.790802471922358,-0.00871467151190726,-0.004100804426069728,-0.004145388565980172,8.74
0.16208640222535614,-0.04470511768336081,9.925340357978996,0.013844439316376118,-0.010377797671735484,-0.012328067653302174,8.75
-0.03288788143910867,-0.14100303753210952,9.614865146275498,0.014097318659723064,0.010715682763980139,0.025837277957430228,8.76
-0.042118526402121374,-0.011846135551649426,9.627449134858729,0.00343258820687217,0.00604699245946088,-0.007835089806217077,8.77
-0.07045662839517573,-0.014946347700860613,9.870833658469905,-0.0007601021226777502,0.00912579397297214,-0.0010583792846591245,8.78
-0.08124471413944678,-0.08273772538109128,9.740615101615996,-0.008997002779616046,0.00046126601194954427,-0.008624282559520682,8.790000000000001
0.07489826895610106,-0.07167134486015513,9.704563115076144,-0.00775558238809681,0.007641946273579247,-0.0028044318963886955,8.8
-0.021619716768302443,0.05220087110766981,9.850199592318605,-0.00644529794441813,-0.008923729119327208,0.012168031960247268,8.81
-0.06922513386438754,-0.11119975027194354,9.602860891374924,-0.0040080617992706,0.011339516419935034,0.0013094128854622671,8.82
0.0012240208758984375,-0.08662041294745276,9.58576760456893,-0.018404046050458815,0.02241222922472509,-0.0035766394827963515,8.83
-0.05715378654683857,0.042132840182485164,9.766724789708027,0.0017363228029208453,0.011980028332878506,-0.013863097829357313,8.84
-0.037270067137497094,-0.11474855608775947,9.73305150591048,-0.0022594112861020234,0.011411961540377656,0.010708032421953262,8.85
-0.07787115985323882,0.007425147423174823,9.95803637828091,0.019540850514432797,0.013059860576499738,0.009200307098186344,8.86
-0.16063513339889815,-0.026368583666486235,9.867828332549136,0.008430041929183901,0.01507447541610189,0.010374043820981223,8.870000000000001
0.01580592028545302,-0.08605144064131454,9.816180599745179,-0.013404296756969669,0.013391969593634628,0.01762006898133747,8.88
0.029190476417712958,0.15630671039768748,10.071500229884377,0.002123918400118316,0.002590676760285915,0.009500916330963505,8.89
-0.0670150785743659,-0.11790175924458307,9.737425269242339,0.0037956034365680307,0.015201141978284552,-0.009206226187332758,8.9
0.014962626993233419,0.03765009060676919,9.868754855741418,-0.005744897822894224,0.0012624316845802977,0.0025603697286444914,8.91
0.09104135854887335,-0.22228529215749396,9.853080039382977,0.0018559743871250309,-0.00424085117133841,-0.009757535396337374,8.92
0.10875706561043108,0.11739342944048066,9.731814743736201,-0.002587626496544386,-0.010148764163042386,-0.009244574863871306,8.93
0.11865711177671599,0.05588127814542169,9.849128814521203,-0.014644624260503896,-0.005150158333749307,-0.008501607407238689,8.94
0.07897001628743705,0.056906888790068215,9.93666614705992,-0.0032192749524325172,0.0020026204966852746,-0.0027092082605558216,8.950000000000001
-0.022557070487130224,-0.06171933188199581,9.81118276030867,-0.004248572871316245,-0.0058107584434624795,0.006757994614593408,8.96
0.1196952717375714,0.044930457809683216,9.916799875310149,-0.00509969772288092,-0.019522727555149322,-0.002959443939093515,8.97
-0.018157254414794332,0.20053468038145206,9.880575767226297,0.0006558929570730678,0.030887261109297258,0.00185983301922562,8.98
0.3073502345074687,-0.08837638628554118,9.743441368765323,-0.010977380815917197,-0.008477914030349115,-0.0028952986163487157,8.99
0.17725241296839944,0.1419969560829841,9.812227760420944,-0.012671275556519446,0.0034472168402434646,0.008680389309992995,9.0
0.2287430022273742,0.09258658359790846,9.66954155146424,-0.0016186826624717055,0.0018456265184590398,0.0003223490265716781,9.01
0.08970450806507348,-0.07336192878468954,9.802256773280547,-0.0028749747628044166,-0.0009114162284838215,0.02217325731096374,9.02
-0.06672506024258862,0.006853983571152635,10.014784895659217,-0.01419009000695524,-0.0016138851262946703,-0.004987881252459629,9.03
0.13735464349935478,0.15440171026934835,9.803400854948764,0.008730131779991494,0.000684257471118845,0.012495558430976321,9.040000000000001
0.054424466789058316,-0.004115453310177648,9.814033342130239,-0.006025309004947135,0.008913201241948809,-0.013441906267624938,9.05
-0.052202364883903646,-0.0722312689808964,9.829148338879406,0.0033843536364386684,-0.021191294251488108,-0.011772053024808944,9.06
0.04147212044217996,0.035044621990903975,9.86929466762873,-0.008090823325862882,0.018990955730708622,0.0014908685843636222,9.07
0.11761967590864696,-0.0413868025227436,9.652532163384041,0.01726400022065106,-0.011776586013514381,0.02803004640191393,9.08
-0.07770993607139078,-0.032642161486707004,9.927569021176323,-0.0034447578668014133,0.001937905159869696,0.004697267615025956,9.09
-0.13824875491096517,-0.0888740874025376,10.032757729015426,0.005293763292503928,0.003754389405368396,0.012375738990319587,9.1
0.05090615792994007,-0.16217257344314515,9.791413549083476,-0.010827107876997479,-0.010980988120901859,0.006120205643617519,9.11
-0.10126416931463907,0.07543855801976196,9.782862563565711,-0.01325919414461393,-0.013436901329688404,0.006319070181190434,9.120000000000001
-0.09561235584790523,-0.10604911387300127,9.882323365204014,0.0027272611123065993,0.010839998287223103,-0.017043633294481015,9.13
0.17454233607402464,0.1126258903992812,9.987835985086251,-0.0008064376985750633,-0.026429516820112103,-0.005337287751504453,9.14
-0.017401122203104927,-0.07272888145209623,9.818036360215993,0.005274795105841868,0.0009678842168326471,-0.0006743270480639977,9.15
