ax,ay,az,gx,gy,gz,timestamp
0.045537307155323524,-0.07753989812030682,9.918414302833943,-0.002515981608746627,0.004331355718916075,-0.004146333254717152,0.0
-0.08162726238697438,-0.044100222483332396,9.971123542364733,-0.0037028607288334516,0.015679105466092684,-0.0018022624355811504,0.01
0.0855581292829024,-0.10854487297434481,9.807244190445354,0.0073011698524227675,0.004492447267353359,-0.008696168044851163,0.02
0.03969373432557943,-0.16131066848066525,9.84527974183272,-0.009615488360589326,-0.00640968173683569,-0.0011575279683329602,0.03
-0.10876050663095892,0.22087075676039813,9.70227997299518,0.012065083883280576,-0.0005915520889439438,0.008005003117780326,0.04
-0.033343395262655166,0.07720672961016091,9.866222216589774,0.00601739122978276,-0.00956807746916968,0.021718566496608322,0.05
-0.06502813226909758,-0.07701271763398704,9.776385707572173,-0.013741785755254799,0.003824983363565531,-0.01332306254690769,0.06
-0.13771597966804747,0.03260409060072375,9.913763316457704,0.014215540490241515,-0.008325113536472271,0.025697977757540957,0.07
0.07096360752562193,0.10928513046404834,9.756752491984841,-0.012632201543707968,-0.003591264959464098,-0.019404343786385503,0.08
0.06880084320505578,0.1032645521123265,9.728772679373026,-0.003943634916073773,-0.005950322052107483,-0.0001193581315844344,0.09
0.10653777222004526,0.045717834050712836,9.776048753084368,-0.00883753032066794,-0.01869187109096864,0.012111905648467782,0.1
0.11954695972943302,-0.06471004496641167,9.803605980024615,0.01007436362030715,-0.010353443454897138,-0.0013304231305785725,0.11
-0.006510431584651168,-0.0092911279484361,9.718861965935574,-0.014086156544242388,0.014005176810304719,-0.00030671845477957103,0.12
-0.166056814939866,-0.1142522487134537,9.911730718576262,-0.0017768802511887052,0.00023187231421224692,0.009885050792162158,0.13
0.06898497011566908,-0.00738861369969575,9.893359665786663,0.01838951606678306,-0.010526307623843543,0.007646242423376295,0.14
-0.14881916376292834,-0.08854792876779041,9.807421746658255,0.0070758864751528,0.015976792766317978,0.011181163608659266,0.15
0.12957205886514508,0.002973226453263009,9.674657653559054,0.018766029441257194,-0.007851618503656304,0.0052014359774730165,0.16
-0.10116496219566284,0.1234226256533866,9.755042692332513,0.01919223634258275,0.0045432687758419224,0.011149900262353287,0.17
0.04464682977610126,0.027334310410063112,9.88303852839703,0.00529429762561132,-0.008228315265429808,-0.005279584500911394,0.18
0.11680780490969372,0.0220197804158584,9.785248947521293,-0.005427324835454946,-0.006551771172519006,-0.008653385772989403,0.19
0.013632704361709115,-0.009146810885361992,9.947896566743767,0.003335858031742177,0.00497316541173379,0.007488852292582658,0.2
0.077426448858229,-0.14346075910103426,9.74216364545567,0.013489749847229521,0.019940523332241458,0.006044650784459385,0.21
-0.018084483019493662,0.037380517288062666,9.856194156009593,0.004135091009943373,0.013634521819488333,0.013972120161661042,0.22
0.10777587157474777,0.04111864674171754,9.907907139552803,-0.011562568526946336,-0.0030428384570199162,-0.018020324489737807,0.23
0.007959346139516732,-0.18003197425006856,10.01128554104385,-0.006350884623796369,0.010186459326807487,-0.002903208120113394,0.24
0.10870546392792746,-0.01094369668736238,9.933540689349396,-0.00017469522502270508,-0.010996834351554836,-0.01485763016334185,0.25
0.06438130101449016,0.03794269221945873,9.959698309308692,-0.025013777575585126,-0.007299151630389432,0.007785584096141336,0.26
-0.08389215184937565,0.10156671975432546,9.689877929448746,-0.004344985930085132,0.011573893977230324,0.010032592234496289,0.27
0.10569924399048043,-0.049496240726500274,9.643377028277708,-0.004912342512128767,0.02701768542532354,-0.005997208869537378,0.28
0.08714491842102885,-0.08731340670841087,9.767890411072212,0.004099675396586779,0.014297326697793636,0.021695287582180204,0.29
0.026602953631490584,0.02419235909672275,9.877559387658094,-6.950887618203678e-05,-0.001876354662727765,0.002846325392269866,0.3
-0.08247904743422774,0.05132573012915084,9.898926789046945,-0.016705120284470507,0.013150369638497368,0.000996659971732944,0.31
0.0826927617454405,0.10022184131575401,9.897644662038184,0.013872221391697775,-0.003755137473314896,0.000331038044613564,0.32
-0.09836972864564297,0.08213415509892927,9.886900895195064,-0.0081362943111621,-0.008317537116780595,0.018331030992686605,0.33
0.004703547266118861,-0.1266169565240567,9.8569142466502,-0.014469714014546753,-0.007104426941728608,0.03094110441586238,0.34
0.21328839097351762,0.0245358027139584,9.879771143996885,0.003002738251601619,-0.005756156119455588,0.007259437310423312,0.35000000000000003
0.12517669877718704,0.08369506442473001,9.663270663054076,0.006498487961236829,0.005852493971459725,-0.004768348373767065,0.36
-0.009267676020095697,0.018697186549522737,9.883082668230251,-0.008416929362804497,-0.014761815971948018,-0.005879707145783587,0.37
0.017533138110689118,-0.12242306752788257,9.76286225887986,-0.002927138071199926,0.002594148843458834,0.0038003370693193823,0.38
0.08341415249024646,-0.1413063539941249,9.845863646625808,0.005387937830269117,-0.009648494658141401,0.00036769799933473785,0.39
0.13254634620130146,0.09928669085603106,9.628295812973446,0.00898605910207476,-0.00737732426055655,-0.0008403270192053505,0.4
0.1653836082972411,-0.05712061138018054,9.783489900879498,-0.0027255714834521516,-0.021733803220754286,-0.017917580191961307,0.41000000000000003
-0.10718768065428992,0.0861611964287775,9.669822675827861,-0.012320668032235456,-0.014660772724871454,-0.0010923144759346036,0.42
0.048138524177261534,-0.13082093355853738,9.96668691199566,-0.0035917069641367887,-0.0022231841717682095,0.010316070671673276,0.43
0.008001214872389478,-0.12541679500702066,9.846190378155598,0.008838156326001578,-0.00390976326231306,0.013286083823761676,0.44
-0.16683145278964673,-0.09364751335435148,9.90007266447162,0.02002836250532865,0.024700442119788193,0.01678083042767898,0.45
-0.1438421318063132,-0.04660305231853282,9.871404270514912,0.007390671317084492,-0.004782288423636131,-0.00900783063601451,0.46
0.08199846511055355,0.09058752775051038,9.784284607254914,0.0033168205374997186,-0.0053491540106531624,0.006516500156108975,0.47000000000000003
-0.1235460478079356,0.04264198653727081,9.606427051490442,-0.01143747097787906,0.002844306378194936,-0.021129243095697393,0.48
0.12096504550988746,-0.05385494394094275,9.734705103280321,-0.010748890616138698,0.009096716766492343,0.006233781787240671,0.49
0.14794110843881578,-0.1419254526553063,9.520949203058223,-0.0008121432826069609,0.006995185160788351,-0.006124514159432492,0.5
0.013735306625775746,-0.04877615693638043,9.813369138974972,-0.00304863049597764,0.0025181558317618376,0.009697537460483586,0.51
0.0028075993263505816,0.06767449341746688,9.707125957813858,0.003514615936731812,-0.004003007093135181,0.006777138633225039,0.52
-0.07912158339223047,-0.083095357603926,9.66111907825534,0.0034989854747187704,0.003463928581367901,-0.011243365926845193,0.53
-0.05090015444105739,0.048729438171069145,9.811609775481859,-0.011297296136801714,-0.01755126901457112,-0.0040606017486382266,0.54
-0.044092376075613136,0.03499360470437297,9.858644685899275,-0.004365236994124474,-0.011996710118756932,0.004747711644988003,0.55
-0.01643153255134953,-0.008495971765558906,9.90758244587258,0.004945909157584525,0.005973410437605706,0.010339014467669745,0.56
-0.007708404481248193,-0.0745518173377313,9.778688949772889,0.006171570827943938,0.00738159036213401,-0.016562714683949625,0.5700000000000001
0.02819351240348088,-0.002542103710956256,9.689590023148622,-0.007294746682077959,0.009839291492839282,-0.011142193176418472,0.58
0.1315163805110597,-0.0297370912960426,9.835514042970916,0.008835137665905447,-0.00047348669853602705,-0.008148532760384429,0.59
-0.10229606655299216,-0.03100909937270961,9.895778437391447,-0.005003925596239815,0.004848692366514255,-0.0053438255848336546,0.6
-0.028165226101373037,-0.048080657291296854,9.832620563799216,-0.006232727743640198,-0.007041278199645222,0.0059239197218118565,0.61
-0.11347172297661186,0.06690305669569115,9.78801323752821,-0.011695725715033857,0.004171927286921399,0.000271599526415361,0.62
-0.00732440299045798,-0.11751088998462943,9.963618806500527,0.00297183113886148,-0.014493583020401941,0.007743449976000318,0.63
0.07290687212106202,0.1736928568301449,9.80360370985496,-0.009514646180870685,-0.012327004915848405,0.01375797583949527,0.64
-0.06197488754644964,-0.15581821447188848,9.726663942134126,0.014826795379971797,0.013709128800687382,-0.00034332224531609905,0.65
-0.023907610374783117,0.10416616115510187,9.872808894636554,-0.009987271212015616,-0.004166524231682712,0.0002712108779504081,0.66
-0.02790689354308215,0.06816269435804383,9.695796919966298,0.016885484450886234,-0.006733272738121103,-0.007513888516747966,0.67
0.14851294578888583,-0.06781471480655549,9.785184954077717,-0.009166305558239421,-0.0015348163589124328,0.0008786279406097392,0.68
0.014203001533050614,-0.00915371734577943,9.630771114436957,0.016345178081166367,-0.00336238226780974,0.0026660999062995596,0.6900000000000001
-0.10295172902136651,0.09555218873338932,9.946791595324898,0.0016689906184194781,-0.018666802700061783,-0.011300293123694941,0.7000000000000001
-0.17334928831027996,-0.0896557664677691,9.825559159800651,0.0009621039479016405,-0.000678126839095567,-0.006739504057090474,0.71
0.02628461301577102,-0.06372544727470553,9.952131639287524,-0.017522015528097096,-0.00103232927582625,-0.007870431072966715,0.72
-0.02723669594663143,-0.006153776493949939,9.812567315839363,-0.017129673194080326,-0.012265198365726503,0.004305166226866985,0.73
0.027046947716435565,0.017039106829865,9.932019433538908,0.009932919638411794,0.004734508680908162,-0.007668144617617782,0.74
0.08778991034459677,-0.04964469430651741,9.710312494716993,0.013357674630485561,0.002915182984673733,-0.0066864797368321105,0.75
0.019167696372928672,0.01403447088015136,9.721198765895004,0.015766997148199426,-0.0053996826017338505,-0.005976601800532198,0.76
0.037851974281947115,-0.14001832245036855,9.878328754273497,0.0031571182741136064,-0.011127883314311457,0.008334157504941627,0.77
-0.010973026856469503,0.05947775923568284,9.856370394986538,0.007303466790813887,0.009195888490816831,0.00701925598655447,0.78
-0.012080511815450855,-0.0716112769149391,9.754831012246548,-0.012734907885663846,0.014274330134455804,0.01345526867293219,0.79
-0.04059409719214687,-0.13470097732992767,9.75814358242676,-0.003079232709820886,0.004593731366856536,-0.0032450336952896913,0.8
0.11107543338299103,0.040566560891484554,9.786634649871088,-0.004212651638087343,0.005753170089626006,0.005624982059864988,0.81
-0.07845218126987032,-0.03679440401026785,9.698057372573356,-0.0022888785456197684,-0.0035055863951796037,0.007428535868419565,0.8200000000000001
0.08858587036659661,0.08035692653018645,9.71285106546528,0.004494282051585032,0.004503547190717568,0.011557445204279926,0.8300000000000001
-0.13200992382726678,-0.03702528354878405,9.687087890562154,0.0017910761940159346,0.008970646469904099,-0.00018120295051701212,0.84
0.09655997200596485,-0.02819435105746695,9.73607518986656,0.0037556091177204033,0.007910586689585997,0.0017999425671775544,0.85
0.12895174894342873,0.0888397425510411,9.679661922911281,0.004375151777138463,0.0020629232887970765,0.011326687833967041,0.86
0.08269582824685395,0.04588478899635737,9.730686730999365,-0.0010139673283712802,-0.009502469797764656,0.010889004146713746,0.87
-0.05739110106706185,-0.08067886363757283,9.870601307692576,-0.000863616174684608,0.009820902095953106,0.008942690283813825,0.88
-0.1682890811183746,0.025593558411540047,9.87806730347294,-0.013259353740028733,0.019422527215633343,0.0018527821156599986,0.89
0.15859071412934092,0.004258549352936034,9.937977510602071,0.002216519356572632,0.010848057527801252,-0.011894970807662292,0.9
0.007837364413072796,-0.12501448832812784,9.763552915756762,0.0077429142739668215,0.006952055839246542,0.004251959339886098,0.91
0.01592932587595516,0.0563406687167545,9.730445047840071,-0.005564941570868559,-0.009781819501245567,-0.012785065506492988,0.92
-0.14956075134750313,-0.12975203967353796,9.938127778032891,-0.011234701643644169,-0.008179636412216246,0.007564734712201532,0.93
-0.0328359728933671,-0.04207857624221011,9.865885147579348,-0.013196614499217246,0.002847791058473872,-0.008039428375411006,0.9400000000000001
0.21111397716826255,0.021756123541588915,9.76916125262146,-0.00107899169008486,0.0021723694332205,0.017740018603421295,0.9500000000000001
0.12473510841467472,0.00782207848975452,9.847839070980804,0.009694631188497348,0.015421205229414517,-0.00872292673937241,0.96
0.06077330272356838,0.10986522485993262,9.717778674023604,0.005448676227978162,-0.0013324713953146892,-0.016104772438187094,0.97
0.07963271056055254,0.14974710488026452,9.651512234876389,0.0005154301400612798,0.004179071390470185,0.006451575781689298,0.98
0.18458145727977834,-0.013636107684378283,9.759725118778631,0.001974110212741747,-0.00636734040817679,-0.021170712992962987,0.99
-0.03038081405967214,-0.055200616378911896,9.891404020428448,0.01750116733088164,-0.006815294958548113,0.013208962293943928,1.0
0.001432053643221753,0.07466628357713127,9.79830421911745,0.022041320810076342,0.001119185053991518,-0.01994790979529001,1.01
0.07921609229493397,-0.11708158797327638,9.79618853730366,0.022919014279837495,-0.033836667117528745,0.006372239174563198,1.02
-0.07082132053170676,0.04194316124114983,9.684892632384727,0.006685263595762329,0.013387889907013562,-0.00023155741082373502,1.03
-0.09965741923178104,0.16340711602378338,9.868826394842223,-0.013903110069558283,0.00760122480134523,-0.004627540422194078,1.04
-0.09053612337379748,0.14235741197072405,9.6956840456407,0.007244117933231641,0.004021848179125013,-0.0023434525549536032,1.05
-0.10765146620075644,-0.2591101372263423,9.716646892871573,0.010447844385613142,-0.004738543601229806,0.008658675643281379,1.06
0.03146420726325407,-0.19426580478797392,9.78229757477383,0.0021102928407740955,0.004981495272389788,0.010571170806554276,1.07
-0.053960460202899276,0.0787456417749137,9.933335915034345,0.004571841896298109,-0.024283966768143428,0.0175875018943317,1.08
-0.001209042011606513,0.0008827088198022056,9.710040871183015,-0.005738846631645077,-0.015932993732696077,0.0005635901791370793,1.09
-0.029699483086874978,-0.07754848526748698,9.695785907064796,-0.01254955435634134,-0.006255122991210996,-0.010609507889195185,1.1
0.18431292809283184,0.07207257944382828,9.806275167577741,-0.0150549571213962,-0.008849991654359441,-0.011025690266303897,1.11
-0.08012700082680818,-0.07658543866214544,9.895914850572753,-0.007695401910562983,-0.008695706523040966,0.008827338433084529,1.12
0.13866062017212955,0.07807313526100224,9.881665047832131,0.0031223744120221497,-0.009186831618758521,-0.0015419270231611945,1.1300000000000001
0.012503044771592257,0.11440020946417834,9.760999093003736,0.007734333323870523,0.0033224445810529947,-0.002340751312577859,1.1400000000000001
-0.2017833841283271,-0.028064685112854842,9.691487708413172,-0.0028048313410590177,0.0021213102411021417,-0.00569530280978252,1.1500000000000001
-0.00980047893032585,0.12940341138115835,9.975706640588626,-0.012433804085568217,-0.01706405447645428,-0.0073202415783257995,1.16
-0.04949718996929459,0.14996505091037132,9.91919556400724,0.01862925040880379,0.0014878659244410236,-0.007643317248063655,1.17
0.07618802686706677,-0.08573350110728623,9.917745482652132,-0.00792751342872097,-0.001220581485076812,-0.02026115099923885,1.18
-0.019723969249279,-0.113562998215653,9.59536586601285,0.0038747184764063927,0.009803884873267575,-0.0094533012714196,1.19
0.010312553226327697,0.010639704158362009,9.821005302885721,0.008636221048491417,0.016219296392459785,-0.008664990386959984,1.2
0.013016711836184212,0.037424463675897024,9.72270501125244,0.00556155713443885,0.010704777426233136,-0.0012981080251207753,1.21
-0.17491215141087757,0.04972807907543286,9.726045307855133,0.00807805548477702,0.004656614661521472,0.019096034058918694,1.22
-0.11690891727426618,-0.02819662092029195,9.591054820711502,0.001117967835721995,-0.00720448704461819,0.005379860000103617,1.23
-0.06658344384127561,-0.14103559243613692,9.707043793734803,-0.013118786365686586,-0.00488939439236634,0.016548027741008685,1.24
-0.0470511105646653,-0.23394308204401848,9.836993634860791,0.0020053672522528597,-0.003440073696003401,-0.00018581826833258494,1.25
0.09330602639340613,0.032013796156242114,9.73193424536612,0.008848781252175654,-0.017823963016250263,-0.019738703875090798,1.26
-0.006881309818215,0.005575432629025377,9.913558669907053,-0.014318332052861203,0.00028528116410573396,0.004863292568283603,1.27
0.074136872154504,0.06035811640787944,9.686077147162546,-0.005601254987881943,0.0025001623515642757,0.0034169915563758814,1.28
-0.0525147752754092,-0.14216131205126942,9.739650953086255,0.010442584175133812,0.01722758953505947,0.013796702135624662,1.29
-0.0714617542197981,-0.211746956268918,9.962621396716946,-0.010159818548416175,0.011080628492284873,-0.007845126888655511,1.3
-0.08965167136872854,0.032350945934125734,9.797847498511562,-0.0024528908683056957,-0.002641872946720906,0.012078513581150455,1.31
0.018405413110073435,0.2628827360628765,9.811112944914212,-0.008003935881754702,0.005428070044990602,-0.0020424636381643478,1.32
-0.0994211519761328,0.03862374537529514,9.90912990736572,0.0033437476075750617,-0.0010178377895819343,0.02122140341195823,1.33
-0.053124182889487975,0.17057686383658896,9.866961934042997,-0.006666827143546827,-0.0003481622362764587,0.008416474409754612,1.34
0.056895746419999706,-0.03514494570455353,9.745417386330075,0.020950104728186984,-0.004618800925327362,0.004359774291568902,1.35
0.03503429045775778,0.016706162472023323,9.81018779428667,0.025931337112749118,0.004553793081427215,-0.015589397858257402,1.36
-0.010838812505035086,-0.12769812751291343,9.762054944857944,0.012114532784427716,-0.0027850161578319775,0.0037722068278224895,1.37
0.001171550682402814,0.17672959870060745,9.888243954619634,0.008972393897777032,-0.013338244080294328,0.001677589148431207,1.3800000000000001
0.0906993187215527,-0.05679398739335104,9.734894115283753,-0.0004011894756952932,-0.006392408396925872,0.0016570682251963703,1.3900000000000001
-0.1067099063304067,0.0029956802051799643,9.885023370160573,0.0021982030364888394,-0.026691440565509008,-0.010815452889229579,1.4000000000000001
0.04115386622548003,-0.019290578516655943,9.762008022161494,-0.01357817734561629,0.008145540059011086,0.015436034505237744,1.41
0.03838899744364574,-0.08359213281013446,9.829252118905698,0.002334607570154284,0.0055295167002511955,0.015164818253128286,1.42
-0.05317402011611691,-0.030711706950444645,9.776107103887488,0.00307940218685549,0.01874703431436672,0.022430342708863137,1.43
-0.028788086522658296,-0.1638856131524195,9.78708223146182,-0.0003146332395851333,0.004993888221652392,0.013905557395769366,1.44
-0.008271735040506026,0.1434271721702413,9.839775126005222,-2.693902795818884e-05,0.005768453921497052,-0.0031274588756135153,1.45
-0.09998142037057392,-0.08662438803588983,9.748599111279661,0.002100234022204116,-0.00682431823243224,-0.005142354789761478,1.46
-0.10318270818300201,0.14629181925942414,9.828573055704922,0.003754782202999857,-0.01527264579708525,0.006441937124395126,1.47
-0.1713081860476346,0.040162252512063734,9.772386773337802,-0.001777516180738074,-0.0005665456196801327,-0.0010416885687315372,1.48
0.11493627511647922,-0.04712106177731213,9.848215898009508,-0.0032154654402324597,-0.018454240292057545,0.0001357876378186491,1.49
-0.10745012134722337,-0.032232147461082376,9.732684190560914,0.010068583625088098,-0.009303180780655272,-0.0027235726031140527,1.5
-0.10250518855960765,-0.005038863027422561,9.97602459691478,-0.015050901865688804,-0.002418445710507574,0.016740027800471975,1.51
0.03963910653994228,0.0038732702173886802,9.778122873088634,0.003334882724020516,0.007336919759699697,0.012812896934712985,1.52
0.10958790094349709,-0.05911456151457531,9.773195010239816,0.011445616254588634,-0.0020420619512727537,-0.005286816394267417,1.53
-0.15245029509756378,0.050817544786235104,9.718753211469304,-0.01649812384622678,-0.0073202196885254235,-0.003864487040732002,1.54
0.17662189457154284,-0.3384104639858778,9.906284947390478,-6.672239844036346e-05,0.001480582362789227,0.01082292341710438,1.55
0.15886380580994885,-0.09933688243477999,9.697123884340785,0.01829545655385005,0.006072482668916318,-0.014333196786542275,1.56
0.12878256344667546,0.032135163315227804,9.678513517315363,-0.0017830566355809228,0.015494352880938247,0.005651781321595622,1.57
-0.012001542694211016,0.14798179148050902,9.860319516259118,-0.0011860444320204114,-0.0028663465155659568,0.008939004067177118,1.58
0.006924515474733187,-0.016299437014626158,9.678085567783748,0.006218531201644358,-0.0030529623636833254,-0.0172460548185714,1.59
0.02291336848242696,0.022401532141113754,9.857795687486801,-0.02542236204187431,-0.006515350734825995,-0.009022953791467446,1.6
0.10680142439091525,-0.08032687412815544,9.713273401904416,0.0026941538686767286,-0.0011359919137761724,-0.01678063997293565,1.61
-0.1703515504696466,0.06925592615678715,9.896474668994669,-0.00613766493195405,0.003770578134952102,0.011817922625974468,1.62
0.11444620088777185,-0.07548243697560046,9.804214725136315,0.01234505805401972,0.006763813912758932,0.011009613041299373,1.6300000000000001
0.028839213748347532,-0.16440041930109678,9.797549050561253,0.0009923577954623686,0.012243312424560147,-0.01060044017344332,1.6400000000000001
-0.08377897322075738,-0.1212611436702573,9.78864306187343,-0.0005509038139809094,0.003641855058959379,0.004776036066959716,1.6500000000000001
-0.13013753892304894,0.008997729907818731,10.08820926639863,-0.01669333070787924,-0.010380773135417038,-0.01672188224498359,1.6600000000000001
0.062143306844446834,0.041190293464492794,9.707907219615446,0.007495268759425986,0.003599489524381745,-0.012159247908121852,1.67
-0.03302311377721025,-0.0494408956766094,9.982153345329262,0.0010068058630443523,0.0022456419845566676,0.008021104238298379,1.68
0.06625301572386498,-0.14086554439642665,9.75842879796245,0.002089637095766576,0.0018521360665924717,-0.002445517163741939,1.69
-0.14830364876780366,-0.2562662388809573,9.661472520314984,0.008946882919108518,-0.009601836492923217,-0.011386585805533868,1.7
0.016766271673261873,-0.06278237647680596,9.875303655186684,-0.011135692055800304,0.008908838745412019,-0.018690158586154165,1.71
-0.02152061914452289,0.07343401827224554,9.753475835266208,0.011510379752720375,0.006136094765183555,0.008520329745771906,1.72
-0.04328865408683068,0.1460781506255199,9.693715667699175,0.00044448525976674197,0.013584119932820698,-0.007420382702878351,1.73
0.14396668223656794,-0.12163519316312668,9.82607693550219,-0.003364496169961161,0.0072757626992647284,0.002562327427856673,1.74
0.13862445412856111,0.08636393639999866,9.827515205091267,-0.003093343466012529,0.003955563559599491,-0.0007266197565244252,1.75
0.010936351174189925,-0.014193679593746478,9.859670691231159,0.0066625365249748415,0.012466718499744367,-0.012617644033358568,1.76
-0.0718930709423989,-0.027195877976054147,9.803621403558285,0.004555362533265858,-0.012065519139987997,-0.011156484364233466,1.77
0.1284228640015646,-0.015017114695951461,9.674576773096783,0.012475717658533588,-0.013485617598482278,-0.004834303221195606,1.78
-0.05943295864657708,-0.020200840519259182,9.76483785479689,-0.0038371633886147183,0.0136537676243736,-0.023598010504371242,1.79
-0.054037205715609285,-0.0010818254768333894,9.770965384443004,0.006893199976654768,0.0032201872029299933,0.005434311576297915,1.8
0.02460605312167766,0.05445017230378425,9.784015407328752,0.0014387652629403618,-0.010888300189038308,0.0015880898998007523,1.81
0.03321047325052453,-0.05567349227726664,9.753169163287806,0.006298216563595616,0.014344442478167765,-0.002345242888115909,1.82
-0.0312249581437785,-0.1041037566476434,9.767519759566222,-0.0105802366603127,-0.00504849674961106,0.0019479158550514278,1.83
0.0825368459696612,-0.07707426563108699,9.691904465225605,0.009221638178836792,-0.00040317468119196515,0.017979600770719164,1.84
0.020861259146115845,-0.03371219030934558,9.881242095635073,-0.0030676061721294956,0.010125949402033974,-0.003545282692931801,1.85
-0.004916882959862669,0.18904189810749686,10.00710711311151,-0.0009450180665301022,0.006470267226770525,-0.015537612930056293,1.86
-0.16903184231701407,0.19991090835894276,9.982663211049594,0.0007299427384492753,-0.002007334184750589,0.0015585126720281325,1.87
-0.019182495889744498,0.08529241884990568,9.811728658857435,-0.0015681606748886208,0.005629735185742074,-0.007008983753949481,1.8800000000000001
0.06292596935495463,-0.18160936654847712,9.76454353813891,0.025036033321298477,0.0013062508484381348,-0.023293902471977563,1.8900000000000001
-0.10305710375949884,0.26564388548621676,10.14880747243104,0.0040173724065081145,0.008827239761191971,0.013876271143010778,1.9000000000000001
0.0018700730653763654,0.010248863130969385,9.861896518755607,0.017355629027765832,0.007212085934889302,-0.0068419267379235486,1.9100000000000001
0.03076044860585474,-0.09869990640587654,9.792332719213892,0.0033305557636450402,-0.020620376437702443,-0.009742486138181659,1.92
0.07006329425398622,0.042013063743742425,9.88096920877262,-0.019135176861011273,0.002968494900932785,0.014208582104794651,1.93
-0.0808301521039027,0.09296841137779356,9.705035044669089,-0.008617781665743472,0.0046856849835581185,-0.003559950251148317,1.94
-0.003481442557538682,0.04466857849685348,9.851184422367101,0.005619342459977473,-0.003092642668841384,0.0061146823478669555,1.95
-0.027045305520211577,-0.1437870492658153,9.78030124895944,0.00969324751505202,-0.032393848136108835,0.008286654054888758,1.96
-0.15385270663184822,0.10903526412009346,9.84649545980146,0.018452561214634434,0.018879788969645272,0.011424576877209856,1.97
-0.07745882731912848,0.05818315515423468,9.770520370243483,-0.022606132528682328,-4.3730042347887034e-05,0.0043803826539424145,1.98
-0.2250455000809391,-0.03297687302841623,9.711727086718966,0.01320282817856295,-0.0010664842554489581,-0.0022226544371088744,1.99
-0.009846973503606547,-0.13005544445623457,9.726932211642227,0.005063975793115033,-0.0018055994691011943,0.0017830999195566559,2.0
-0.21658235105105128,0.11913427394355498,9.773427377036766,0.00077177169367257,0.029586332899788185,-0.0042313718024759115,2.0100000000000002
0.013054358196389974,-0.03678934327757261,9.7596772145843,0.005988829401795947,-0.005133660363972383,-0.007202767878022419,2.02
0.12102972305729597,-0.0776570685718155,9.786488380521568,0.025334932050898623,0.0025190267975166458,0.0054747251287022534,2.0300000000000002
-0.059737927583911325,-0.05485419931569063,9.987823713157024,-0.01945364478186142,-0.002811597327106505,-0.011853839732469854,2.04
-0.25365547927509974,0.06204453769003369,9.800467854320278,0.013766254285472882,-0.0003234743125466584,-0.002194261138328082,2.05
0.06414473570447647,0.15972748009720347,9.760184451413162,0.019183646673028916,0.010135708596082166,0.0025562676100268668,2.06
-0.06328076811133587,0.05609699963402518,9.686333373229104,-0.016065683756460846,-0.004176494138101619,-0.007171832950987108,2.07
0.10326512108106574,-0.04548677390428063,9.678125583346388,0.0015665516419568002,-0.021397172988556635,-0.01264732587111416,2.08
-0.035625362491528256,0.12285201827093473,9.885707263326417,-0.011626472847045455,-0.004495259554093771,0.01300428195016381,2.09
0.15152901474972058,-0.0384493121875333,9.728911630755768,-0.006267668673373875,-0.0004929586217331066,-0.018251901196746002,2.1
0.04243336410047758,0.03376545349163781,9.81149695087223,0.0014852930272594095,-0.00795369385676853,0.0021580924018393005,2.11
0.06877637506982213,-0.14951054817323692,9.633940217322072,0.007138483892803959,-0.007708350132289696,0.009821404519451123,2.12
0.12825799095208762,0.11146622321175303,9.915513427168502,-0.012280314981565286,0.004273819435149375,-0.0009005893448703129,2.13
0.008019791354457682,-0.09017334917665498,9.902586708420593,0.026146775783398822,-0.0016635833558485138,0.012868201223180331,2.14
0.045654255798455355,0.03279868407186781,9.909807619221324,-0.004356277884926061,0.009889500585384183,0.00680383375388693,2.15
0.12181988940960327,-0.12962322957780217,9.664154246430606,-0.0028586544775685693,0.013659476239019789,-0.011556940136930895,2.16
0.07771627846201053,0.0324217426678624,9.887401301191868,0.0003302175472370629,0.008744412967720796,0.012498471025519625,2.17
-0.1697079520344194,-0.20583818476384025,10.057014208136271,-0.00916307764958867,-0.003844700938898812,0.0054779623800885096,2.18
-0.05841805873452856,0.1323886066857751,9.726676911098386,-0.0010471763284670536,0.004928951701779581,0.0036741889520616705,2.19
-0.29858493850609064,0.07571405661607072,9.970442523517104,-0.019034649814210502,0.0050991474937114095,0.0023203050046902173,2.2
0.03675836501887338,0.1582408398689722,9.852544547885076,-0.007784492352458339,-0.016646827908418947,0.0027841634984579213,2.21
0.019781580674449933,0.07814026235967257,9.735297507475787,0.009524012102811417,0.0051461617476640025,-0.0049703348582666295,2.22
-0.1970498087307908,-0.0778696695450851,9.849353303034256,-0.010943664425236475,0.013236062006593483,-0.003682619298576229,2.23
-0.058473647860201254,0.045162995314648346,9.704696710654225,-0.009710281348747752,-0.007462346402031261,-0.004170630390187953,2.24
0.026170972414162625,0.19289110096116147,9.76704603787352,0.005958473419240261,-0.005570967189051144,0.011639620710008944,2.25
-0.20372684677742026,0.13940288137930867,9.833805744597784,-0.014459695239605748,0.014101295507980243,-0.014576603461081862,2.2600000000000002
0.12240280742435682,0.08063027853855165,9.688082424018559,0.013657978891191669,-0.01088625478358956,0.011662924084525447,2.27
0.17822358948887373,0.022382731953778864,9.843618009694977,0.0014244277468585791,-0.00567184781315837,0.020061959855800553,2.2800000000000002
0.03185622255074796,0.04912046040370721,9.854811455382174,0.006410876872602014,0.0021584748275842755,-0.0035616933369014836,2.29
0.03615545009931128,-0.013431939532650566,9.785643226095255,-0.001992663492581438,0.003497253695558315,-0.016877002399893464,2.3000000000000003
-0.1042154933077859,0.24410913719007496,9.652149448255196,-0.004161644815752055,0.009362986839441397,-0.0007040129945366003,2.31
-0.0028949723835018136,0.07002254424169739,9.792592116472013,-0.01681343144688948,0.00795017330996895,0.0008326320832465323,2.32
0.18474696022292747,0.11422827282363684,9.795617166551734,-0.005243257683578366,-0.013954009673037435,-0.002334081316768088,2.33
-0.07677276773458014,0.01014495576518476,9.843876241824601,0.02035547830987429,-0.0147891296412262,0.004812593808811459,2.34
-0.08667510570027705,-0.0036164794018731963,10.001817417806034,0.004261185933853754,-0.005570139404408988,-0.006314007510193949,2.35
-0.09221773960799146,0.09881067844425417,9.685782444282415,-0.0027643981703772548,-0.010071168971342883,0.002827986187098365,2.36
-0.063270909692546,-0.03630649603760123,9.75758813648763,-0.010666156865053735,-0.008593603401576957,-0.011710194960246001,2.37
-0.03631708152399981,-0.07868738275108271,9.945067675801825,-0.01133878951166535,0.015040513136607201,0.007649125714828803,2.38
-0.13420731021475726,-0.06942288596747417,9.898570066919207,0.003184007368100042,-0.003987474386458215,0.006362261955097648,2.39
0.17519858996395898,-0.12209757546043881,9.898125709817144,-0.00976520421441766,0.003692100538423908,-0.0030302306445856744,2.4
0.09699976923324602,-0.06515204876780867,9.961226919252262,0.0035276753322812365,-0.0019442712417138011,-0.010324025209846014,2.41
0.05279260337315542,-0.01569680691498317,9.753863470503743,0.004824197322327602,-0.017586349262179855,-9.864160325545859e-05,2.42
0.08897321011770695,0.02614309053300124,9.73206849699971,0.0007094292512789315,-0.0028489922081846577,-0.007102341844508518,2.43
0.10942395685661091,0.0853299217639982,9.70789090259977,-0.0024081872751428976,-0.002647869809307204,0.0003289853759608917,2.44
-0.07814900425026115,-0.10530176618991344,9.778969314028732,-0.002643236790444385,-0.003895106268041078,-0.011786026973447855,2.45
0.13729075857087855,0.08167247153549084,9.655937694154987,0.003865236026482265,0.009456509702786352,-0.006968224282624379,2.46
0.013669186180070847,-0.03726946049071404,9.628260673875904,0.019446941129642667,0.009403177917635758,0.017868290835067482,2.47
-0.023746936213083176,0.009509223823385517,9.70554330821064,-0.0007573626343368141,0.016982064630647255,-0.011010569073685795,2.48
-0.13623430946342915,0.06933921882590104,9.821476938962595,-0.011489596420344968,0.008749180414014117,0.003389915867917184,2.49
0.026775703717337458,0.12020348155406091,9.811926070378433,0.012091469388538341,-0.009594567353823283,0.011577964970632168,2.5
-0.15365526678490124,0.013725094054454795,9.838633009625406,-0.02048364546557516,-0.0063609455611098155,0.0008005590047916946,2.5100000000000002
0.07744264346715792,0.01601179770066513,9.733940066584466,0.023968876372425785,0.0010718552499761813,0.0010411607355601095,2.52
-0.17301808097207041,0.09146463710315553,9.784825646422862,0.010148664801979058,-0.014921896254137383,-0.01637393363550081,2.5300000000000002
0.03184133297995339,-0.006431992621219918,9.917179086503197,-0.026190567538488356,0.008720453096417826,0.0041450007162766,2.54
-0.06142786779438297,0.039079697496805156,9.83777090487302,-0.005826462638668696,-0.007281389940260044,0.00674751772770505,2.5500000000000003
-0.01810954711628415,0.022779416137175934,9.671974690991048,0.001327091596460302,0.0038490303995719665,0.0033719049629276,2.56
0.05919365566096912,-0.08419058087678014,9.74115745285592,0.00831354112004795,-0.005008983387289285,0.011356091179702352,2.57
-0.044092374095239854,0.05698733902407926,9.828929249246725,-0.0016907365292106952,-0.021715847423259917,-0.019452526724124567,2.58
0.07453391243419437,0.13123061954305534,9.855729115543754,0.003757938190942622,0.012470957185614504,-0.006942703993943635,2.59
0.008685813172613566,-0.17121349828165452,9.939937874894198,-0.015036633870667143,0.011989766698624893,0.0075475386998800475,2.6
0.0404920846711915,-0.062377185727267206,10.134632963733319,0.026622876949364712,0.008009310561674527,0.0020242727748872396,2.61
0.06718402619519916,-0.1176800611651415,9.712836474098822,0.01916736853002892,0.010460880787168909,0.009546771786141377,2.62
-0.03353381901326132,0.0810731385011666,10.017135765802637,-0.0026651245657566187,-0.013765613734872362,-0.005058966034833984,2.63
0.0051272135703173405,0.053728511232715215,9.8763511285053,0.012408841494423879,-0.0162395595817548,0.0017691508104753274,2.64
-0.07488005639000544,-0.10004920348616633,9.834133110206631,0.012929372475436116,0.012973584500833342,0.020072293986766146,2.65
0.00666813597723696,-0.07581000537613476,9.749990049505634,0.008329159406310724,0.0018438518478497102,0.002854766245574873,2.66
0.07792244493780465,-0.04647366764386132,9.905152135702926,0.003556904487055393,0.009323500041410027,0.011351529396738978,2.67
-0.10245136202027832,0.021553568769211825,9.782684788399592,-0.014612262125217186,0.0061628744658285715,-0.016340880772677195,2.68
0.1509575664277286,-0.06154982628294417,9.764581694189939,-0.003263093276190602,-0.006643660731228962,0.009315230340785567,2.69
0.06913631420642373,-0.0025198308122687703,9.73589545473019,0.013283432477854094,-0.01847239792940157,0.0002617819848156409,2.7
0.06729790978922237,-0.08265938135258859,9.82746350243983,-0.0024724628228830034,0.0007682250550011676,0.012464773198503204,2.71
-0.20572469839280041,-0.06528881457568832,9.95071090133311,-0.0011071067331912083,-0.010977760212653122,0.013311596554096996,2.72
0.03079424431425073,-0.003539175600041546,9.68076906917192,0.011828191147906763,0.0016748698457897924,-0.0002342557287801308,2.73
0.055805575835365766,0.25968117047231215,9.652106740588746,0.008287480876862716,-0.003988196642052267,0.009988277545044817,2.74
0.009203538919322109,-0.016357749834185094,9.811936383310481,-0.004475329461657946,-0.006029941473453546,0.004225582644134539,2.75
-0.10322522470008258,-0.013684604341454194,9.892527236381712,-0.0075731834502739985,-0.006774577818072541,0.001574233949295577,2.7600000000000002
-0.13517746648307746,0.004718384054285629,9.914165137503229,-0.008972382726054636,0.002090160291368321,0.004679552768127668,2.77
0.05106815582747486,0.05457262317195737,9.977706660263912,-0.012944288507830408,-0.007691534743452271,0.007224417411431486,2.7800000000000002
0.047749892557889695,0.14167318283546526,9.816083007531285,-0.0036487600771698543,-0.0049803444114319695,0.0043707078828895945,2.79
0.0475741177206985,0.18292764023917055,9.712521441596731,-0.01759690425748464,0.01751424859059469,-0.0020928956171528392,2.8000000000000003
0.0887382469171548,-0.07506854931992497,10.010250825511948,0.014826296750791593,-0.0015629940939455437,-0.010801635483594495,2.81
-0.10355974006291438,-0.05356998290458048,9.854537132353808,-0.0025024526830313486,0.007144402920178213,-0.0023135079420444358,2.82
0.10137163151988658,0.14220184912223552,9.847867825469837,-0.0009056499257055671,0.009140558037968873,0.0004000357606525717,2.83
-0.03198604286559203,-0.12080578798527367,9.830866649830945,0.0003363495603158819,-0.000504824901210835,0.01263624615370014,2.84
-0.10296215284109728,0.004498024796645129,9.88182745654792,-0.004323739026321233,-0.005138560016713822,0.0036544187809494704,2.85
-0.10642322963473934,-0.18313780102661764,10.001993777281065,0.024229038938522303,-0.008402100710968868,0.010283405788172658,2.86
-0.07214974034327809,-0.07110744064636387,9.933962110983911,0.018928446175097435,0.004739956315216522,-0.007161539729852441,2.87
0.03753811610551625,-0.0006606879448979198,9.760025920446612,0.010179299624584972,-0.02534743098795144,-0.021297881754146212,2.88
-0.10686498994182808,0.06564041194417783,9.79179108992249,0.007021248706298925,-0.01142398966065728,-0.0017684279740342499,2.89
0.15959470192785383,-0.1217090068337729,9.840550966363805,-0.018783234104302313,0.005811362717652159,-0.010708242224590348,2.9
-0.001378062628656925,0.07840303475374216,9.860963154180675,-0.0006093078070249644,-0.00020089736148798675,0.005695057550537908,2.91
0.0985741804537613,-0.1133048448428202,9.56278497260716,0.0036285083583909657,-0.001988518470149408,0.0004805037959134877,2.92
-0.048661443925495845,0.038641839750376675,9.821588279005534,0.0008206732188279161,-0.015612581583749873,0.00782245727568518,2.93
-0.1443548831499206,-0.02528722120723936,9.844151111268687,0.0039116767142964165,0.004417665604279427,0.00737416129905499,2.94
-0.08618276996768531,-0.017962203898900707,9.775446515012817,-0.0036541915804028965,-0.0035283912441091306,-0.022595182092627113,2.95
-0.04422789346386462,-0.07181259635018859,9.932757563388051,0.004754167815496791,0.012566825628440189,0.0022029483921060366,2.96
-0.008563648221671097,0.15418392507506132,9.681675522508973,0.005077676807015529,-0.006646321386606745,0.00870825594000584,2.97
0.050834408835961825,0.08523220696521887,9.920190659628794,-0.012426151178324905,-0.012628939939411603,-0.007411863424025501,2.98
0.04301469719159834,0.0029526949174692994,9.581311911038291,0.0006221805790339054,0.007559123975052501,0.0002032275961245197,2.99
0.11892784365897187,0.11245421099183595,9.781776929982035,0.0032255793813274636,-0.007703727145182034,-0.003073847808014919,3.0
-0.21644649761713397,-0.02078427743754471,9.860996554878515,0.0069700793719940785,-0.0074102819001347665,-0.0009995441110458678,3.0100000000000002
0.0012418752892329802,0.1252937331019288,9.976005362305338,-0.017407132099420575,0.008058359712544096,0.00016975326233689168,3.02
-0.052020697864357535,-0.0902982718040124,9.794154255213236,-0.004107842544174073,-0.0023253651452230565,0.015930010589203236,3.0300000000000002
-0.02219809891483737,0.1137969767180876,9.820604267795566,0.00128495693967111,0.007990337887822602,-0.006610266121187928,3.04
0.0057392549817976545,0.1383037752518192,9.89328749205539,-0.005741176215510957,-0.0035578608827352104,0.00915811929396576,3.0500000000000003
-0.12422770531747092,0.04880370885686499,9.882195672854095,0.0035984758641502013,0.01219374826817569,0.0018861921225834047,3.06
-0.04920887064125833,0.013306381094680986,9.898946063259922,0.012042465330156689,-0.00010938793986540466,0.005740426661047067,3.0700000000000003
0.0661279760248548,-0.17196506436130826,10.004738428868599,0.013820702647256327,-0.00023990221722026937,0.008279312339634906,3.08
-0.08234706869352211,-0.02096534823546879,9.944702957804308,0.005057769656545517,0.006636637584335291,-0.007483231176227709,3.09
-0.12870646666075633,0.03766692144897689,9.895079143067811,0.005583893660953071,0.021509675121118073,-0.01122042981005005,3.1
0.023705162411544866,-0.005728518804795957,9.832424905974548,0.002938279073554123,-0.013275138054304478,0.011732539382498179,3.11
0.08628156269751229,-0.10058258830036221,9.784388766677216,0.009054789176664163,0.002922618907007915,-0.013280012756808226,3.12
0.003678138406697112,-0.04458947224352888,9.884837946574594,0.010331000248515647,-0.002699749314102016,0.004555709077900619,3.13
-0.17578303108805204,0.07682528905737658,9.820568856908745,0.017723836621261636,-0.009390735079694403,0.0001054768093154066,3.14
-0.02272769146120895,-0.0023330940083309817,9.798718106538145,0.013109477111508446,0.005196422478219074,0.008675897482286303,3.15
0.03475067862195035,-0.11678000785422094,9.68511293841582,-0.004812032294313148,-0.007679661506546546,0.016644491805707446,3.16
0.10836615099327725,0.229840431893125,9.897369652085938,0.007217789414501279,-0.00037864043016198613,0.006768500585237432,3.17
0.09903264968976294,-0.2504943028552747,9.837220124008509,0.003051439273579737,-0.004757937607414543,0.006929179453021956,3.18
0.004406949540227387,0.028729552165340747,9.725081474214738,0.007446845395364577,-0.0069837788394887515,0.016598201036441943,3.19
-0.0819503151008743,0.09636844660055545,9.828272323068267,0.0030103356562221945,0.006530926548479638,-0.0011475319053206158,3.2
0.041984236045248466,0.058349458148825174,9.801702801075136,0.015263485639578116,0.0030505755595575876,0.010151492283243786,3.21
0.0316868482774532,0.12541521315309465,9.797708548668053,-0.004264931013765937,0.0036973465290266795,-0.0061746491906784886,3.22
-0.05984266733297795,0.02117516878878221,9.689425854539374,0.002251517265918624,-0.007601679101939094,-0.008040419629593506,3.23
-0.05099729705374859,-0.04869438835590141,9.765506248607576,0.0033176250494073656,0.002741790215861963,0.008628951694517885,3.24
0.04019435429576673,-0.19940349317886974,9.874380228825252,-0.011065805627571338,-0.004416567701674771,-0.02289171821436832,3.25
-0.058569449462459705,-0.07052063169281013,9.795336214533311,0.012317027342236954,-0.007757597581322538,0.00011959439453935897,3.2600000000000002
-0.007123915739892135,-0.015343292031179965,9.675678066015358,0.008088598920173806,-0.008644490320109489,-0.0008923539721384416,3.27
0.007509516559279599,-0.09570587902448402,9.953933114289612,-0.023591135812455356,0.023478460269213755,-0.011395802676526363,3.2800000000000002
-0.00691382683573988,0.03100935501226508,9.730294658410045,-0.007687837524292548,-0.017677523126085323,0.009123621867602306,3.29
0.005834990489929654,-0.1607693888154402,9.568150507427024,-0.0014162098297818939,-0.014699574108670031,0.009666388856214793,3.3000000000000003
0.04253281191873145,-0.13450346494973525,9.764283271736728,0.007043310304128801,-0.008812092730609854,-0.008361965647683281,3.31
-0.07491800471517793,0.019855816805212874,9.853524647180597,0.009675423710362417,0.015514633043429094,0.009326023690693179,3.3200000000000003
-0.19953847187651097,-0.013455518893306912,9.791705779779882,0.015184058119256015,0.002107699918141202,-0.0265443938654798,3.33
-0.11933396083017243,-0.1151549788690768,9.887846193329704,-0.004858562760189232,0.007691647932541816,-0.005531870689583539,3.34
0.06818186330236436,0.10869993790930746,9.71396967712042,0.003963682903882348,-0.0016361771257770575,0.0006806660401785539,3.35
0.04123823120759704,-0.015771730273087925,9.756851602483835,-0.007882796965187833,-0.0035325299685268277,0.0069311158226605446,3.36
0.0006290082436138727,-0.02132359024889334,9.84339548171479,0.01591942060079189,0.011402249142391812,-0.008134717475077814,3.37
-0.16824792922360418,-0.005281406403861398,9.671748925082767,0.0005286346338322086,-0.008369611611508438,0.019113309252117596,3.38
-0.006184002860097147,-0.1644382326062641,9.785820575005419,-0.0071068649295847035,-0.013847784342413086,-0.01085138244917961,3.39
0.0668289859660806,-0.052899183596036084,9.84906621302903,0.009811057627281124,0.006007534592158509,-0.010775819840588206,3.4
0.0841015660251165,0.16073947862404556,9.765433664779373,0.014223922025117339,0.0016261027174693035,0.002907689769006422,3.41
0.006378870765358365,-0.05159317672671596,9.713013318251676,0.0022425172116791385,-0.005407177185959355,0.006829256136794909,3.42
0.16420254050595662,-0.15222383737330966,9.944418042849613,0.0022103992406634545,0.0008044408059964804,-0.006294928540752702,3.43
0.0497634149666982,0.10812990212524948,9.739793441477405,-0.003055053865136166,-0.006183125774134062,0.005538094858943798,3.44
-0.0008664723589858856,-0.1372357335540891,9.769580401348408,0.0023768871627636314,-0.0019435179242270153,0.0069937843089310425,3.45
0.08858418832275239,-0.0720483762295584,9.698437529046481,-0.0007162972910277836,0.00395717771397809,0.0031475239653493536,3.46
0.056852166843869525,0.0923463577128905,9.962538895111445,-0.018353446505192442,0.0033193068589796016,0.007222213381943201,3.47
0.07197165161804352,-0.08477667746049844,9.932669971636198,-0.008972611848313494,0.017102657879038242,-0.004515758018149198,3.48
-0.11289256301288275,0.11052992874654984,9.790204696685823,-0.0006277111071043418,-0.001694982574802034,0.007164613827047814,3.49
0.06320500020996052,0.04698189411531022,9.876967338479883,0.012638290583796084,-0.00134578539855675,0.0025291517196185808,3.5
-0.03256854739556466,0.0938135328588468,9.858831752591767,-0.00701851884992121,-0.009548688628289196,-0.002160135622512883,3.5100000000000002
0.14096973170367708,-0.19821181475159724,9.989699234429345,-0.001018824399452159,-0.0018592644235328856,0.002508191119303818,3.52
-0.07808553779577385,0.15489983145845146,9.757200314030342,0.016469100376364745,-0.009495715043053623,0.004224491758409602,3.5300000000000002
0.22338958476324625,-0.035864421640415096,9.80122813083632,-0.008478028370972885,0.006651989041613097,-0.010490371122116786,3.54
-0.012479778299227291,-0.12874952526025182,9.916318793334717,-0.011752837608429418,-0.005900437450514515,-0.00914189809727976,3.5500000000000003
-0.07536149079371199,-0.01890884947987792,9.755257421068368,-0.002636406585426625,0.005700702631905064,-0.014324195523588972,3.56
0.10808174693684797,-0.06536927450422231,9.793225895418892,0.020452977051421455,0.010883091087631204,0.027009506611201894,3.5700000000000003
-0.21695272000029442,0.056074219345351894,9.639447760322534,0.008893340829603266,0.007152510975749834,0.021150298302732164,3.58
-0.2084799578608748,0.023613099185764957,9.59390658282382,-0.011627514157411225,0.0011553700634712371,0.013891875799421983,3.59
-0.12818860189477396,0.057630632160057385,9.754358051165504,-0.006128711072691385,-0.004054450679029268,-0.011164868767622054,3.6
-0.10029169464660888,0.001841971124829417,9.849533762793723,-0.004010593092402943,0.002304879059382832,-0.017409667604485327,3.61
-0.09830088843801921,0.1251142727782351,9.879464609349519,-0.002068387013720977,0.021773790850351547,-0.0014165846577278754,3.62
0.004335118018465988,0.05572588081174848,9.738471706977425,0.00010866533055938113,0.0009500168156429471,-0.016241213235513297,3.63
0.034148937183830386,-0.11882530890902093,9.737215251555137,0.002060489104202682,-0.0024456083560598614,0.007997668599934712,3.64
0.11107271075223035,0.03750223921763356,9.983308074496192,-0.012510472703755132,-0.007119166322242981,0.010294377187768374,3.65
0.16225109492951365,-0.1061092985823242,9.70439184255182,0.002840896146552464,0.006702483184476761,0.003865378584915908,3.66
0.18780828659108018,0.01884307558220541,9.864553799358923,-0.0047616618575665424,-0.011618070696013092,-0.0034857013581373144,3.67
0.05431383815076273,-0.10417950860230732,9.778838378596106,0.001122579384227857,0.004611423344516013,-0.015836793426134695,3.68
0.12175787383352464,-0.18463755248748012,9.846932684771811,0.001766391687609868,-0.0008054246183834829,-0.0013446391808292608,3.69
0.13719872818639964,-0.036292466187578594,9.746549619428574,-0.01652766503389663,-0.002398856175350828,-0.011284904541608312,3.7
0.025419619218209025,0.1475378913361976,9.87278446834304,-0.0030031578043350107,-0.0019933627752685497,-0.0032108748014349677,3.71
-0.053210744256650004,0.06413199339281256,9.772803430303917,-0.011618969984114567,0.013469054538178324,-0.0032839676289973018,3.72
0.11908400224858523,0.08101411865178303,9.921502381031313,0.009782645556750475,0.010236848910258145,-0.017158282763700797,3.73
0.0075607139925678,0.13175660019722066,9.67308828564043,0.004831539452496497,0.014961069212109322,-0.011058576065380939,3.74
0.019818064823001604,0.08832129962762672,9.757216773401248,0.0016997738950863617,0.023818620127051684,-0.012424051633900321,3.75
0.08628032775253937,-0.028253706442389906,9.83125649364047,0.016149505756913967,0.006374785293564435,-0.004327951024668142,3.7600000000000002
0.13670790068960345,-0.09724129608467424,9.980814068902122,-0.0003114975822075913,-0.00548854114570523,-0.02152479575500049,3.77
-0.049408114796349434,-0.050269486128248976,9.606515483957315,0.007176642957396252,0.005269810589828561,-0.024201673893601172,3.7800000000000002
-0.08893659207941666,0.042378776757209385,9.918157124252387,-0.0018283778156280431,0.008724396770796922,0.0020933765188021402,3.79
0.0260186821490324,0.00321376011544976,9.710349754046232,-0.0045683676595228455,0.006318215651148543,0.011478453095290012,3.8000000000000003
-0.011514249347407189,-0.03244355566933689,9.709413626348857,-0.0030533720487572968,-0.02247556187661897,0.016020423435189265,3.81
-0.021555325862643998,0.010210513609205983,9.689984793654297,-0.0060489060815751465,0.005546676401711746,-0.004417091648930537,3.8200000000000003
0.07138526875597363,0.03132234702212068,9.844490256966914,-0.0056606062308896185,-0.003228399940262033,-0.011420732730612601,3.83
-0.032718482748271105,-0.17847046601177324,9.7322100284436,0.007121938157565723,0.005691780694586208,-0.018918509613460373,3.84
-0.018206976708723854,-0.1041049991136111,9.881576040774249,-0.005548519500520928,0.0007320349100218622,0.013952364759008075,3.85
0.0432173696861938,0.03887857598548255,9.873861776574808,-0.00413436285750182,-0.009476080824113022,0.008590243276862301,3.86
-0.057458362496995236,0.1723009294833574,9.859782380248863,-0.00037833759568375614,0.011582878379716522,-0.010364187622431482,3.87
-0.01437164510750211,-0.15801978869714045,9.900991225780226,-0.0003985233772683129,0.002945224220301803,-0.020005602220104057,3.88
-0.012217556760866954,-0.12998108352553775,9.754751401165665,0.0009421922193210246,-0.01357041957058159,0.007444120490965682,3.89
0.09390179309785042,0.12031398858592673,9.841160909151396,0.004258461151018927,-0.03127466205538187,0.0018099251510774452,3.9
0.059997150741061114,-0.16942435084581833,9.764420097951458,-0.0035416238948388036,-0.0022314814753815063,0.0034356591680166433,3.91
0.12270089731416489,-0.018383033716577422,9.743928265818486,0.002938126425638559,-0.00832199894163899,-0.0006399437941975981,3.92
-0.08366767117846752,-0.0550358374875835,9.802913635256362,0.01055270488904535,-0.007608661989739954,0.02079157040187951,3.93
-0.12593115744872982,0.20802177166471525,9.91817760088343,0.005626591216548876,0.0020758522000201814,0.005723216097532247,3.94
0.1570900122352081,-0.031004408974825627,9.831450738013285,-0.027585320199515415,-0.002012688196302536,0.0026932586969984455,3.95
-0.18470977319851584,0.02663841646031362,9.901226880953152,0.009080192544808185,-0.01099478036425788,-0.005257382878368353,3.96
-0.00867743416692686,-0.11398822077392512,9.702449702747026,-0.010911364352178135,-0.000730621538007713,-0.022133085083120757,3.97
-0.1178950030341615,-0.1276309944988758,9.840532647538584,-0.0021174679986038754,0.0014637927334181387,0.0031877906941953794,3.98
-0.10173150181452562,-0.06582555716108938,9.777987421227934,0.013672028358522373,-0.009225003989177957,0.0051303090430966656,3.99
-0.20708430420422938,0.14545689907784118,9.816550510196702,0.013832362994860832,0.00017978950799860574,-0.028273821012920072,4.0
0.06457018365710958,-0.13030641647905802,9.97557519797306,0.002602198991058051,-0.011950510083429835,-0.004378814885704221,4.01
0.048858033994245556,-0.1504782200951074,9.704915063527448,-0.0031783369916557475,0.015104082268583901,0.008713757638635687,4.0200000000000005
0.008940637221245086,-0.17344530850823042,9.893646485411075,0.003942053311828721,-0.01422365655958305,-0.009088796733421431,4.03
-0.0023408083301315915,-0.1683141462559468,9.708816461821849,0.003942683932496289,0.0062700797601246425,-0.004205884141237044,4.04
-0.2156276274192359,-0.07623229440581994,9.832422266163414,0.004671872713113563,0.010561907550346139,-0.018152102927208032,4.05
-0.2631001270760023,-0.06779738741571761,9.785638178210991,-0.00875671250486579,-0.002466563124570807,0.009018776980127098,4.0600000000000005
0.031023208611087674,-0.04789641469122899,9.809916919491503,-0.00533568190675462,0.003950738650932645,0.0023608047307543695,4.07
-0.0023617329845445835,0.20692602055157955,9.895900645788034,-0.006597993690097797,0.0016504582479435182,-0.0031323328340159442,4.08
-0.12510954981824504,0.06841483993966209,9.879743701109113,-0.006989581116860858,0.013731513007566327,-0.019561126626344155,4.09
0.1343393713024029,-0.03855842855831983,9.711770626888818,-0.01289106056794358,-0.010897623053515791,-0.0033093240855192876,4.1
0.05219071523915006,-0.01695312361091349,9.738430893360722,-0.010451285921316033,-0.007556023967056234,-0.005458357802440456,4.11
0.01964509465302744,-0.14313059826664487,9.755929958549567,0.013053997146872711,-0.005170642966704164,-0.010366158447021236,4.12
0.04135223898158,-0.04615200693801634,9.873453280793996,-0.00116637220956782,-0.0001331321291590599,-0.014639648335780289,4.13
-0.04591597496150865,-0.09460410949791254,9.851836656809079,-0.0017803575635751917,0.0017381199785733898,0.016193633355393505,4.14
-0.12893761384024166,0.11491106651833512,9.93853827502079,0.00456999234056643,-0.003985914632549897,0.008017712847723605,4.15
0.027033749931607093,-0.04601341713101331,9.905201278272255,-0.001570933655212821,-0.005828925917635851,-0.0057734215413639415,4.16
-0.16701096909433705,0.12005205065573865,9.712090658012636,0.006472273489969996,-0.019734368211799108,-0.006113719807342245,4.17
-0.05558601752323289,0.08964230389177835,9.944977345629164,-0.0020585758722598316,0.020279696468331644,-0.02203294085576769,4.18
-0.09467956726982339,-0.109549527778383,9.814507625910919,0.007334022372016023,-0.0005031899100101853,0.003988990318004771,4.19
0.1272383578524167,-0.11385344980708419,9.704761428798106,-0.021722399705334145,-0.0004867967746331284,-0.010939915754030973,4.2
0.03812275346679842,-0.008680325639076177,9.780432715107791,-0.016721736703048568,-0.0021487440806680796,-0.017415955553515283,4.21
0.04726815852325071,0.0926374897887025,9.895206025428436,-0.004435469188907441,-0.0034281474954504804,-0.008534855001512005,4.22
0.016379395424200673,-0.10177513123475879,9.753717646057689,0.012234220307048453,-0.012744651458002212,0.01659599655978145,4.23
-0.16799544074651618,0.2163029789985149,9.833207627581968,-0.009183952869660695,0.006266045823673908,0.004306809476065752,4.24
-0.002707277027970203,-0.008773626286332046,9.858312499579363,0.01991113900401808,-0.0013125214414676412,-0.0011583615459518134,4.25
-0.013692093032802721,-0.12065720599040729,9.722922170273085,-0.003010709554848169,0.008244624002624105,-0.001028129584516215,4.26
-0.20372318029630887,-0.041205016200213884,9.796321025882143,0.0012040473004387095,-0.0036480072070079993,-0.01690090608082666,4.2700000000000005
-0.001711855116998339,0.018303306891704667,9.936416926751926,-0.002966150565586166,-0.004105770831983052,0.0045605003186847265,4.28
-0.06379575205099174,0.1481397459242664,9.822027918529892,0.005547792475528237,-0.01416684275143167,0.003334349120029266,4.29
-0.00148536206152538,0.011667833343251605,9.819934933447952,0.013222120209398202,0.014167862941812983,-0.005213159685207708,4.3
-0.11455673418121054,-0.01460116850985993,9.73143663507261,-0.01961222781016494,-0.008672767114931843,0.011788333459415804,4.3100000000000005
0.09737109215334933,0.025765810400413005,9.942532968514254,0.015646274279700563,-0.013390958294344153,0.009334879852016023,4.32
-0.03413682957129735,-0.07124304095397925,9.828184069958825,-0.0031358302456018228,0.01291154962373748,-0.028884581934558957,4.33
-0.01386787772494115,-0.09149327436855764,9.645054539180071,0.007494978083097731,0.010020798735188586,0.004988726122576662,4.34
0.04193218163774982,0.026836011260319665,9.688180188469058,0.008814069579021424,0.006946742181614054,0.005434694547234442,4.3500000000000005
0.045503618597744294,-0.012648259932162828,9.90766984989438,0.00908371430621772,-0.011163117633950533,0.01003717440408356,4.36
0.054374182467802804,0.14200742144069256,9.829797643089424,0.005461105617660932,-0.008138019735479124,0.016346131536864823,4.37
-0.1466082549104722,-0.08567677308781846,9.760882685354074,-0.006323687268861293,-0.003828824699903907,-0.016205918903685685,4.38
-0.10650168325425705,0.07425288270940009,9.973400325050866,0.00643782573415225,0.011830453428630157,-0.013469012382803828,4.39
0.004537271968451796,0.1323535390304331,9.864605780007336,0.002656334465606174,0.012829040513891471,-0.0215778132811254,4.4
0.04227667691725074,0.009477098298337528,9.639040836899085,0.00545239884048236,-0.007406376331279964,0.015399158024280562,4.41
-0.009803973511435497,-0.1088712465518693,9.792956234323228,0.013831499853540628,-0.0017740758655943349,-0.015591153452623808,4.42
0.10038091632667756,0.04372694968539099,9.886419726840758,-0.0015871084673778416,0.03331669557090795,0.00031899702471721087,4.43
0.2174236805205271,-0.006300887148161314,9.936594894322928,-0.008136377122121449,9.585876437749834e-05,-0.004667690813055696,4.44
0.04101186770023643,-0.1375768692306913,9.705953410709446,-0.0029083247835273995,-0.0051490811319133915,0.0035314564865989036,4.45
-0.05786455211058333,-0.07968666522871307,9.824378225796792,0.007199127605081844,-0.006785022291810656,0.0119965455824526,4.46
0.0024743992047016297,0.07294593822614483,9.742084110802509,-0.008851761782394349,0.011921386007890476,0.013785548933872096,4.47
-0.0977899705878953,0.0930131164271452,10.008630234042576,-0.012501733888328832,-0.011173109854228527,-0.0020604698945236167,4.48
-0.17485182727794923,-0.152855714408393,9.860084941019048,0.000943081630764495,0.006620495595332092,0.017584506988351966,4.49
0.06694832908612676,-0.08882743562887757,9.853504052254818,0.006620975759120653,0.018672485117930654,-0.0026341977687983804,4.5
-0.04152715599777708,-0.0973528777862912,9.822988397434628,0.0053986291827550935,0.0015551393750828494,0.0016134680778031318,4.51
-0.11706529486571021,-0.055200458047049365,9.907256736413661,-0.0010996485301897438,0.0024788056623954655,0.0020206324902587508,4.5200000000000005
-0.03205778659324263,-0.05516872381684895,9.786809795545851,0.007253116839786319,0.007700432217800689,0.004667136306872413,4.53
-0.11667016201178396,-0.007659253920127069,9.900000431322441,0.003812626909627726,-0.003969219237233337,0.031245119964708638,4.54
-0.051729601978443,0.03280664289161181,9.714016638389534,0.013513821323775696,-0.0010745736965786636,-0.006092076319204703,4.55
-0.05914384470555122,0.08495812219155294,9.841755897283486,0.02021031812021206,-0.006890041810607863,0.01635530907822331,4.5600000000000005
-0.03104867100013188,0.027632710128025074,9.64605370765491,0.01381228690313034,0.007257128735436471,0.007670136412879914,4.57
0.09678786234410064,-0.007323729123443654,9.797363537969686,0.012306753083996862,0.019876371508162304,-0.009860135708271477,4.58
0.11536166912625792,-0.20592196433408674,9.928355994722502,0.007493738943119389,0.019438051211882627,-0.022498047520911536,4.59
0.15386866803981247,-0.035569241621573267,9.931089287385035,-0.013872860207589035,-0.00394638653651775,-0.004335362604722893,4.6000000000000005
-0.03915810881265636,-0.11179042844180825,9.725633606429398,0.016031589135585913,-0.003012313628085643,-0.01294701027918898,4.61
0.09078084467082909,0.09724938987770483,9.866506252015935,-0.011227883669797408,-0.0074206687407827035,0.008133317813891766,4.62
0.21122506428420407,0.12949014090811614,9.878572024433469,-0.0011184469063691522,-0.0024143321132414014,-0.013173466886919272,4.63
-0.1346781750871757,0.05799589905535418,9.631562994679413,0.019255005384564147,-0.004167397494921487,0.004332046107308717,4.64
-0.10652001579437904,-0.11010277315559842,9.80050544582509,-0.008903657965498557,0.0005402362035640374,-0.002835874628484634,4.65
-0.07420972111776698,-0.025321394116887067,9.774515421935764,-0.011509109356218485,0.0026409148941933225,-0.007449492846937005,4.66
0.08048256731881055,-0.13126267529151822,10.066097812873727,-0.006096386630097036,-0.0015407451005311204,-0.010051788554656207,4.67
0.028561240109907005,0.027613204399440767,9.830740674508101,-0.011626929122952007,0.020153072126611684,0.008169678692991759,4.68
-0.03553678243470455,-0.027311965071714087,9.775797590055287,0.0227170606844242,-0.002971078058030449,-0.003976207903216345,4.69
-0.052913035395916824,-0.0928670315095928,9.956809274765336,0.006858077874605829,0.013993739225811553,-0.005058383837865775,4.7
0.06714236318279514,-0.006599607160707706,9.866642621593058,-0.0038927901886362517,-0.003489077335860509,-0.01565100188872261,4.71
0.13208406741048737,-0.07810768117504538,9.992814287123911,-0.019445816271968862,0.002181139604891532,-0.00021036147295490224,4.72
-0.11138110611946012,-0.20388380669384168,9.984067520492099,0.016621997264755328,-0.005554820231673126,-0.016240299405604456,4.73
-0.1140396368447682,-0.06644940435397409,9.814389794979794,-0.002331943057000014,0.007741854998856391,-0.011557773857050377,4.74
0.1968490902069643,-0.06992543804563928,9.920433381641832,0.010626887567540561,-0.0005833108201952918,-0.00047452389518320835,4.75
-0.1050857758868751,-0.13424083852603358,9.915917528375891,0.007942238971337395,-0.000961165698191678,-0.006252390936884447,4.76
0.04016568883179886,-0.1441903927904095,9.628958791318375,0.019491408095192557,-0.01021569251692639,0.019729658987760162,4.7700000000000005
0.028963111437729006,-0.12315017827175796,9.818408636156281,-0.006031846785605055,0.004747978554774946,0.0004571084773985896,4.78
0.11183556468831068,0.01763597273810214,9.872900419066806,0.010263111400090143,-0.007389889455155934,0.0024550972924956243,4.79
0.0784823715480193,-0.0935904095278649,9.746051617287836,-0.007360196930913173,-0.000997366790431385,0.005612831429287788,4.8
0.11697717163563254,0.08358425165721209,9.829708730952065,-0.007078498285906475,-0.011135100934511042,-0.0016215056806483154,4.8100000000000005
-0.08516186291293672,-0.0053660942841285645,9.79826659379567,0.014703682379453312,-2.9653955984928455e-05,0.015081144401691336,4.82
-0.008061751692518496,-0.11026182992204266,9.964233690442049,0.0007419430722371929,0.009947251247947155,-0.0029058631514069784,4.83
0.0993143871517384,-0.016146945237696386,9.789362286054283,-0.009382143745509578,-0.012943388094085238,0.014900435448185298,4.84
-0.07902997620940738,0.047348287567757975,9.825420232068641,0.018594188098376742,0.004739369375987474,-0.007105376151641362,4.8500000000000005
0.038033142465503836,0.18415600982032337,9.78648997044466,-0.0028195181375412054,0.004653642238746167,-0.017277299092203772,4.86
-0.16386371819525192,0.07803372724181107,9.86752563219767,0.0007106272135096926,-0.029496929751896894,-0.006146785332842674,4.87
0.022013781942316693,0.06664080864542031,9.732305742941927,-0.0037442062932099974,0.017098375066982318,0.008706374906050158,4.88
-0.06543202130714594,-0.022435725417233075,9.901699683431762,0.0026667896470231344,-8.293508331664092e-05,-0.010191930195695493,4.89
-0.08605412666390136,-0.06179953283761577,9.750165543215083,-0.0039682409127732785,0.005300529642021864,0.0009307934891155632,4.9
-0.07872065282447688,-0.19845684670932578,10.034794808845971,-0.010376081655662235,0.006096166254805575,0.005048440584590781,4.91
-0.04639864784099809,-0.051610565122988256,9.850955419542117,0.012171383045103486,-0.006518071390150101,0.00019335901057650383,4.92
0.06725867809890371,9.915144967871462e-05,10.073339472365694,-0.004753520420949043,-0.004817920374892882,0.0013796007399023663,4.93
-0.11044568866039722,-0.0846947294743325,9.74529418053222,0.006499443767711629,-4.1680213946898515e-05,-0.0026036633794916616,4.94
-0.14059031181557105,-0.06646019789426065,9.810337908973835,-0.005759236513218874,0.008890466358874919,-0.012569523275628039,4.95
0.028585935608644315,0.07405447563133302,9.80031148906556,0.002306272108791537,0.016358558257707042,-0.008252989914679095,4.96
-0.006642752484639839,0.1481680598289294,9.875785214438737,-0.008121262934433288,-0.00022424870139073542,-0.0003603510688158586,4.97
0.060594784107701166,-0.13806237994674375,9.884380015428018,-0.008523687951021092,0.007264652575349118,-0.008732242060094157,4.98
0.11584109142175764,0.10285264808075525,9.69114738373838,0.01353270548447787,0.00014455698967965125,0.0013067101747017548,4.99
-0.03507886641931821,-0.22441330224341877,9.835468697315461,-0.005930397192057941,-0.0033089341655368172,-0.0018459788051867815,5.0
-0.052841242740019646,0.031110717955087127,9.85715060586498,0.007316069467998378,-0.014994360203867352,-0.004214576280328319,5.01
-0.048364067948831725,0.109385455677556,9.88894566096966,-0.004754899283590785,0.016107440673456205,-0.022064249614207197,5.0200000000000005
-0.17299879636304472,-0.013930550695784215,9.776527118799565,0.006713783130053008,-0.012200158845432905,-0.0034121207522711003,5.03
-0.033010960051409494,-0.032537857279144676,9.822830955338713,0.005861737010636236,0.010199178435283247,0.014930460531906938,5.04
0.0924113849700569,0.13919015556790215,9.757297579099932,-0.005469684730989544,0.006487034648437047,-0.023936075085066122,5.05
-0.031203279311852558,0.014526088854282521,9.743405876154055,0.0009195601459742351,-0.011688022280733169,0.010238201369729671,5.0600000000000005
-0.13009375584121474,0.02367418557875325,9.665183708738873,-0.005624551791026646,0.010687809472089502,-0.006490802937423637,5.07
-0.1075110889597347,0.02397558682308497,9.791243805096652,-0.018000130310440735,0.009804830695977788,0.002826497232723298,5.08
0.05172783530998446,0.0322472762694128,9.690163210221494,0.004666372707389411,0.00420595535387411,0.010682557728478629,5.09
-0.0296063079057683,-0.04113883319932405,9.816854404697745,-0.011897646224434106,-0.0010294013072479121,0.0075739663378613644,5.1000000000000005
0.037881022556851156,-0.09395539418492725,9.670449246097686,-0.0030153325888909012,0.009213729891956112,0.007067090202077947,5.11
-0.1099953286612442,-0.11603708403868687,9.760387372455426,0.0022689223334863445,0.0024003453200649046,-0.006454799509107177,5.12
-0.028530228408590392,0.00369783427060023,9.654952823909271,-0.0026143015773062695,-0.00937506100584051,-0.005898715128878787,5.13
-0.06074996585197289,-0.02458067675600879,9.611335824570624,-0.006768293016560795,-0.003524329702386546,-0.0007776398529218265,5.14
0.04724735033615854,-0.013584624424440181,9.789635986800642,0.010250339768055448,0.00897470151214949,0.0023972964271183088,5.15
-0.1108934086953905,-0.10362209892849215,9.768352071054673,0.025725090086835906,-0.0021859365233850296,-0.012519328034191354,5.16
-0.01397249030295743,-0.030802438135556293,9.970203779016238,-0.0032099206304981687,0.01040311204275388,-0.004188385033832086,5.17
0.07780798328118504,-0.1069899919575629,9.668477012093035,-0.010769173843788869,0.00768996586317509,0.013417139987085254,5.18
0.15774334319022865,0.2260676524782672,9.895753134212976,0.007952573562027233,0.013183624221414615,-0.013459872325415446,5.19
-0.07901313477761845,0.22258330827314732,9.813590549271513,-0.00310904107098259,-0.003123166713113977,-0.005069899790225202,5.2
-0.02577982753852312,-0.16472407662406505,9.81911710372428,-0.015940804512592444,0.0002719961033028499,0.005393149408900467,5.21
0.12746929591925774,0.09527033957733913,9.912032164686925,-0.0020785014606434743,0.012265574741630654,-0.009937523663434882,5.22
0.006063619363239598,-0.035854121865247196,9.750444470970592,-0.0034696616685456006,-0.0029245916040312836,0.0019519482247403878,5.23
-0.07700646720533882,-0.1240486511482339,9.8270560664593,0.009802535675787583,0.0018071762288353718,0.003877728495617681,5.24
-0.0243310029630376,-0.010835602568344455,9.696702747324572,-0.006603515081526222,0.0003413132869878566,-0.003021363818140555,5.25
-0.024768638295086194,0.07099205522381298,9.717234681404866,0.012933980611318742,-0.008563523638564122,-0.007911939030435413,5.26
-0.011526340406519526,0.1067562490150966,9.656366413087458,0.007384938121733705,0.01837617292089479,-0.01891033654814664,5.2700000000000005
-0.20989801943778802,-0.011410856407974372,9.831935152103327,0.0024370317480765544,0.022762624282622216,0.007209901807314456,5.28
-0.0555936123174921,-0.14258706325225529,9.652650128984124,0.006746479388285403,-0.0022661292132186393,-0.0015472919034631872,5.29
-0.10992787406291687,-0.16811651169505032,9.827519032468146,-0.0043501561068742004,0.0076728010197736245,0.005454637586632866,5.3
0.059836704921873984,0.05857515825657447,9.897372985978762,0.021922198292332624,-0.0062960132467170605,-0.0034009367410050844,5.3100000000000005
0.05077942187511915,0.06519516809337936,9.91702848790061,-0.00252110148537174,-0.0027507096563415857,0.005001074276938514,5.32
0.05548029861341696,-0.04053300903344914,9.609264647107377,-0.008904683235568,-0.001616025378374525,-0.004599979875364908,5.33
0.02203952344261205,-0.052945392290638486,9.995831575835348,0.014239118208789973,-0.009784398198315798,-0.012614911575113377,5.34
-0.04712056867295475,-0.10979648406100802,9.998306896323362,0.019566767361333365,-0.011633666368026922,0.006179190574313792,5.3500000000000005
-0.08710404556448803,0.05167490761805782,9.744544049525805,0.005233750850407173,0.009233436374821328,-0.007386054623456261,5.36
-0.01451957518923322,0.018776156112932908,9.860726291609524,-0.007086583005955522,0.004803000919739558,-0.006420157341415238,5.37
-0.01161081277124566,-0.02930473724907482,9.871178073103266,0.020437175466714034,-0.004935591094321258,-0.011515775964477469,5.38
-0.15604672473287604,-0.08816886806484361,9.74738865828332,0.011178070092995526,0.01230155149678977,0.008621742921641312,5.39
0.032053337332997235,0.14554648703764564,9.879881204972325,-0.015543029953681523,-0.012728968174625144,0.011077163172732185,5.4
0.019205836676220472,-0.011513828670742573,9.957049616348403,-8.730654871922679e-05,-0.010701787501960906,-0.003311392938537513,5.41
0.10374390542691361,-0.08456445667115386,9.785021336082458,0.005801425695122748,-0.00929614914691934,0.01918941198997684,5.42
0.045031458864882544,-0.06528064351809701,10.036635204374683,0.007341534708467779,0.013410214381978064,-0.003959784289867018,5.43
-0.15205330404901996,-0.2660907997669049,9.715278280442572,0.007232826408265695,0.006709255153678718,-0.0053552545752167105,5.44
0.035486785368463024,-0.038799057576120476,9.774014608244274,-0.004025006160170369,2.9010537181196137e-05,-0.006013144654541419,5.45
-0.08124293654139862,-0.031598379331075614,9.774774548827605,0.01459147662186685,-0.015505127123850828,-0.01959640831109572,5.46
0.03198752494134768,-0.2054434384894479,9.939053617985875,-0.0010020140248724453,0.0011891481732490266,-0.005003930743832632,5.47
-0.00964732385272789,-0.08875053084259638,9.76191608075756,0.002670203596253013,0.014137912868339328,-0.005705668767047719,5.48
-0.17750953106719872,0.035234562063397444,9.900753691031872,-0.008330468102364012,-0.0013611640918885707,-0.0009344161124668368,5.49
0.00732216785960131,-0.12941081105454294,9.596930652487456,-0.008115290798490998,-0.0017089624305836257,-0.021647862955514092,5.5
0.0887641322501318,0.11388691215388985,9.838184891353997,0.006058316056251928,-0.0029119390862581097,-0.005094204047695156,5.51
0.07596747354468038,0.009539584019505342,9.890926608656951,0.014908053293891124,0.006413813340782939,0.005451699338384873,5.5200000000000005
-0.12991651611220126,0.027763075847739235,9.777048182550688,0.0015804979068357583,0.002956218175351182,-0.0038069853782804926,5.53
-0.010266455852021041,0.015714254810005955,9.86366647888852,0.0045298116335719145,-0.0026475094571103515,0.00811619946088931,5.54
-0.1376094170553352,-0.016221851557242924,9.819864427093343,-0.006313195088514024,-0.0046969950502312235,-0.020380748297459998,5.55
0.019234176350769773,-0.15509136136968277,9.777640274502678,-0.018779809121521402,-0.012004101519300613,0.014628608473626362,5.5600000000000005
0.004091068101249671,-0.1134847668069186,9.737279622662468,-0.0164035921403435,0.009133279575327904,-0.010148001267611966,5.57
0.13891989282323156,-0.07809223919994962,9.810598837258905,0.002601613872655204,0.004101781221114605,0.00822258290705229,5.58
-0.02859685112069403,-0.09175532893297095,9.95080526100371,-0.007077163406920303,0.004672653646603458,-0.004468096836936517,5.59
0.10786474868832426,-0.0725229764323909,9.797205570648481,-0.00890333188872952,0.01733932258431319,-0.0026934179528255693,5.6000000000000005
-0.04119891098983319,-0.002555613107804375,9.913189379036805,0.0010631702369200671,0.0034373092306323244,-0.00044762828930936243,5.61
-0.05070546490629938,0.17845459555348717,9.887272376085418,0.0035159171354145276,0.0029535908527040557,-0.0004775505049606682,5.62
0.018637743951252745,-0.010775175987957582,9.901218171392621,0.023954928772668912,-0.012351198315369351,-0.009823115569900077,5.63
-0.0598305234272099,0.08590207911211616,9.896943167290836,0.002922473877199429,-0.020745079578412876,0.012722196900015876,5.64
-0.017161370672551964,0.05607247673328552,9.788222645295717,-0.013592515611877066,0.01460496984889076,0.0002873004970990966,5.65
0.08568448381183047,-0.10866060512621259,9.85481860320835,0.012727725733299014,-0.014457525581826686,0.008188220816391489,5.66
-0.08848175055484384,-0.1018555921518173,9.689236966124804,-0.007372855076432565,-0.004829084458493951,0.006184889049499621,5.67
-0.03016123013025328,-0.07736907069870881,9.77907730321987,0.010377413017648584,-0.021912587696994248,0.0052589216519899245,5.68
0.05393705289354797,0.09587639961288863,9.87948835190386,-0.0001504579380898213,0.0014361021370441565,-0.0007818232983360349,5.69
0.12962979541433964,-0.05463322016684163,10.011719414657858,0.007425959014926065,-0.003967868946917691,0.010567931430403575,5.7
-0.07194606009550888,-0.0763336654541496,9.802119442465408,0.009018357536542046,-0.0007223845991617997,0.016585240988493788,5.71
-0.12045751338928141,0.0975686799057376,9.972343610890816,-0.008112133922483535,-0.0109049529056567,0.0007488164705593219,5.72
-0.06526245674120838,0.07275613571637997,9.903510545701288,0.006700786421258985,-0.008706577270367541,0.010328480211682726,5.73
0.019408444331945413,-0.10471394320893457,9.73886422269612,0.017038603316908568,-0.004068386939525845,-0.019516230505218758,5.74
0.04370018940492909,0.03868134500757278,9.871427819843863,-0.0035136030150515647,-0.00019082045347531976,-0.002419640904424128,5.75
0.06737190332252128,-0.02752624448459245,9.685296680043013,0.004816174746168751,0.01495882307223452,-0.0039766294526465155,5.76
0.02049777354300933,0.029910749112582194,9.861345819741079,-0.006673597933516782,-0.016152730782344173,-0.020029910809312365,5.7700000000000005
0.09104333575701283,0.07587903107787938,9.98739516853236,-0.009723800651941384,-0.0014692776883440933,-0.00290663174957812,5.78
0.0019788904971054138,0.05579652708846588,9.929405679343189,0.005836485050675664,0.006842839777419934,0.010753091892129392,5.79
-0.13316681625402327,-0.15076536512038863,9.719546401452998,-0.001413779375558997,-0.01264602022838011,-0.0051738622141860955,5.8
0.06041087298446545,0.009520288381818289,9.704486226160121,-0.002328117810959321,-0.01807468235002984,0.004398611141232474,5.8100000000000005
0.07869574627981536,0.09776358568725664,9.85505336534792,0.004306037076330198,0.01248932366405852,-0.012076470063355106,5.82
-0.17875493680764118,-0.19142588576241476,9.73770421212649,0.007258695502528501,9.422149654193106e-05,-0.012912894095605483,5.83
0.04251163467395764,-0.0034246410472090804,9.968733008191768,-0.008191942565672444,0.013782003312824339,-0.00519579426992674,5.84
0.024960414164079424,-0.1889688998707997,9.789496498369068,-0.004669328408063121,-0.008981732324528762,0.0037133416860344937,5.8500000000000005
0.016353960884144644,-0.031375281537311915,9.978623526133202,-0.02011987662871461,0.0036477313273081437,0.0036877798128561955,5.86
-0.05166347168585877,0.044834201059120476,9.862118663326333,-0.01763878446199593,0.018917338915092625,-0.007190335040805711,5.87
0.06109127219893519,0.04976424227134232,9.75535440025001,-0.02297068993997025,0.023821418245203604,-0.01827761385607333,5.88
-0.16302113714059685,-0.0787282640095557,9.683467206924984,-0.0013962743776110725,0.005621854469878457,0.015147139172698257,5.89
0.1955913124372763,0.093040772325032,9.950123251989291,0.005515761125599292,0.0007391272213196134,0.0027408386260764543,5.9
0.12701261673524858,-0.02931021407330683,9.738334892944616,0.034184051690207294,-0.006238876550158828,-0.016794774183919305,5.91
-0.05283810272580397,0.022179504650309732,9.952112554870181,0.0034043862089562682,0.02491544927500363,-0.007006785579550748,5.92
0.030690880143624245,0.04994890327901359,9.858740957959666,0.006884159741241042,-0.004766935738736987,0.014354370931517884,5.93
0.04848217290895415,-0.16065556036946438,9.746277750178379,0.00608998223618527,-0.007564929822253421,-0.009301129299675229,5.94
-0.0486146580474026,0.07523449749990548,9.751965352956317,0.027290389962976475,0.006378201151024902,0.0037092891536206142,5.95
0.05406787280659584,0.02002644624676914,9.962257708952462,-0.002852713931745824,0.02304716981514663,0.018774750160878772,5.96
-0.064645758741055,0.13152599150299812,9.708081199359517,0.00010087937616434473,-0.0022925829427978294,-0.0034314494167463324,5.97
0.013557182490657927,-0.038644205532573896,9.829608472293122,-0.005713718852966155,0.002727971306736438,-0.014406952971126628,5.98
0.26191929374781187,-0.12305361573172767,9.682124553664092,0.0019415265875594328,0.006590243049953834,-0.007865361620202526,5.99
0.10113686421088389,0.009837445288225471,9.733456960954673,-0.003688894666883031,-0.007841567608526414,0.004019858741662691,6.0
-0.2170321940269529,-0.15635811006518277,9.653584391739491,0.003346627690577824,0.0005248649896853195,0.0010512850015118472,6.01
0.05523621101732739,-0.03405325711404869,9.824907099818097,-0.0044166613053900185,-0.0002896591820159263,-0.009434428814827709,6.0200000000000005
-0.05696050690144699,0.09013485963674456,9.64768521857719,-0.003575002566907796,-0.002640348765350562,0.0054611267163203825,6.03
0.054277135864894015,0.1730141980304843,9.693486896703776,0.00793410278262761,-0.005822431640375033,0.006652058440746608,6.04
0.07218581605157957,0.0733956767536101,9.686556571563349,0.008054032689343365,-0.0008054384120318372,-0.00041292067274151944,6.05
-0.06247841384889439,-0.1138652450348282,9.798708577602474,0.007166114556540738,-0.0007515293305129093,-0.011103527963668017,6.0600000000000005
0.029003726572530822,0.1603935110169313,9.712925130807967,-0.0002180009159545119,0.011937637064385423,0.011783449774256802,6.07
-0.07599589494863339,0.028877334938799903,9.91257493783199,0.001404022721704215,-0.00916395110680225,0.00545895177465713,6.08
0.012903968210983852,0.014185192557702998,9.78321566633204,-0.0034645042208517204,-0.012181231218417177,0.01600832889071145,6.09
-0.16487150655241262,-0.10721170477739571,9.808972334900705,0.0026946810380440106,0.0013888043739953694,0.011080019326144027,6.1000000000000005
-0.17770024689955735,0.11453434019878855,9.705450369160065,0.016353046488298988,-0.010862224555977433,-0.014005063218415315,6.11
0.1117577174269703,-0.14570183734451933,9.91057284773945,0.005754689421921879,-0.002811894969751019,-0.00019487208554678996,6.12
0.20547222720876804,-0.004861857734168067,9.50331227643718,0.01084607599688399,0.002418085827254114,0.00019084839670711282,6.13
0.11535497500202035,-0.058516746848819336,9.85490623870838,-0.011197458782833281,0.018947978513393315,0.0081904358261952,6.140000000000001
0.09557306144595878,-0.03023828394105202,9.883063064376461,0.008889267696998125,0.010907502923472319,0.0005131739711830869,6.15
0.11554665167774268,-0.011180835367984775,9.852406972510344,-0.0014153396122002476,-0.012974806586151074,0.004783696137789738,6.16
0.036715613716376175,-0.06951907734891098,9.909034340278936,0.0033115877186494485,0.021814049074799283,5.403858507517932e-05,6.17
0.1962134876322561,-0.06030435970254488,9.909302396717623,0.01481135392932183,0.0224456278687262,0.009688564958503003,6.18
0.31475173867611234,-0.05535819150989281,9.916055376725536,-0.008910747470498638,0.007170481645086914,0.0007599456602150987,6.19
0.06205070222011786,-0.10497617645586421,10.033627643166984,-0.0097328584231976,0.003714798883555688,-0.0031709316080999017,6.2
-0.07222111242123415,0.1138377410175598,9.910183050967413,0.0003564145463828068,-0.011187180708088574,0.00042936340723547867,6.21
0.013901706674295855,0.07507534108034797,9.67396494398008,0.006132921748561927,-0.018002004797791356,0.008834408099461385,6.22
-0.021503541196180278,-0.05700059673570527,9.91420870399125,-0.005528641127903233,0.018954810768435134,-0.0023532876303325794,6.23
0.07799773957731776,-0.09943284879067031,9.838075613903408,0.013274028400441824,0.009274550352723185,-0.016381326742084985,6.24
-0.0444970725265251,0.07569768331591117,9.84941868099376,-0.011304898294481251,-0.004391015376254021,0.013859811861672944,6.25
-0.052535241686068004,0.0604659903903788,9.907422468147688,-0.007177983507951995,-0.01932514462087435,0.0008996241063630151,6.26
0.03796719301223777,-0.02203005143414439,9.771840448470279,-0.012373188282007182,0.006100358802002487,0.006203753053346001,6.2700000000000005
0.07374066677897927,-0.01698442406653775,9.82331161632121,-0.001723103813461144,-0.02317421844815553,0.0020860118266194006,6.28
0.081528168381531,-0.12132046509997624,9.95813101502969,0.01664543043328499,-0.016284352942497603,0.0002332791565834764,6.29
-0.2829265798720017,-0.00681193319605345,9.693152326563832,0.0036766441437628685,-0.003234901202900149,-0.011236342205398483,6.3
0.023970533649888277,-0.01411604765676946,9.637352098674981,-0.025618397865291166,0.0014491283303649219,0.021848155007957303,6.3100000000000005
-0.17613834557011698,0.13889580379438257,9.950932289015459,0.004877804011584055,0.021089954601607706,-0.004381332593471335,6.32
-0.008878000440334894,-0.01414941625659931,10.047395923119561,0.0013439966079951211,0.009343659155500741,0.017357172225959793,6.33
-0.011533582764535037,-0.18189951202988064,9.810237591426084,0.014366451092500319,-0.0030669234377768318,-0.004028522157189175,6.34
0.17651702263467242,-0.04769036371001389,9.780787854444476,-0.016243925736590913,-0.007567520521344929,-0.009832477628888666,6.3500000000000005
0.10995178994202602,-0.025996977065026884,9.754367136596036,0.007439361210901017,-0.005060475133665814,-0.02153469056840303,6.36
-0.07863535129760278,0.18631307400006147,9.808396268604513,0.025537549800633004,0.0018471585903131786,0.010515779948591182,6.37
-0.03741467922595975,0.10155809671200199,9.94352109753092,-0.014046881674515073,0.01068800942431963,-0.0046869217753361765,6.38
-0.0054913368416113035,-0.1518903526580107,9.727344401683332,0.014580853156246593,-0.006694091018543901,-0.0006139151919788899,6.390000000000001
-0.08058929589569302,-0.01444317302128145,9.659317888965763,-0.0033832164303521945,8.337829789226848e-05,-0.007394605044914595,6.4
-0.07199478602501115,-0.0857553561848135,9.931879882506337,0.005252592758838475,-0.016130723290370172,-0.005333666339519426,6.41
-0.13902589723186617,0.017595908093801335,9.827769906275012,0.021669796309527613,0.005362114435884898,0.00159416591204594,6.42
-0.1582467479725768,-0.16387844288248415,9.689262454900561,-0.005572206664541302,0.015448617681308022,-0.006883130207834601,6.43
0.029378822369045682,0.02113073556611053,9.72726831850221,0.00562483967484022,-0.005002943265422767,0.017542503782756215,6.44
-0.0008303368490892808,0.15063922274711603,9.580565877100774,0.0021508542803336866,0.0257778288321876,-0.00039372489200201395,6.45
0.0001671223138817675,0.0870939754727253,9.863760157852228,0.006592838205744588,-0.00018205803942452164,-0.007021212036741761,6.46
0.1246259579909213,-0.09248358298948821,9.879793228136766,0.005592821137909661,0.0035717524874197665,-0.007453831763247878,6.47
-0.22255486684041115,0.049066007823284234,9.759756968811244,-0.006522602626968952,0.019183342901009207,0.010049953380321776,6.48
-0.048652513263307454,0.12926276187090613,9.83797313330478,-0.01505557798460903,-0.006274310717113314,-0.015260838672029367,6.49
-0.08049419980634856,0.18954330254062368,9.669149591045516,0.0024304588616365355,-0.007205259599198162,-0.003448101337733879,6.5
-0.09635130923191138,-0.015839667744782734,9.707688452192434,0.018051665833580463,0.004654068347027222,-0.0038534384686790563,6.51
-0.06576034406879595,-0.13730922680273164,9.871478540346237,-0.010361532418335045,-0.010053994185275089,0.00020501843071881305,6.5200000000000005
0.020617864991834066,-0.1248978148772658,9.921984191313152,0.010795281907367305,0.00439161788613548,0.011125290121166044,6.53
0.19766431244153243,-0.031118183412797342,9.81098724678767,0.012643369831028603,0.0063041758008261185,-0.003973216817863686,6.54
0.06121201908848253,-0.15766623405385038,9.833457063742255,-0.0038840938722741925,-0.002277100594372202,0.008678914936589403,6.55
0.0026968144353776893,-0.08437403152489922,10.046507744125716,0.006889817859735482,-0.0016705623878851639,-0.004066974224672526,6.5600000000000005
0.03404835817798653,0.04918060434961876,9.934156463214004,-0.0033898755734480188,0.008956937040802757,-0.012107613037560755,6.57
0.08354686654443459,0.06224002169802928,9.765556999951768,-0.005885281862124439,-0.009493387724765908,0.003799983736199379,6.58
0.09078378135150046,-0.021278262776462525,9.90845431211258,-0.022980406926294234,0.01188110591220499,-0.0017331134876742448,6.59
0.07575630411990236,-0.06497354936152923,9.933734627533116,0.014231133218221939,-0.01068591218300394,-0.013887437088944505,6.6000000000000005
-0.08439589142757627,-0.07252089086120599,9.917799147193024,-0.014493706329098114,-0.005989430310397862,0.000431723186725966,6.61
-0.11504705447150104,-0.011168989728591637,9.80843921061161,-0.02088781846161075,-0.010527040591618223,-0.004001605592833883,6.62
-0.05646368350607615,-0.07980798995526849,9.955580933164445,0.0004065885103185375,0.02622058736901917,-0.006144879670676005,6.63
-0.04541689464046242,-0.2246468696609891,9.851321158556534,-0.0005493741073906486,0.0044217263462326935,0.005418272095802808,6.640000000000001
-0.09044667545085072,-0.03719194863389029,9.756351373766611,-0.011616570217611403,-6.97490932096704e-05,-0.005447238593968685,6.65
-0.006117680946546275,0.10947766664105048,9.871759933317103,-0.022910078556271852,0.0020139898749990948,-0.0005029711377659552,6.66
-0.030828318577716025,-0.08865126363561637,9.841051300126264,-0.0080022697991619,0.0026481252089527543,-0.00039936940384586734,6.67
-0.2536976087283188,-0.032012127059066905,9.808640407438718,-0.01288967334680374,0.0023743252958809725,0.009847744759655523,6.68
-0.03550778663410478,0.07026121743674546,9.858525878800439,0.011527935800451136,-0.008311897558241176,0.008727706954123253,6.69
0.11265117041126237,-0.14419785236372426,9.837628639155486,0.009863147649862857,-0.002471327382647689,-0.004086102587492745,6.7
-0.08065726624676589,-0.05423795621487566,9.878738895467126,0.003732051977915663,-0.011107132057567594,-0.005680609775346397,6.71
-0.0282898999012769,-0.0055481144131337735,9.904188449235855,0.003168600033563673,-0.013079717997884056,-0.016800997435684747,6.72
-0.003023101374871608,0.06661323957632025,9.840884517200408,-0.0015645027862053616,0.013946751891799669,-0.0004077697728256366,6.73
0.0638886090772719,-0.009312564796070988,9.88879035973539,-0.005514531374262111,-0.012511432054646483,0.00331866399732659,6.74
0.181797400999481,0.05939766327415094,9.862703439518583,0.019651264063695974,0.010101360945341043,0.008109516818893957,6.75
0.13464470031573425,-0.1681979490356084,9.8201713298415,0.00879780423005911,-0.0004097272934201685,-0.014341264074222102,6.76
-0.027313238537494552,-0.20353720484199084,9.944673825592224,-0.013934844705023411,0.005093349892985274,-0.00564498104649833,6.7700000000000005
0.13128587032585518,0.0683404993791268,9.699516052641872,-0.0062398611694412355,0.009209584070869654,-0.004748613094386192,6.78
-0.04460041386245328,-0.04054366900449141,9.779434564724154,0.004043625769861841,0.002486789022759286,-0.004158075592411377,6.79
0.06793819231269647,-0.18618215371678784,9.87831995220192,0.014165422864663638,-0.007260184370775024,0.004429560064281744,6.8
-0.18650068066322478,-0.17437914725557663,9.729201631367035,0.014671930206633464,-0.006446059941006588,-0.010015983326578307,6.8100000000000005
0.05665145305886781,-0.08815248968559336,9.787885119733271,0.01780945677018561,-0.02331482348498987,-0.004260762612456253,6.82
0.16892931888144347,0.0674947285631601,9.78385783944831,0.010268206101395694,0.007681906495555932,0.002045140408416116,6.83
0.01949056936957566,0.10061069629432906,9.808055978904765,-0.009326682593376422,0.00032206500659563085,0.011731938549158017,6.84
0.028542251981355057,-0.10494248456096558,9.725733604626367,-0.0031071738360374137,0.002758028844067991,-0.0124272571566235,6.8500000000000005
0.07128259872394192,-0.05913208639282174,9.73381904650064,0.006595870675060641,0.004535585843526024,-0.011839880425796147,6.86
0.07669265516074265,0.045648012592991505,9.821735304976674,0.020679859146629422,-0.006135643114264006,-0.017073771613400634,6.87
-0.0482965874642895,-0.09261570726887439,9.874831733074558,-0.003673685039934571,-0.0007499546304879261,-0.011768274699737907,6.88
-0.18605201871185642,-0.2136037165407294,10.013304712538076,-0.0020116100017783297,-0.0009177238363055328,0.015683983485717437,6.890000000000001
-0.058291099271155306,0.11531672164019868,9.654775512988266,0.013934883260380861,0.005232527313782712,0.004968251933601768,6.9
0.0988393258417629,0.031345250033703774,9.747714178091998,0.008808787428852249,0.008707456213335225,0.006971585709346582,6.91
0.02451325094705673,0.06937158891137005,9.659120973946226,0.004840188404147472,0.012275787862880508,-0.02277906201274983,6.92
0.016509707268647617,0.0703215950421661,9.687865229193566,-0.008565165038816637,0.00044222585504254645,-0.0020976090982487918,6.93
0.05115858146130119,0.050152607327328125,9.910497450359927,-0.004539832436486761,0.010093870057114788,0.011752736446743317,6.94
0.014954035126162949,-0.10109518588723382,9.943215098451983,-0.01188009147670254,0.01195561285071877,0.0030378879562719314,6.95
0.03738121448620352,-0.028247608020384382,9.76223409981758,-0.014952125400134395,-0.008931124553276657,0.006366812921946408,6.96
0.0663720208470356,0.003312249498248095,9.857516658982917,0.011697265305677738,0.005199494228155422,-0.005840700671515371,6.97
-0.008647461717824738,0.01149717404178845,9.879312948447355,0.01607199797758728,-0.0059702840920775315,0.0003157982870606675,6.98
0.0827712982721412,-0.05546324521107622,9.814169923593733,0.01400792861893621,-0.004531371798455528,-0.0050956685899104905,6.99
-0.07240302384896209,-0.12799163612625866,9.71503080154556,-0.010626180616505958,-0.004852629935863248,-0.00811379481952959,7.0
0.006393159198252409,-0.10170707935467543,9.958771348071386,-0.016066526095572846,-0.009089046965147443,-0.005060706236436526,7.01
0.08651160255072275,0.09610080792452265,9.794623314462115,-0.0026814632652768333,-0.0015461609231206205,-0.012335721110070199,7.0200000000000005
-0.19114681852084758,0.018164993295220127,9.786526534919485,-0.0054095971855058125,0.002874492423595707,0.0014462194882708004,7.03
-0.10912653975415465,-0.07428269044886675,9.719606244103794,-0.008726915876209856,-0.0038962554876866844,-0.0059941797078080375,7.04
0.04225757124347197,0.17996630833653426,9.909179649213835,0.010733242864227706,-0.00894497329942855,0.005523109961590468,7.05
0.07125753674642146,0.04398031543708164,9.764444866741076,-0.003971676004282397,0.006802813049206717,-0.01773111991309911,7.0600000000000005
-0.02961144611068647,-0.04137013591711849,9.741930445869539,-0.00978082747028737,0.011181331326530602,-0.0076157070481415465,7.07
0.04101267493864202,0.04671972304745568,9.790618382144341,0.009534168543723158,0.002761563341418519,0.007719976258704927,7.08
0.08198780761919704,0.04977369270369619,9.758545797261714,0.016198497381324888,-0.011244956846222079,-0.0019301228388488856,7.09
-0.0022031861465709886,0.12585239070497747,9.769996452480573,0.008429837678779068,-0.020217244840456793,-0.013434586153285261,7.1000000000000005
0.04982888072197994,-0.14864801833602764,9.755209935921432,-0.011900953733634435,-0.0030821448391542064,0.007358771144990032,7.11
-0.0352981275575791,-0.0820531931480686,9.920764511129912,-0.006594571810574889,0.012963424909680245,0.014392095943184505,7.12
0.059196301315079775,-0.22503485772673026,9.720365779840783,-0.0016767441530450191,-0.009318302154548081,-0.006375485228357302,7.13
0.01224792154031386,0.05657165189456781,9.733543538681994,-0.00691909321205208,-0.006375414220714498,-0.0037022160126206466,7.140000000000001
0.07807434654188782,0.11606345089499288,9.939757508740518,-0.007875732637908714,-0.00039607258288871367,-0.020490418437796153,7.15
0.09328649060995281,-0.07245942891910323,9.77759439143836,-0.0025211421671885326,0.004169737006649332,-0.005962098943240802,7.16
-0.09950681008804946,-0.051307504865765345,9.8051127914427,0.0014690917560371871,-0.0010071507123744858,0.002814299336196505,7.17
0.0041179974853676376,0.10852484136866053,9.960665541321669,-0.011196036929534749,0.007701060382539381,-0.012263297893304565,7.18
-0.0017713016225573805,-0.060014301566790856,9.894288265474454,-0.01162711278618965,0.002167900227594424,-0.007205858382767193,7.19
-0.1064028627771503,0.035509064941331346,9.61267650120364,-0.01610611021360949,0.004553650720359489,0.0017701723458191316,7.2
-0.009549251008423793,-0.03456473515721751,9.78380454830522,0.01397890205744371,0.01392170657579175,-0.00787597729384377,7.21
0.04614302853418785,-0.08418279983027518,9.612531871752273,0.009144553100484329,0.004201467477437226,-0.0009163159567716488,7.22
-0.10007143728750974,0.06540366302547662,9.835114766736002,-0.009503831545176674,-0.007168208977095515,-0.002240828579545782,7.23
-0.06476632291724699,-0.003497599986772576,9.760147517457117,0.007487381747110221,-0.005124145017498187,-0.013108373767006083,7.24
-0.01146649172652125,-0.1957507475674889,9.75115803994617,-0.008086078332805492,-0.002461351174533612,-0.010580802062252483,7.25
-0.08804395450267458,0.04319541814393002,9.64605302146411,0.00955565540605609,0.013731615732068651,0.011932127639508648,7.26
-0.13264614037928307,-0.14339394320333382,9.843142590543684,-0.013520665598718395,0.008752183270739717,-0.013966775813936417,7.2700000000000005
-0.1938970892135774,0.021709844135534687,9.706759161519878,0.006657756360516353,-0.0208100974178048,-0.010373364827536345,7.28
0.162746022944999,0.10289777623561353,9.619856268840158,-0.005297781207946967,-0.02701897614411677,0.007818041750724097,7.29
0.19301369055247652,0.006720159896112136,10.066662483954232,-0.00035470910447606884,-0.0017704222710513374,0.0011306917325228914,7.3
-0.11791290833808264,-0.02817960430257436,9.777714212454043,-0.006123886930343068,-0.015972626751794023,-0.015895135456494326,7.3100000000000005
-0.04836642408694848,0.02995226518928827,9.934730349291225,-0.009996557692377301,-0.013310732411134604,0.0064255980224455925,7.32
-0.14141264787369856,0.041624698016645784,9.784649239375362,-0.020350983946295864,-0.012622961951268757,-0.007071350443855887,7.33
-0.018918268733316826,-0.09649791458352205,9.891499317560886,-0.0012819554368098383,-0.0048047764973816595,0.00946641893423025,7.34
0.06925058251907203,0.060216065813361336,9.871165753476651,0.00904411040277787,-0.01737692195068143,-0.023650708558088377,7.3500000000000005
-0.23863299564813684,0.07259273900086032,9.731138488527813,0.006448716973558662,0.010020256199288684,0.013545442792110035,7.36
-0.03468173077696162,-0.039373401686343706,9.710967624856,0.0014179294392341673,-0.00020147919299950756,-0.007888497961818097,7.37
0.04817359115278943,0.06954209146648636,9.823491865017818,0.00019814462983404137,-0.011189139638735556,0.0012620114060941405,7.38
-0.05761656023553538,-0.12815642469491734,9.902189067026947,0.00800877828392834,-0.013303281341514681,0.01825053402883369,7.390000000000001
-0.15867921836477106,-0.04761571382356429,9.805390988985682,0.0038033682839241655,-0.0009766037895877653,-0.002191805231392871,7.4
-0.040883330405328225,-0.17512164951550171,9.745291221514938,-0.011908842982182824,0.004043188160598701,0.0074958282599914055,7.41
-0.15145974739601029,0.08562039690984762,9.923883729064828,0.015386568898498838,-0.018517280298543007,-0.004206342152544289,7.42
-0.06229602310148722,0.05286353132800317,9.971159670248843,-0.004152791744333434,0.018439969319782427,-0.023681432476612946,7.43
0.012709153147457537,-0.03720830527559891,9.990160333854504,0.00957925769574446,0.006566494923417958,-0.008643973300881676,7.44
0.008584009707187748,-0.003931613765298159,9.748414795169067,-0.003954761326227031,0.005136096438191891,-0.005114441589125308,7.45
0.010985774357622423,-0.11294898620617969,9.864488733620224,-0.00452670741884924,0.0005367751298176435,-0.0005296143343813149,7.46
0.007859653975340507,0.03960381637981075,9.810786665997277,0.0044179230462127106,-0.006367262787534695,-0.0041723550650767565,7.47
0.08786601357487389,-0.025452575943416395,9.706699204536474,0.007401013296361723,0.006989491299591821,0.0149992932534088,7.48
0.018453848576230458,0.13294849280353332,9.713614691893525,-0.0005823790683947021,0.0015434695781180242,-0.014348219614205956,7.49
-0.059614644983768596,-0.03624433353435457,9.742941510238834,-0.007782049326880536,0.012102305834518599,0.012664927461313645,7.5
0.14130069720738192,-0.01494678521507819,9.74217296418675,-0.003997225694394216,-0.007788616491899636,-0.004111996413340826,7.51
-0.18283193865416997,-0.007789719521563831,9.86372048661044,-0.008364550948124064,0.009561851238364841,-0.0013038568308444613,7.5200000000000005
0.0035427911771385026,0.09056240501006046,9.886276869988048,-0.005096285377590677,-0.018082721768496863,0.010076886106266678,7.53
-0.10496129542771948,-0.07345483499142952,9.930340174490382,0.005142329541047187,0.00948791569846609,0.005619257112789341,7.54
0.1085333557690489,0.11239300131533565,9.67026288521868,-0.011528451839268799,0.003947547475908133,0.0059867723934812715,7.55
0.012180025478992778,-0.03256024728277724,9.748471499681548,-0.00351597554157453,0.020689430419946767,0.005405097502172883,7.5600000000000005
0.07433217917339695,-0.12788545517466585,9.787979985917492,-0.0008647452766108869,-0.010420944077865495,-0.011010605110279752,7.57
0.048866219385710924,0.022142156678349883,9.831898874803946,0.009414809644910375,-0.007907670087302775,-0.005186205084147339,7.58
0.017882454574239714,-0.13030210624300198,9.601479382568012,-0.0011361791991699398,-0.008766359243504454,-0.011387256975452547,7.59
-0.1174589954482936,-0.04847888565077678,9.746908796882058,0.000938654963294989,0.00016211369721634848,-0.0006931365005732217,7.6000000000000005
0.07854471908847468,-0.010467139561805887,9.77418321432718,-0.00963862292293764,-0.001759804053391757,-0.018405712356063336,7.61
0.16152603402219878,-0.12220816709279231,9.727433132136392,0.0014473529236132274,-0.006305984473289045,0.0008778046490292871,7.62
-0.0784896648414628,-0.12139915163294915,9.779162041489878,-0.003848848188660125,-0.01821760008374767,1.5100221522185364e-05,7.63
-0.026637706058907657,0.04841574654021975,9.87233058610387,-0.005881170775462685,0.0017905182891129886,9.813030356699887e-05,7.640000000000001
-0.019848248626620366,-0.09006922542210549,9.733735507341477,0.01050394927317432,-0.005108225517244439,0.011193282038980564,7.65
0.20358876208807894,-0.11175963371661264,9.762375921657735,0.0012043897500735642,-0.010840276223689561,0.017879565819657606,7.66
0.07677757236932983,-0.08054042420439123,9.794831901970273,-0.003990383448703804,0.01012247435863441,-0.004843292684549053,7.67
-0.014385370811609172,0.09468974167207606,9.813699766868982,0.005226556680055151,0.006217842952533318,-0.004223642001010961,7.68
-0.000720366983593848,0.17777815644247416,9.713533782001335,0.005642430881773859,0.004334155148390255,0.00511235829028827,7.69
-0.21189708755117823,0.03608888925636941,9.919127049908505,0.0031806932989247518,0.022712869987142538,0.005336958080878615,7.7
0.04269358133902095,0.1128118985541534,9.795460587412029,0.005703757703010451,0.016341057683120195,0.001006322925795722,7.71
-0.01031887628323257,0.02507570514033368,9.799066476646928,0.001101459698598,-0.010862798810087218,0.0008153635892524507,7.72
0.1259569014388392,0.3126891063850955,9.887639734650437,-0.012337206653121009,0.006278247099976077,-0.015727926179543862,7.73
-0.051626339438205576,-0.12890102859743,9.994784000230203,0.013158250715493165,-0.009435183567644898,-0.018568973879022708,7.74
-0.08279350421766714,-0.005181448188409661,9.89351684680936,3.528458643420926e-05,0.008965436815843086,0.0039622785570353845,7.75
0.025912975366102403,0.011172747182789745,9.838205812556042,0.010192796913070575,0.015780311973794845,0.012852143166817837,7.76
-0.028987529705743583,-0.06276947116387785,9.941179155891978,0.003045387452857839,-0.0013587037622747355,-0.0059618499107892756,7.7700000000000005
0.07315355641262149,-0.04052533538454596,9.8298715607333,0.0007771474586932013,-0.0040619104643843515,0.009404368463458131,7.78
-0.07247011731420319,0.028257871111737054,9.72282383229357,0.00744399736242488,-0.01540545119161192,0.00989859542773997,7.79
0.07668109824624583,0.03219893057119282,9.86485312477522,-0.013680636822667685,-0.0016495355811936888,-0.0016699887826509918,7.8
0.0050359223540299945,0.06475265507175014,10.02304016693218,-0.008661581723739544,-0.0034660583623198162,0.008543289826221089,7.8100000000000005
0.019443545991030573,-0.15663056087949517,9.745574139970218,-0.012263375448561951,-0.02767347135760631,0.006607273324727424,7.82
0.056677774854173885,0.21330377264528827,9.812897715915847,-0.011092416713142698,-0.007093619538738106,0.009630510051284938,7.83
0.20163814737197985,-0.1182049288075306,9.646440702707475,0.014915736917932828,0.00789565822326188,0.0056164973513023395,7.84
0.0858233242393532,0.02933959534729172,9.675313727907938,0.024825858071682957,0.001351588103220515,-0.005766868160096328,7.8500000000000005
0.07640977624762696,0.13659390274907315,9.649153073509604,0.00486868743210543,0.01719605193601643,0.0028109300428692447,7.86
-0.0825181080027518,-0.07153962124950498,9.951293474131154,0.004906591283966417,0.004557431651683067,0.011255372880377031,7.87
-0.1760402119248051,-0.1333831051761378,9.826801841339243,-0.0012762289058217769,0.013767904608113014,-0.0026188749630716578,7.88
0.056810993649054266,0.10632659009413446,9.67148762195006,-0.017576178522731717,0.0033011666115432023,0.008820825802430246,7.890000000000001
-0.02163027098134528,0.1255260621142049,9.816549494714906,0.01116010072656521,-0.0005667763684270085,0.016140754279946073,7.9
0.0012384146883229372,0.04725551261750269,9.580655569968753,0.007260966130415253,0.0037252412612760358,-0.0037276687896680366,7.91
-0.02942764375482165,0.07170781282326043,9.755779608245849,-0.004959373008755001,0.009559699181641143,-0.0035151436026748493,7.92
0.07975751058124937,0.030566210566976,9.841482415630852,-0.01517897507871297,-0.019828581727370488,0.007367748294960772,7.930000000000001
0.0393213941670131,-0.11088920841615708,9.773045590425411,-0.0060688020617130035,-0.0060072164343587635,-0.0019266933735745206,7.94
-0.1220467088542157,-0.03383008271407535,9.692666439022286,-0.008596899902982692,-0.003121455386665167,0.011435047424720299,7.95
-0.10574268493323241,0.05403811012608565,9.79608975249627,-0.011650124214454452,0.000991245120647011,-0.0028936680795392305,7.96
0.062248024223802656,0.027849749710089047,9.8077685468946,-0.003810229291524588,-0.02389860880528646,0.004944647309469796,7.97
-0.023356835432844485,0.09342187520372577,9.666768507739999,0.01009353478386232,0.0062846083711811706,-0.00558446090131247,7.98
0.06519840327923908,-0.018736667728371025,9.81979716379899,-0.0011664588243872542,-0.0031659137061150443,-0.0021729186041829986,7.99
0.11348644623080179,0.05337159592412294,9.715856787926223,0.00743339275111739,0.014768254923336646,-0.013125135247466137,8.0
0.15832165941163703,0.047962125874283695,9.836727439532623,-0.01120670644452397,0.012292212281132829,-0.01114467554092428,8.01
0.19976993281712915,-0.03528934304312059,9.850574334794688,-0.006228248832768907,-0.004280485162774664,0.0046349542405666536,8.02
-0.053452181704790096,0.043230420891310295,9.750926670148107,-0.002983180485834939,0.011722412413477249,0.008847565545377977,8.03
0.11081123750905325,0.2044121013430134,9.814060014824921,-0.012685168948392276,-0.009801823652345753,-0.004635207018179033,8.040000000000001
0.00844463744156634,-0.0540672648262299,9.823023068696711,-0.0001847710159877483,0.002494060804151276,-0.000465260054656971,8.05
-0.06788242800969972,-0.1936663628103835,9.907645143821854,-0.004098371854960907,-0.00990222930202941,-0.014936838277317484,8.06
-0.03732671748664881,-0.036209628155939214,9.786626636344202,-0.0019978926237007692,0.019607063324326244,0.002215231033294073,8.07
0.11878247066338184,-0.1654814146945412,10.013946850542476,0.00172032413875129,0.0053302457656574966,0.006142541457202241,8.08
-0.006694785101891806,0.16123692413358134,9.897130678514676,0.003445091211730083,0.005299407535609647,0.0029130225958949323,8.09
-0.005967611677982944,-0.0036341473593117304,9.765920773525036,-0.0004984577244040644,0.008884942792743765,-0.00903228613649918,8.1
-0.03072558293838413,0.04293912037697241,9.815775776870678,-0.00029993332874393995,0.004134150614751313,-0.0010700692677429746,8.11
0.01803571392401999,-0.13259683198380864,9.726517617174764,-0.0010917802860071352,-0.01856711146677635,-0.0008514955170386126,8.120000000000001
-0.02381981890872736,0.01754314798672696,9.937087098328961,0.012271415219402695,-0.0033692011808796564,0.005696623304034832,8.13
0.0735838983755695,0.003224371169693056,9.814141875011707,0.009785952293252534,-0.0011566906390576936,0.015116981683368324,8.14
-0.07007857596173232,-0.1205583810595265,9.68926714017961,0.01339185824470448,0.003254906398573275,-0.017489275925383036,8.15
0.027992220422378707,0.07600962355120072,9.852604424573839,0.006482402121289206,-0.00892366766393348,0.012091714850315705,8.16
-0.05938195719612386,0.10404541506526843,9.927303818730563,0.011304269935990164,-0.005783439584637982,-0.0009376871066896637,8.17
0.09648635551652592,-0.003923267711385093,9.786497662014503,0.010978920836705888,0.010648755279957862,0.02025631168100038,8.18
0.14334144238978996,0.05200160130428619,9.95286806755813,0.008371520611946372,0.005967370020009316,0.0010167704919264453,8.19
-0.044633445934447076,0.07642389633936277,9.767464183685629,0.015973083269222726,0.01550112388986366,0.0035623401806374596,8.2
0.11386614754883598,0.040126327479263015,9.809106006560919,-0.00222738351283436,-0.0007707337262725777,-0.008844937442016719,8.21
0.10412933168896076,-0.23266381710980222,9.88239782527403,0.007721467146161649,-0.013721470268929116,-0.002655473099276528,8.22
0.0544736526639634,0.12926467960408758,9.902787413176904,-0.002144817980370033,0.020093732531415612,0.007191138220282607,8.23
-0.11429490243800647,0.02764545271863536,9.750740268311418,-0.011066741936991073,-0.003129650237408836,0.0069981299451654455,8.24
-0.03422108522493677,-0.03167085407831984,9.733451583049591,0.0034787136234537947,0.004138365376765104,0.018381227046002487,8.25
0.09070984241312602,0.005728999364941446,10.016180012585695,0.011715150428205479,-0.0023978621281308767,-0.019876335157397795,8.26
-0.09402581213365474,0.04024503656616232,9.801136715123898,0.002878743370484785,-0.004939612888010998,-0.007669090311589688,8.27
-0.1098267056109245,-0.07060779521070736,9.705078783479195,-0.009442430711988543,-0.001857826453902476,0.023111393015348595,8.28
0.0002938716805906588,-0.07584067321634591,9.660041675840088,0.0006145183718831032,0.006358189663183005,-0.01398458177211933,8.290000000000001
0.01157522262937975,-0.06790034487717293,9.797618399703628,0.009581430928733883,-0.016953814748009954,0.005329620954292668,8.3
0.30549922258926115,-0.07743077237044318,9.939861420666979,0.008596431725247917,0.01144572152367947,0.00971491170383998,8.31
-0.10113466259290615,-0.19258295835555905,9.745140886888008,0.0030337557491661015,-0.02040718208746634,-0.007486394842010416,8.32
0.08940940234997344,-0.10433815155367182,9.933763162594724,-0.010865257640232304,0.006222108362379602,0.00783480182971025,8.33
-0.03362623866176608,0.1691463919774983,9.533528719279744,0.011737960324495325,0.0007323008789815187,-0.012743087965903408,8.34
-0.08120442859991045,0.1341860972737927,9.956875982918639,-0.003070954443956862,0.008916928323084232,-0.01590627630749159,8.35
0.0877966078860329,-0.1388436891387775,9.826822886037403,0.009419755239006532,0.004382547318589531,0.012314829746899741,8.36
-0.009651629350751343,0.14493935371579794,9.934706741942602,0.010166612426551742,-0.0075960078305872935,-0.006997699052671513,8.370000000000001
0.014029773998240146,0.16112022019283018,9.822226494853345,0.009166085132463794,0.01824836171379208,-0.009204808756816433,8.38
0.18372539060266013,-0.06661711224594068,9.784332423552128,-0.013695503831427288,-0.011522989661007928,0.0045579417121884664,8.39
-0.04401847622442759,0.015769142383904134,9.815609793088603,0.004106447848759856,-0.01528229626674265,0.0024947503988754084,8.4
-0.17763926183786075,-0.09459540975658165,9.73991878746614,-0.0008850824277265683,-0.003932732022475037,0.01034129579795823,8.41
0.04469591368760592,0.12469881113051662,9.898620398553318,0.0017007938824868268,-0.008436243001067146,0.002453256527177269,8.42
0.016036650043471195,-0.04353631618936326,9.689765207272501,-0.012963320584399581,0.021644661527869147,0.019182311933492468,8.43
0.02485386836814111,-0.07138342461988319,9.878744719482354,0.005145954406370211,-0.0160860894811315,0.002739203284417876,8.44
-0.05856192627234674,-0.027369772108966486,9.66488465739161,-0.003669317793045151,-0.008947752031552078,0.006353606610926737,8.45
-0.06148207702183437,-0.019763806215133822,9.851034449707099,0.013550696942553382,-0.013911526340405446,0.004704452749562527,8.46
-0.08178262088772512,-0.03519146081057138,9.802659395361438,-0.016048854151636163,0.001920640994124974,-0.01782043200328791,8.47
0.08486151725811683,0.12183998193295852,9.78033355286863,0.005889100332606572,0.01260980770942949,0.0017115734265944517,8.48
0.119614020982932,0.14560466603071995,10.131413447857641,-0.006939498267038054,0.021685021178532077,-0.03043860290154166,8.49
0.09217643828879635,0.00895492073126166,9.810167325357437,0.001986375404658926,0.00535177002385039,0.00344166376966516,8.5
0.06555955304726502,0.23195476621834465,9.909061587695769,0.0028743128529769863,0.01031545663843189,-0.010225274451180898,8.51
-0.13974567289867051,0.08701066210283824,9.833342968063617,-0.0063497271536338586,-0.008187235943338316,0.010288747117586235,8.52
-0.061169384654632786,-0.1272468018605256,10.078173979280118,-0.00909117748366385,0.0020665451280902783,0.008594233559740793,8.53
0.11434420538865522,0.05083304099294316,9.745088836689119,-0.005023372005619149,0.009009781654169498,0.012994588608647144,8.540000000000001
0.047461314633577896,-0.13007653416633155,9.831435335391356,0.00403089211502885,0.009448988424667584,-0.009060913305974997,8.55
0.1378784671812182,0.06500623392022621,9.977239627212374,0.009843710481210024,0.007912168280109553,0.018328344041754922,8.56
-0.05899192070303504,0.09017013569562082,9.802451884320032,-0.013245795943868996,-0.004971562789084364,-0.005463716134361806,8.57
0.056086584737311845,0.0757002121886164,9.772884288897489,0.02553858892314318,0.004393562768496617,0.0019251384371853798,8.58
0.07753647121974162,0.034706136867141274,9.90247683390924,0.017248677442600006,-0.004109411940167751,0.0003038166952580994,8.59
-0.1150569094044382,-0.10888045092078379,9.832909456571404,-0.00021733365043811057,-0.0045189305652763665,-0.008630697592857102,8.6
-0.010112793284961893,-0.19003120906968635,9.704685275102534,-0.006339856483279075,0.0017711587819153089,-0.0007070371517260372,8.61
-0.13393668269654313,-0.22908328726140093,9.887420033996746,-0.014369216913813376,0.012164148072440187,0.010487373131348818,8.620000000000001
-0.010572675726741917,0.07123958609960791,9.836488948447991,0.020870388633269604,0.010258832427360046,0.025281623241033696,8.63
-0.0870054281963833,0.011953615933557264,9.828812826771507,-0.004886835343266059,0.0012055254628844769,0.002267826950403378,8.64
-9.446370400217128e-05,-0.07278160387015738,9.682206554143633,-0.020712772130509385,0.001265334426923073,0.0017341887104321946,8.65
-0.0093398387348061,0.1594835188930379,9.854786744650397,0.013111226568855654,0.0034575693430250482,-0.003988717397557377,8.66
0.08435643433869082,-0.09252649350159321,9.793692957482332,-0.006030372127530034,-0.0019257310548434054,0.005405556047599627,8.67
-0.0686439737374731,-0.015508127495443598,9.651120687664687,0.00907886163919165,0.005976355632440662,-0.006995552636037078,8.68
0.034064207571552235,0.006288422505525158,9.890581580969481,-0.0008222523773051557,0.00958542086439434,-0.01151010720192878,8.69
-0.00815958442441926,0.09417285926662282,9.759003370914062,-0.0009958171264473107,-0.003084824411469119,0.005391683218403656,8.700000000000001
0.06313362691496416,-0.15689478443278412,9.93391739310496,-0.007881342542172766,0.005218075929383842,-0.010680669102087767,8.71
0.03186509751993602,0.05759703688371864,9.894429522206881,-0.005426671397649858,0.01201326680889547,0.005272422209758411,8.72
0.008410171443358995,-0.08013550979470896,9.631775767197711,0.005369905729609555,-0.00839965650708093,0.006484529790152887,8.73
0.19530182426512763,-0.013713727268797861,9.835423524058678,-0.007867654874480002,0.010885543145202988,-0.0029717564303071353,8.74
-0.09561509712800115,0.04897542888566018,9.786079225010884,-0.002948478173872568,-0.005675663292650956,-0.01400600413259718,8.75
0.18121474081183142,0.02226157268187736,9.862079533484668,0.024764584552351004,0.0021757079187414772,0.003607738911747217,8.76
0.04603073315775155,0.12532826526086704,9.896010293026636,0.010900897767030791,0.003666088020103817,0.0005999586395385193,8.77
-0.12848178386970027,0.040101266896327314,9.93357166745446,-0.01691377899697996,0.011050115450786884,-0.006120899190419224,8.78
0.07865182844159882,0.0792448667798033,9.961093558312811,0.010888638223198344,0.01572632326322529,0.013379600030837515,8.790000000000001
-0.04856171744424018,0.0721173882471447,9.720541334816895,0.00219910531016308,-0.013062081536462287,0.008708197819793683,8.8
0.20272393254564292,-0.16861489605621327,9.641613177752197,-0.013331876415547539,0.005242081696508466,0.0004560880265597503,8.81
-0.026359851680848367,0.010426311283594905,9.744129906401412,0.010699388181773357,0.014709291000252032,-0.01296552565991207,8.82
0.11739467275810705,-0.11011226095565028,9.784648087481816,0.011829549701379517,0.005066326881627202,0.0017527535333987105,8.83
0.17825862680066337,0.0006578909696968235,9.862923876967288,0.004242924336071105,-0.006310594732539152,0.0016611954001231252,8.84
0.09394298074978298,0.21655651889379357,9.83832643949866,0.016607588935103813,0.014735271129063142,-0.002658152274248548,8.85
-0.12263454610230924,-0.07135430752656761,9.822936379090097,-0.0032694662127720547,0.01415427808925792,0.00813027769577682,8.86
-0.10778581239546683,-0.002893979339763578,9.772053709378886,-0.00487946909669705,0.017215977895852098,-0.00242364202508526,8.870000000000001
0.08770559309688813,0.13857404877364576,9.72004932473851,-0.009195486768027415,-0.0009361364308119748,0.015533111338910536,8.88
0.03049356053998691,0.024067357485082617,9.750561602146114,0.003283432064985111,0.0018392283834463314,0.0050853486053573415,8.89
0.15974109353402308,0.27214054141661875,9.874328416348057,-0.008827704702087333,-0.0059684123735358596,0.01045658563356354,8.9
-0.0629826370486116,0.053429849829844646,9.743590252524058,-0.001392561626650732,-0.005387532543427257,0.020001867184824898,8.91
-0.028067635917820712,0.05259764493348738,9.617795909529224,-0.001094949362316538,-0.0035089105828248184,-0.00022298801894267254,8.92
0.1670383137960797,0.02331571937715802,9.665913710849606,-0.00779023236844872,-0.022721242901835494,-0.004871354962949881,8.93
-0.05258390379731875,-0.278521941864947,9.783288725552913,-0.0016656173403330325,-0.005660279352420445,0.007055591907910327,8.94
-0.16297948459383857,-0.13695681445901792,9.879829610890397,0.012124104167116248,-0.003242496020411204,-0.004774268116658396,8.950000000000001
-0.014288783488807924,0.03457340540083376,9.950206405504348,0.010830781274913855,-0.003806473540447975,-0.02301664314741301,8.96
0.020751501732348115,0.0519782805202143,9.89481043555363,-0.0015315659448842981,0.007721101266704075,-0.008726551706225397,8.97
-0.031744181657828434,0.08997677073262027,9.781171483923334,-0.007030485458715787,0.009383627920730305,-0.000720310662959895,8.98
-0.14120473386292295,0.06785349087855487,9.78175755585468,0.008424923524275155,-0.0037545416358226026,-0.012870507142189163,8.99
0.05308406615008369,-0.2068219440081284,9.746870312814918,-0.004203940421578549,0.006245354851903283,0.003234035011194484,9.0
-0.06750065968696616,0.06484924473836573,9.76937866056346,0.00017055751590288365,0.006268534203503975,-0.010023244715971602,9.01
-0.013669949191041173,-0.0559675643182016,9.844832548294194,0.0011495130979032003,-0.00809875683447789,-0.004613838392166056,9.02
0.06830015488842599,0.21711790077074775,9.81582405985042,0.00805534560219154,-0.014924606638956544,0.00950741728186626,9.03
-0.07387505599544003,0.04906929615360669,9.793138756420214,0.009922341836867408,-0.004805633856994912,0.006139330041788847,9.040000000000001
0.03326551007612709,-0.026714158571223764,9.816131494810914,0.0024412177101075963,-0.0026724063327701482,0.005771968860822355,9.05
-0.014641437219985138,-0.11823800210661442,9.747084437878561,-0.0022034447510837344,-0.013662476844303877,0.001564593375719716,9.06
0.161150422355577,0.022463012519741594,9.750239327444381,0.01891743159242953,-0.014311347312766025,0.007643565003113172,9.07
-0.030089942976127382,0.2029032125776396,9.764334066643748,0.003969938725293291,0.0085780787290247,0.010177098047295646,9.08
0.015377259100831809,0.13712512770546334,9.786967241686911,-0.005968788482796147,-0.008285458246092663,-0.010532562333495537,9.09
0.05185031481797545,-0.0045843169941208,9.71541264116204,-0.00044137913003419954,0.009235512114573173,0.015950492834053857,9.1
0.004392046132858861,-0.05042603530251662,9.678421527648561,0.0024641988412612828,0.0005580218324162857,0.005547632248852188,9.11
0.18795747563813014,-0.20426241851364457,9.804403873694008,-0.006059557403812548,0.0028142776473768123,0.009600884472156967,9.120000000000001
-0.06929688684533046,0.005060848158587674,9.6841994606844,-0.007427417180062092,0.0017006231483644035,-0.005484418295747968,9.13
-0.08718161048542628,0.2792473575140852,9.868738364068587,0.0012374055140567466,-0.0006017331272188898,-0.005892708940186493,9.14
-0.09792735214425018,0.018010342052497384,9.67730509594429,-0.010600178231224515,-0.009751758002317777,-6.92482772223416e-05,9.15
0.03227708899568327,-0.01298450607913933,9.811939654004066,-0.00648256458141276,0.003979223225740589,-0.003377197857634117,9.16
-0.006204248070682924,0.03814807036210207,9.780769186787653,0.00877303673110848,0.0003412528026911506,0.008299535835779201,9.17
