ax,ay,az,gx,gy,gz,timestamp
-0.0732128069949623,-0.1883143500053312,9.7880139414062,-0.008149432199238055,0.005102285528226934,0.020260146706203495,0.0
-0.00861450762470506,-0.2168249672602568,9.953972822993936,-0.009608362457883156,-0.0033186103310789044,-0.0035874162805762167,0.01
-0.05403638650269549,0.11286802531387788,9.652404668501136,-0.010043255752141506,-0.001804507953600483,0.012363211230503948,0.02
0.11365201692650036,0.026687408325388497,9.86790750044721,0.011477151377514512,-0.0033076955192153368,0.01252963786209399,0.03
0.09051051327594904,0.2244686009774508,9.879284246281658,0.0069146442489268906,0.00916648427999147,-0.007507296011230801,0.04
0.14287268861603544,0.07629160996536527,9.890301277565854,-0.028922511832620516,-0.0035931033930354157,0.004965511293741828,0.05
-0.03979538849574625,-0.07532685549712606,9.89293618496934,-0.008612168098972441,0.008899704587563808,-0.0011863524898566,0.06
0.20371387988974168,-0.020706465534141356,9.76409485031988,0.005254699607631628,0.0009539822384443417,0.00020202121173239524,0.07
0.06687143595517761,0.1260061979947528,9.92904239731722,-0.005815952162010586,0.00247835688298212,-0.015312387144142346,0.08
0.05509024605063431,-0.08081697501421435,9.80977184982155,0.0004667327813005644,0.00014871344650397143,-0.004702525270852641,0.09
-0.030767995651061083,0.04140896851608725,9.9353388221056,0.004490945577235097,-0.003244972825427873,-0.004037813062277386,0.1
0.06518052048023586,-0.18776923618501248,9.925846380556642,-0.002160640658480742,0.00795131647547126,0.004764528447327705,0.11
0.12069644646715237,0.07506390091033843,9.847603868691465,-0.004935011101181325,-0.016089819005964776,-0.006480994652082666,0.12
-0.005437576443413496,-0.15338844847752758,9.871706343690747,0.014625265595302337,0.008928489536038017,0.0014893065942853455,0.13
-0.05555083137475028,-0.12152424711477552,9.801637851964463,-0.007730992775884486,-0.002894163802604373,-0.006973435785465744,0.14
-0.07937067402137173,0.04468887424449969,9.640900096963117,-0.024968598307781392,0.004267422069325838,0.012167922237438612,0.15
0.18269344367155158,-0.09534005939010692,9.753679369078135,-0.02136871852690715,-0.0071362949871644,-0.004205822355660425,0.16
-0.16464752023403145,-0.026981674004129853,9.846526872425232,0.002265112389136731,0.0014746931129038846,0.0009789826965127559,0.17
-0.06674335754317061,0.29230317469827877,9.906801093629333,0.007922584209360733,0.013125283008712525,-0.014729489948724661,0.18
0.049905635780811065,0.0739200721182112,9.980379706822255,0.009366859521723185,0.009517197420102139,0.0027584415554168826,0.19
0.023092700172670406,0.04095036512951656,9.665553933131507,0.0029988335143801906,-0.0037545457255024717,-0.003169059532091521,0.2
-0.04190290912943272,-0.049680745100445366,9.95139415757618,-0.006442577431736612,0.007195821727978177,-0.01633498777334329,0.21
-0.14485086913872314,0.016720312776812157,9.931228096447587,-0.0016322146252300855,0.008127145661783132,0.009757197975920758,0.22
0.054467257845281586,-0.031176453188026334,9.760584092974213,0.004581261176091448,0.005593214966019494,0.0005810011436467817,0.23
0.10251412910252314,-0.1297162739046881,9.696811993243795,-0.003546656721003589,0.010024600911393337,0.0025116250364733807,0.24
0.08299780723680017,-0.09273318792100367,9.776091935617524,-0.011736019949284669,-0.025018770238723467,-0.003447132918071834,0.25
0.20538723506755502,-0.06867906165498798,9.845499257839483,0.01812098331690198,-0.002860767717925844,0.0017710926744889117,0.26
-0.04464613280971646,-0.053103306892295046,9.655083903744845,-0.0027272252420213446,-0.00435606231911553,-0.009521556426566052,0.27
0.0031326920625369212,-0.019855657543087966,9.658775203238552,0.005300566824206162,0.011658825688938746,-0.013494055202443928,0.28
-0.01843952207904184,-0.04075818318033206,9.580106234492618,0.004613372279178074,0.005553828258785189,0.0019835384035192835,0.29
0.06352797249036145,0.1377363684544836,9.723063156308038,-0.012705031166157753,-0.005595132597438062,0.0008194032062685343,0.3
0.04933459652654096,-0.0040333752936086665,9.753279587187427,0.003947885689410119,0.01044555618868549,-0.014662810011690612,0.31
-0.022057928021750536,0.043909702151722574,9.771688851237675,0.001794360082385472,0.007602881508516053,0.008268207835356388,0.32
0.06035202515427455,0.03569554757153589,9.952385358185225,-0.012486038764558649,-0.015840041386908737,-0.004747294497473272,0.33
0.09827419472799064,-0.09064923591682103,9.825810195590362,-0.001807609849308209,-0.008145900879270123,0.011505879031164375,0.34
-0.11375403949430092,0.0463357807104056,9.748944052275299,-0.010442392892996113,0.004393433993059175,-0.012398578084018869,0.35000000000000003
0.17747873572222966,0.038235075650666306,9.833862771525157,-0.0008888558983390711,0.003493550107931074,-0.005793693048643178,0.36
0.05066230707366011,0.18183928779586533,9.883762907116127,-0.012570151432579751,0.0028669248219120075,-0.0007872321201407878,0.37
-0.03235612180842024,0.12203628256157262,9.687021492809947,-0.0014096961007098144,-0.011696534657906441,-0.004105822102364919,0.38
0.01874282289783588,-0.16452762981475028,9.959189724212301,-0.003994523427910051,-0.014132685932728425,-0.01891503439206504,0.39
-0.07758250938744596,-0.07900992421038044,9.692469230719174,0.011858164832344847,-0.004126091197769387,0.013950168877725176,0.4
0.06146863921405058,-0.010292805831510682,9.75329470761484,0.009925326214472771,-0.004094307215855229,-0.00511369811150755,0.41000000000000003
0.030799108466697023,-0.17038101081754894,9.813698729570222,-0.005242348371429681,0.0034544443071758153,-0.01992979165871363,0.42
-0.01709627164012533,-0.12350812510160268,9.66665197030779,0.006996220470956888,-0.004328898054132942,0.004665747735740135,0.43
0.035861080620487366,0.062266261521100735,9.894963585846304,-0.005727455089438317,0.0015872265084179756,0.0017553134595582626,0.44
0.06741134133337354,-0.08067969535272089,9.728204604132896,-0.0166869772960212,-0.003271768745826071,0.0018459318754957003,0.45
-0.10739666851835897,0.05118257981770372,9.812169891265375,0.011498420127544871,0.004865182999014681,0.0018706341253142964,0.46
0.21001638795458544,-0.07059088731686251,9.698730005605318,-0.0013643722318157658,-0.007070338482998741,0.011089509923589876,0.47000000000000003
0.01686285073294417,-0.08360737728643845,9.865249211376463,-0.019297597411425817,0.0011215149662249495,0.0017594519945888986,0.48
-0.14700426130750643,0.06951365236159097,9.691966131008428,-0.0017898037765595098,-0.0012585354860557016,0.007666285905365377,0.49
0.07500124473241078,-0.04320108039876408,9.682466092245003,-0.019523392199416942,0.001587620625259243,-0.012888194817428715,0.5
-0.05577378257419348,-0.005074676298588537,9.721517785355596,-0.015268207219342314,0.00796651543910216,0.014982212091595136,0.51
-0.11028132636828547,-0.0860528184102329,9.65394463380918,0.017379039449014314,-0.0013345597204952073,-0.005167388036152011,0.52
0.014136058538161484,-0.0704467761810734,9.903721312288551,0.005337073185741324,-0.0039023664304064947,-0.014694074820332442,0.53
0.08660267480186039,-0.20150266451626808,9.790049245970748,-0.0038908527081149727,0.009427496359222826,-0.007833801725357943,0.54
0.09740485254724784,-0.016942904360634368,9.998340271250306,0.011422933182624518,-0.010688531150299245,0.012897997036858063,0.55
0.08546082199536587,0.014382353890635642,9.761789087259425,-0.002064659136108434,0.0022105276665971914,0.008242838112500797,0.56
-0.13318942445926638,-0.09956326624914452,9.907158367423834,-0.001471106733400319,-0.0004280649451550836,-0.0017644794659263869,0.5700000000000001
-0.16337678829127616,-0.1380701641395236,9.723072266186357,0.0010105094094017316,-0.0004774040041268416,0.00742839483871432,0.58
0.02613642763643506,-0.12746209927020366,9.82254087051578,0.000799173208008092,0.012663158508617265,-0.0019415887193569724,0.59
-0.056725924120115706,0.008261190555588651,9.752282598436906,-0.010511794661746518,0.010089555933988468,-0.00930199905302067,0.6
-0.0799929242634641,0.1679753875998606,9.749797003998014,0.005217375097414244,0.017948960025126352,0.001527610484994668,0.61
0.01916983685404411,0.0974729687564293,9.622383588507962,-0.012343814644888167,0.00980262551995066,-0.012691981209958621,0.62
-0.07205452157914975,-0.05963117311638064,9.730623890425708,-0.006301987431470864,-0.002916527207659725,-0.007828698526577669,0.63
-0.04101539775116232,-0.009743879780318897,9.901764288279537,0.006559289479157027,0.001597144926543083,-0.006078872049609095,0.64
-0.02917874203850107,-0.02461071594686285,9.940094654209876,-0.0024538718549281698,-0.0034982035863639254,-0.00672215310258248,0.65
-0.153421882731411,0.13429786694006582,9.871863243487947,-0.013359744654948866,-0.0103684989084818,-0.01722129087826266,0.66
-0.09064491829693044,0.17677148368717344,9.585288278483588,0.004535889417747438,0.02580083129833776,-0.0045876614539858245,0.67
0.07542685124984468,0.09600560389154428,9.842372447255318,-9.32981989702989e-05,-0.00830623941309521,-0.006419827362633921,0.68
0.19832243842189645,-0.044776087718677665,9.76810839513793,-0.01787426487936228,-0.00882322726860656,-0.002762823649168102,0.6900000000000001
0.009189454352186441,-0.1021920145978119,9.756670058986558,0.016025528490252645,0.009416407531487548,-0.011156289299201252,0.7000000000000001
0.11973756541893386,-0.056015900447623834,9.806896646750756,0.0017051949772621093,-4.9693230210992345e-05,-0.005915833696271893,0.71
-0.12336293372240459,-0.07214074862390311,9.834743352612232,0.007592704909403383,-0.0015707225985795695,0.004376599668939152,0.72
0.03318869782354427,0.21051595614335647,9.887076863791732,-0.00988129731179977,-0.00516751318909077,0.004826527820586486,0.73
-0.0054583279301781565,0.022225302312939982,9.935986232896543,-0.003165743634632278,0.004682046185922817,0.009168737683508666,0.74
0.043548686467446765,0.0535954384630166,9.685685224332854,0.0005029069318870207,0.0003128590486272122,0.001219291164656089,0.75
-0.11162658489151644,0.017098393371570007,9.576010844113528,-0.007343291313073478,0.0025677379117754555,-0.027134806470647557,0.76
-0.15110459562401699,0.19390747729855984,9.932317601350821,-0.001265241075351951,-0.009137685848919462,-0.012486610383677328,0.77
-0.0981982128877319,-0.006397571268810418,9.887278702191491,0.0016520843232967135,-0.0036569850891811817,-0.018696829850038586,0.78
-0.10286191266865052,0.13143841448582744,9.689788019667617,-0.0007719296647683222,-0.000515918101427288,0.0001995412299894552,0.79
0.22770633194721418,0.057430745970811874,9.766681725420362,0.005860913230650356,-0.00527408495442902,-0.0060158232572752384,0.8
-0.10145302909192296,0.041462726065168244,9.869099141493452,-0.009119245439670652,0.006418155070179593,-0.004456947352291896,0.81
0.06473822000138481,-0.006760450228137609,9.760370500859459,0.0047674657924228455,-0.0019505164990278512,0.01380636939144974,0.8200000000000001
0.045929001684802906,0.000665454295022003,9.567152345161665,0.0038534288220739865,-0.011508581527885703,0.013698981079705819,0.8300000000000001
-0.01047998966149693,0.0035317980111277854,9.895282123957468,0.0033923272419523437,0.01602199680472864,0.014855774664321255,0.84
-0.03954706458323787,0.18285049081375815,9.819144877580976,0.013093718205658734,0.021113365433016305,0.011284694865265621,0.85
0.02615063147756584,0.15510160774514994,9.913992713295015,0.0019716890308564346,-0.0025917049075408756,0.018498915020088606,0.86
-0.034090517105065714,-0.1378308653103136,9.773087872283147,-0.0016216613731455855,-0.0177038686074176,-0.006456634126830153,0.87
-0.0808367091202053,0.1000205754840201,9.798709770436366,0.0029209536179394097,-0.01036973867337073,-0.011395403122566655,0.88
0.05698919265333069,0.04335231499051517,9.985771170813031,0.0001978113374975074,0.00840079471268449,0.01455137075756525,0.89
-0.08923295207499733,-0.1401256696343386,9.854726661627659,-0.004983943717085303,0.002323664968117037,-0.00560632633554026,0.9
-0.17730127184160582,-0.020170336936694386,9.490864863753913,0.012353859769895108,0.017953062055492443,-0.012860610532119756,0.91
0.07542867874399736,-0.04092673553172649,9.89362637409636,0.003177319698959132,-0.007596989870704813,-0.001658587040509072,0.92
0.08166698144465204,0.02600074817436905,9.913006731066963,0.010925735827617727,-0.00048167823021564297,0.013474916313056258,0.93
0.1739559752856613,-0.035806429957443535,9.739572637428076,0.01264503945781374,0.0036586356296763817,-0.0041527732719994674,0.9400000000000001
-0.18825049446798445,0.09545426155743891,9.904418837427166,-0.005309444167923046,0.007138903272469317,0.001960876494222123,0.9500000000000001
0.12482921547311121,0.08601621264918816,9.791302392299134,-0.01277901809502435,0.0031636561546983196,-0.008315975553156621,0.96
0.008929203311223417,-0.059842293622857805,9.93015094907689,0.0075514246167009405,-0.0010702432909709082,-0.019801531921127515,0.97
0.0879840760670818,0.03505430631351791,9.802658934084315,-0.002882577536886431,-0.019631839455522933,-0.007310896638159404,0.98
0.058450023159583114,0.07041402005366153,9.877318808524835,-0.006193533319253643,0.004572961153724125,-0.008911959371288166,0.99
-0.1527152000720031,-0.013057611115843974,9.719442592792689,-0.01189324652699412,-0.0018645537276104995,0.006406248454560364,1.0
0.10936309565851486,-0.18507722402249793,9.774556548070816,0.0023208575475337167,-0.013292939679248114,-0.006026296511737503,1.01
-0.10216257164143248,0.020974887545043973,9.788355482417211,0.012118375941712323,0.006305008187297951,-0.006130296460749182,1.02
0.062211514703906325,0.08204689887648292,9.779717851268046,0.008081939260877672,-0.006786826250986949,-0.0008680059046361621,1.03
0.05863964273861975,-0.14934065444983044,9.719285971017845,-0.011989597699017598,0.003476730299468512,0.0017805944526826255,1.04
0.011176184808783301,-0.07569373664360557,9.9258113960551,0.015299036097906688,-0.007525051124761321,-0.019913143666857317,1.05
-0.039466639081033726,-0.03476925876337857,9.815033879140758,-0.0032514803160724947,-0.0037852808301062197,-0.03129657948119791,1.06
0.05114158949624473,-0.0004584023590937726,9.787545280451402,-0.021178184127799895,-0.006663296699390575,0.006842025182612855,1.07
-0.036237263032683646,0.1145016293237917,9.88335135536798,0.007346636841352323,0.014222878116705731,-0.005073439467190953,1.08
-0.05060595261129828,-0.006721437190328833,9.682222359816656,0.008044785053096767,0.023157150015255507,-0.005915171349199559,1.09
0.007842426796349528,-0.07270146631206349,9.736656315465558,0.013125222100502473,-0.004663989283172506,0.006527316587971458,1.1
-0.01756823066838715,0.010079385733326798,9.830672644677936,0.0034860130873096457,0.002707658943440218,0.007290469063670229,1.11
-0.10962800690341537,0.009277730672394936,9.885658887618222,-0.012643005266638146,0.015696773607608946,-0.016188847846355003,1.12
-0.1497020071532996,0.04718821347760001,9.908568305132487,0.0057922608613755165,0.011706477373015984,-0.0004321890867660631,1.1300000000000001
-0.07835224672194002,0.14823022277521486,9.69294193220072,-0.003339169348105602,-0.00019161070986774525,-0.0029921206860201084,1.1400000000000001
0.063416289276628,0.17867854741677167,9.776257587107228,-0.005432470487334643,-0.0035055004332384767,-0.004182263153950211,1.1500000000000001
-0.112292743505367,0.07865832603123761,9.820011470918894,0.03448165331914182,-0.004515807620147379,-0.0035230921453823995,1.16
0.11009946336537334,0.0961166920174606,9.960405508097498,0.011495657012984275,-0.013928209652664955,0.005515148989875441,1.17
-0.11852697018302023,-0.1453299092454274,9.76918870089101,0.010168969312320744,-0.012390588856970582,-0.00528780018664277,1.18
0.08949719317596849,-0.1372514754273825,9.680951650239802,0.006825693264826199,-0.006465573920334627,-0.0023661103092185473,1.19
0.05140195634380267,0.016608290061015895,9.822067483212578,0.003333016844390001,-0.0009749410712860278,-0.010749857162392488,1.2
0.11959173777591486,-0.03455382569433835,9.729330903960637,0.0024665877052919435,-0.012148353559625265,-0.0012466857291485237,1.21
0.08344300693641368,0.03509463370776716,9.572500847811455,-0.012607086196247681,0.02107783081508265,0.016148967798086028,1.22
-0.034518083257375196,-0.11852934907956694,9.785878573464617,-0.010515693006601807,-0.0051419858922986525,-0.007793279406369859,1.23
0.01636714564853799,-0.029175089611213414,9.881539664381489,-0.024188244763010746,-0.0005451823827105273,0.017950035157491787,1.24
0.08347889752668876,0.1693961927148427,9.851150658253472,-0.007771086897973123,-0.01293130515619713,-0.0021227690024303446,1.25
-0.03397797885457563,-0.07954365850994553,9.960031127528225,-0.015810897373043857,0.00469587958623875,-0.009072900852698433,1.26
-0.0290966735838964,0.20350409386791762,9.991207114967816,0.008772035896777672,0.0006518722671057268,0.006508470143375073,1.27
0.14894520573273493,-0.0879249453630243,9.698986508652236,0.004565532939019439,-0.009202299019543751,0.00552798004531688,1.28
-0.1419512749554165,0.17578391110642788,9.91639971802169,0.0008384565189143452,0.005888427850330727,-0.02039631767609101,1.29
0.05745263817712122,-0.23052238239328485,9.842632169770857,-0.001773297976637271,-0.020401875442602777,0.013364075301262933,1.3
-0.11794077798137402,-0.0666956460184338,9.646378936069489,-0.016857610964151847,0.008321915179567343,-0.017242542274309047,1.31
-0.03608448462001641,-0.03259630224039932,9.707595898259372,-0.01744368616627971,0.0012327442184921211,-0.009481433225630106,1.32
0.04269390621819905,0.06227945333314244,9.790188662248378,-0.0037583331780537176,-0.010635920636674775,0.0004685962907734605,1.33
0.07624501198738426,-0.02532227669463509,9.89169670749482,0.009340374425416204,-0.0136522153429917,0.003198059105582024,1.34
-0.17358900845368352,0.01990175654959738,9.610646843446839,0.0032466399882890426,-0.008216868919757883,0.008270363477508294,1.35
0.03404375557137592,-0.014288299526112078,9.875402537571928,0.013100989072897352,0.0013658062131639884,0.016161265064255574,1.36
0.014262608801688531,0.20987585546229814,9.683814808250826,-6.159408364208854e-05,0.002663494254291933,-0.021686661113443854,1.37
-0.033462755104929014,0.05989996010573198,9.894719637495403,-0.006123862722315713,0.014863398217494737,-0.004135459864807824,1.3800000000000001
0.10987365447109639,-0.07476236024297633,9.78602962879329,0.015216960680703098,-0.009675520614106866,0.013582922092884347,1.3900000000000001
-0.04081779494445367,-0.03402086130721168,9.918122995825204,-0.008995455315847426,0.013089079067823448,0.005740079031990625,1.4000000000000001
-0.0579530589090948,0.19784484701178642,9.86013204522961,0.013682891297477412,0.016254824590108588,-0.009649842881553279,1.41
0.14627905930116591,0.09393532808566243,9.771361268745355,-0.003765963103433087,-0.0071446058216273894,0.002227943672185874,1.42
0.17434280070805241,0.00961061154772463,9.917535727579843,0.005428369620124416,-0.009989429253958968,0.00597246360477415,1.43
0.09364084283955475,0.028250342738212753,9.81219476151241,0.003916137724158466,0.002561051423359788,-0.01196203048030154,1.44
0.05595497112506414,0.08830126623789186,9.839073143845935,0.002418761180892445,-0.0008769277172588877,-0.0018558969282688803,1.45
0.0986979888222648,-0.17060041709897367,9.748226526314559,-0.0001854406662465552,0.00506632899989466,0.01141713278494328,1.46
-0.058414366610015506,0.05968270259749961,9.861573410476524,-0.016420006262974924,0.008778378215309262,-0.001883738896320379,1.47
0.10144274449892082,0.10598421931729443,9.574983138260237,0.012856105057419279,-0.015132284630421385,-0.00750517697215621,1.48
-0.1252508401189235,0.06202032651509024,9.760238597095691,-0.0037716639212257434,-0.019619030206295164,-0.00546599599455538,1.49
0.12999834823879167,-0.024619836186796893,9.796620517600184,-0.010519655130512872,-0.015259788677890665,-0.007288443564810715,1.5
-0.04264273020057373,-0.11815130819705805,9.922893110761242,0.01782080608475697,-0.011375534475098118,-0.010128118902994985,1.51
0.05702581160130663,0.02885718086687568,9.70893387665155,0.006140949097487934,-0.00018387357115747893,-0.005795934085806441,1.52
-0.02377301265410138,0.07695158674442626,9.86984888206049,0.010654225065617343,-0.008488198722150482,0.0014267484451722268,1.53
0.00486120380262885,0.12271696607178975,9.759411741553373,-0.03422089004558774,-0.007463266878830478,0.009764304007349534,1.54
-0.031642734940521375,-0.0029796050239509365,9.725903665930998,0.0074095887631961945,0.0014685552730294012,-0.00951774385056808,1.55
0.16053207149155138,0.014321787119922198,9.838395560986843,0.004392250893945432,-0.011248017424570168,0.0018962641218668323,1.56
0.07443661035714456,0.0131658950649624,9.655830134548184,-0.014707254167443012,-0.017763832081220312,0.009307821710566372,1.57
-0.028135557514333817,-0.06869558259617649,9.68976917676086,0.016922636380127393,-0.0021661143193360904,-0.017209739704090284,1.58
-0.10670796188739964,-0.12049680866745144,9.891142205029224,0.018801973927671183,0.004911485109054097,0.014955693932482288,1.59
-0.1316079186934136,0.013701170796894535,9.818496088280641,-0.007515529042870383,0.008217502301901576,0.005120661203295493,1.6
-0.1355898474065782,0.02064334459656031,9.74941203321194,0.003238666689246989,-0.0035422544414465784,0.003523430967848406,1.61
0.12913671402972227,-0.07504329494536233,9.656038863038463,0.0013307725438231905,-0.024742896131628302,0.006273360302017425,1.62
0.03255797720837455,-0.08445380793421234,9.860560369894362,-0.0045450919092950804,-0.0005907414961338561,-0.002075928940907074,1.6300000000000001
-0.10097363000736721,0.08357089115935917,9.815749028746081,0.009879763527260456,0.004003971955520616,-0.023061698273506914,1.6400000000000001
0.05829447484320952,-0.1350813871462267,9.969007282710958,-0.00658870275352004,0.009420703565984343,-0.0022447540669866526,1.6500000000000001
0.015628579357768842,-0.050899480394373635,9.718007666513651,-0.010620990085198581,-0.017367221790224718,0.025244617451689,1.6600000000000001
-0.049234259302582864,0.12820903229031763,9.817631217879898,-0.013032265715612312,-0.0034514393208031026,0.0010006892113913128,1.67
-0.029425519899017257,0.016617826926692305,9.786986859040208,-0.003429756165628532,-0.018289744814756054,0.00775844304273849,1.68
0.04812527609999862,0.027703226151932145,9.894201569801718,0.009488646277987437,0.015164446067752274,-0.010946218367034286,1.69
-0.02883523292939822,-0.003913770153108065,9.89504322087737,0.00568300698325539,0.001948742095500475,0.0007154521589560003,1.7
-0.07545061210453523,-0.028120384068787627,9.962982049227362,-0.01409752382205983,-0.015112444470831004,0.00616944618078993,1.71
-0.029453230751665355,0.2204250794930428,9.771373429123598,-0.0032276581309923394,-0.011999595156920008,0.0021954588730345214,1.72
0.03291925189946598,-0.005500545751475131,9.725514670442985,0.001004067555859154,0.0061509121823987625,0.004332885479683531,1.73
-0.0788594386615588,-0.1394220503135837,9.910586656671489,0.002238001963170293,-0.01163529397385858,0.008496509847217884,1.74
0.03677583511588071,0.09026001168823826,9.993663302418597,0.002438176116760159,0.001356830150494155,-0.008795613823190183,1.75
-0.022432312277148547,-0.018151407351141714,9.69367575328318,0.012054211617365316,0.010579712903124512,0.010379779229378761,1.76
-0.0019124766670866316,-0.08335513956914298,9.72494525219548,0.031205843219523823,0.009865554383073223,0.004114585326911661,1.77
-0.021480438776371267,-0.17122442903262797,9.771720814388532,-0.01567008364575578,-0.011454655049454514,-0.004566337960851148,1.78
-0.020848356515697955,-0.17736970186945172,9.81061178398526,0.012281244639258851,-0.0233545999077418,-0.009919722450444552,1.79
0.1544602538800277,-0.022678231340990573,9.71602734104004,0.0014947507909568705,0.008136971499202362,0.006611140799877406,1.8
0.04097654458714105,-0.026922979326219794,9.815299337644111,-0.00807362856308592,-0.020675718429826056,0.0018007799238153083,1.81
0.0641520919480718,-0.1993818696429886,9.874331050140555,-0.01102005354215944,0.021391228662482078,0.009694881319575206,1.82
0.03460978655240574,-0.11366465717390468,9.891058021838575,0.0033405371425826486,-0.0038967817766129642,0.004345849241378986,1.83
-0.09209555715566912,0.07254072297764196,9.854568067139017,0.00917390297651,-0.00044728342783133555,0.015112876897254539,1.84
-0.14216601584232566,0.011318398121820583,9.745517041955084,0.001763968472675442,-0.008213974157589093,-0.00010487311703637419,1.85
0.019893238447702574,0.054173411619800216,9.814862381816337,0.015275614124828708,-0.010963451894630317,-0.01781722338397147,1.86
0.1311047035891098,0.08478136194087635,9.773226888221421,0.001838022736294086,-0.007547846461893801,-0.007282734739241122,1.87
-0.13582372801808534,-0.0842520292406948,9.603162779228148,-0.041182839336170514,-0.006935489585091567,-0.021028079428151925,1.8800000000000001
-0.06321829336251536,-0.18241116297006255,9.784583685565357,0.0023048715975717473,-0.0006954656881033829,0.00995360341666067,1.8900000000000001
0.05430412651924393,-0.08313110323509619,9.763808475439907,0.007366277809294516,0.013706367872382375,0.012849977021810241,1.9000000000000001
0.037319401536076845,-0.07702401478239274,9.930331974545414,0.013042774469094288,-0.004848436547863403,0.002659626370430641,1.9100000000000001
-0.08008528095613832,0.06524585414065491,9.930476922665855,0.009962336828167715,0.018894221659194698,0.009021464493503219,1.92
-0.15097455594270706,-0.0006972518120012611,9.767923128805771,0.010166596236470836,0.006773184908329083,-0.008546504792687,1.93
-0.04147354613388609,-0.16982533895435759,9.90033214299625,0.015475240703402275,0.0035477970249144955,0.0002584182746150353,1.94
0.010602980185671537,-0.10486573449989428,9.861326111288557,-6.33068493108307e-06,0.004078909941199234,0.0034224902101245326,1.95
0.09915358858367035,-0.16938154333909466,9.921125157142244,-0.002227247269945636,-0.003603418766384106,3.8658520740627825e-05,1.96
0.05535470093778192,0.06866819793141352,9.745886197215135,0.012940902953285984,-0.004574866262146481,0.006000612924026609,1.97
0.1339406870538,-0.022546168922766185,9.977941711211773,-0.0036023897023482326,-0.005752894345165639,-0.010007500583859012,1.98
-0.0452858129882704,-0.045548148296792705,9.890786610091748,-0.01303835684971424,-0.010823406661551953,-0.006922537411463992,1.99
0.2063853993445348,0.15862413116384355,9.741386507704942,0.0003105885225495112,-0.0064633828796350325,-0.01980387457735476,2.0
-0.04300746692852458,0.2652961860163077,9.77463391487865,0.007316910627275871,0.006548345994169428,0.004095283361823119,2.0100000000000002
0.05898914061749803,0.03476402495766846,9.700871728143959,0.011871825464010203,0.015172292612610303,-0.004686552898960159,2.02
-0.05449941429477856,-0.006329703998251868,9.763277195306234,0.014951896688991642,0.003247239127945825,0.007186236264659515,2.0300000000000002
-0.20069688940216523,0.13349803968207036,9.952150255353633,-0.021856316361832974,0.02285369365826321,-0.00808354382212184,2.04
0.20656367181363833,-0.08199652262959072,9.800068408055223,-0.011730231302807552,-0.0003497111014756592,0.007553451242306006,2.05
0.11777746185481382,-0.08458559170040994,9.865675708481524,0.007414146950253192,-0.02191655294743441,-0.009634121264696836,2.06
-0.00524889797362712,0.0026860237751952848,9.75135140060391,-0.006992036409410729,0.011127318334589855,0.0031035986414590807,2.07
0.01941332897844115,-0.02922105452357157,9.83809942136438,-0.01476184591823381,0.011025835261451851,-0.0036105078936141195,2.08
0.05358485984198977,-0.1184740283693379,9.816276316531193,-0.011946918493725847,0.0027801546544843465,0.0069168510467325075,2.09
-0.047050159875355976,-0.07781922280344106,9.832885363076345,0.007358322393686755,-0.0019772384757934386,-0.003409158703206697,2.1
-0.13662742510542347,-0.003147985663684518,9.745943504481097,0.010103912079471162,0.013738483056149447,-0.003466379554771637,2.11
-0.06698591563758242,-0.0692128196237782,10.027806703685341,0.01091007395731656,0.0073149863772541505,-0.006688624234387485,2.12
0.014596389558796241,0.11367968672534164,9.789906592890507,-0.0047075096786741875,0.012352382054857827,-0.0014968820944263861,2.13
0.10040367697539701,-0.0075859602457081475,9.918093168144802,-0.0021977048039953603,-0.014767627300805877,-0.011068427577414202,2.14
0.18343970180787947,0.06557900196924175,9.8501198448981,-0.005798701939734585,-0.008509897505427145,-0.0027949007354682786,2.15
-0.11823186404641367,-0.09235274785650224,9.735318009219233,-0.014553652302017533,0.004604910332713472,0.007339883925776345,2.16
0.10975511669280168,-0.06551239857258333,9.697570650314702,0.0007143568578887242,-0.017797470561393035,-0.004926984588162583,2.17
-0.14774972468687267,-0.1950566764404807,9.881087706068579,-0.0010488193369533336,0.0002906897925059664,0.0014188352052507411,2.18
0.023024966124746873,0.005932408712086867,9.93916508243358,0.017217401034719873,-0.0008996535643206866,-0.001505265067974943,2.19
0.033020188030876085,-0.0676924128965336,9.78476784332889,0.002536512942394243,0.011030746576577948,-0.006539741098356706,2.2
0.11026687522309149,-0.10276712371807706,9.949567100071341,-0.013972246977452113,0.007948071088216595,-0.0012228016535181655,2.21
0.05102929855644181,0.07690347688598105,9.986026318774531,0.008023850348866228,-0.012002459674504515,-0.0004118428959902129,2.22
-0.04926570358312952,-0.1363596229753892,9.935806894570083,0.006446303299833146,0.008508327999505247,-0.014712776872863858,2.23
-0.02630721025062445,-0.07278541836259438,9.86477863849939,-0.009079759959420631,0.011961902601671714,-0.009288697955146606,2.24
0.12590411591265255,-0.004611823364743919,9.775687412074348,-0.006396461381826297,-0.0031635021967068733,0.01289563125722649,2.25
0.029657076321752934,0.14039022330182646,9.647365151044204,-0.0031413389027700697,0.012092548418914401,0.0006705155550908171,2.2600000000000002
-0.1254087157461135,-0.014422079578961827,10.109265623462619,-0.005858222140622533,-0.005625081151896078,-0.012018531201777139,2.27
-0.0071492230295556935,0.11331090493610292,9.810742077251946,-0.024800855648960438,-0.02109358458868377,-0.01083984247692524,2.2800000000000002
-0.09928554261715997,-0.10211779079388375,9.786475742410207,-0.02450428022399341,0.01103401873798191,0.018161388712764317,2.29
0.037822630837027506,0.046201604423927393,9.766377918918051,-0.00012230840489082663,0.006421450928744761,0.006551839342076902,2.3000000000000003
-0.08911836000813272,0.0037606496156886264,9.73659309458191,0.010178513791093625,-0.0055447398025168715,-0.014059610511059552,2.31
-0.03868905792852082,-0.036849263974806284,9.850751124194957,-0.005015341893543509,-0.0006362645101801788,-0.013356874216087949,2.32
0.11859427244394026,-0.18884748833403883,9.797947793405305,0.016891272791153038,0.021006772649512017,-0.0014001268462750407,2.33
0.060274173258586895,0.09414303591080181,9.642522451727457,-0.008618578763010589,0.017434401437551553,0.014435512736487147,2.34
-0.054583696916357144,0.01897188551735546,9.803937375776071,0.003313808057793785,0.007475323402657328,-0.007402325434422123,2.35
-0.05941799682566992,0.06143541819957249,9.704173154999578,0.00211651874905404,0.008138233914491472,-0.00042773584736066145,2.36
-0.004335074643872912,-0.018713076880992743,9.930234294462062,-0.0148367202356759,-0.010911893743800827,0.006440713690120799,2.37
0.10108509683929556,-0.08170382527069625,9.841154767799038,-0.00427590537828516,-0.004183179395593115,0.005402978021235245,2.38
-0.0032340242734079407,0.10587084281211807,10.035362627499037,-0.006265030198287294,-0.01374619497537087,0.012673266322068704,2.39
-0.009627851638552091,-0.0507360409433365,9.700702527207397,0.002959436747914355,-0.012176524863799745,0.0017437325562221313,2.4
0.10251231808023278,-0.10525216478945475,9.849477436704273,0.008065765710542613,0.004169036923557211,0.009730617510581116,2.41
-0.009276500279843128,-0.05619317295397937,9.938565221582765,-0.01331332383704151,-0.006666455825563329,-0.009807349284545573,2.42
0.075556992391697,-0.015691484754754768,9.840984650740873,-0.01339632410128425,-0.004665483321066467,0.010179759344656788,2.43
0.03936288263846216,-0.01868298031197897,9.711395934575554,0.010764742246517689,0.0035011627222078026,0.006559412469705689,2.44
0.15962126573790633,-0.10789728953481269,9.600340024780039,0.013938370959190616,0.003314908158324828,0.0011933765198382687,2.45
0.023258818657056788,0.08437262818974534,9.846544584338938,-0.009447418017415945,-0.0016687433782492447,0.014519525166953496,2.46
0.09517522857243697,0.03398110244357965,9.957048244145751,-0.005292491229671974,-0.0005271647677133667,0.005842996882292338,2.47
0.16200677663490873,0.0889838357360232,9.812593082349494,-0.0054604277628483334,-0.0004924216143778367,0.005634724976557965,2.48
-0.031018076274738172,0.1315709503275336,9.724290865650094,0.009570402446933069,-0.004520328353442952,-0.004174441279885149,2.49
-0.03461820977359066,0.09236074228125615,9.891374761805045,-0.004421620440273293,0.00044589527110644385,-0.010326259790052925,2.5
0.10331178473775318,0.21347565485795209,9.919472699275389,-0.00711988309594034,0.0073559735607540665,0.000926377059087126,2.5100000000000002
-0.09181263347393731,-0.13006920485427725,9.951169231067434,0.01741041037720176,0.00028993769715534554,-0.01452589372252737,2.52
0.0661723023717175,0.11004118376221168,9.729106040985883,0.0009942244564338724,-0.0018029743489462726,0.01138677497306919,2.5300000000000002
-0.07038801161113588,-0.05779403170134959,9.586993239946286,0.02239987308752143,0.015041037649466592,0.0047929878899936225,2.54
-0.026866789285721,-0.06458341353335716,9.771183563410661,-0.002140574004891391,-0.004122622835580696,-0.015339226571302988,2.5500000000000003
0.005858431537323204,0.05927396938530466,9.690937545735512,0.00502835797617407,0.0075542770036470435,-0.0022933248061301078,2.56
-0.0824948785818372,-0.14710201549497434,9.678005126547866,0.0026419189548438776,-0.024890266728240434,-0.0024749000320037164,2.57
-0.13285376534260737,0.14716114653415568,9.860156500629518,-0.009622860494444371,0.0216417344007354,0.0010560221627688644,2.58
-0.10934905261168618,0.07036814070881994,9.687582200370189,0.005275448454826942,0.010407951645623371,0.014388286034001163,2.59
0.1096482980905106,0.09770404800958846,9.83546366006924,-0.011223213197965817,-0.011785321214853388,-0.0018653421728757297,2.6
-0.14318781695265512,-0.14033328028607922,9.829795748197268,0.017529585202988928,0.0054143710386718525,0.0015062593128400217,2.61
-0.014025695385282323,-0.14478974879965462,9.935883317735383,-0.011199166096553146,-0.003362144372279357,0.02419290171931084,2.62
-0.01942579935579794,-0.044097597470576365,9.900497546121354,-0.0034631810818875953,-0.003634294513035039,0.00667450714631145,2.63
0.09655388770667167,0.21290062281592062,9.677255870512397,-0.0013085738040415163,0.01294188412317966,0.0029625495847674715,2.64
-0.08226251081227294,0.08500918711344548,9.733339212776954,0.009527970089435548,0.00706489975726532,-0.007166589006108285,2.65
0.11834554988135844,0.10086578418255986,9.892759043516412,-0.0032638555091772437,0.0038264282754110653,-0.0032180517293937654,2.66
-0.009786969175876839,0.07148910988470662,9.719526544595928,0.01073773017434629,0.019856234979232026,0.010253858098432364,2.67
-0.10556229925954946,-0.094099623455135,9.790126804858247,0.003690941347466537,0.01233379278727501,0.015094268936145539,2.68
0.17475337087403853,-0.03430016895332984,9.826152560340516,-0.0005323697872185864,0.012139295641363776,0.014855387729198795,2.69
0.015325164141411485,-0.167250327691024,9.624013969646922,0.0023713257569175318,-0.014425511466659916,0.0007497828135015408,2.7
-0.08262003654632785,0.10847672214992735,9.766805292743408,-0.011043042870866954,-0.0014547248183776834,-0.0038269306603324967,2.71
0.047802848770865936,-0.04666585559454753,9.779315061610388,-0.0011591517422032092,0.012212290472472263,0.010041157162171422,2.72
0.012461102181717212,-0.16127693539179655,9.660838100749803,0.0034799189426521077,-0.016757199992586732,0.0075503715273695215,2.73
-0.008084046952125246,0.01979485101536556,9.610983508335813,0.002659708493763619,-0.0017396488804934445,0.001956860649498837,2.74
-0.11923058010882115,-0.08647270503368198,9.716055512228868,-0.0031886040333133753,-0.00788424181976373,0.007416304326964982,2.75
0.044663945186807,0.04024113669793035,9.793708974718735,0.0010955367788169498,-0.0017260469112349527,0.002434377593075016,2.7600000000000002
0.2168839886330273,0.0003233939009675267,9.70566709211945,0.005150973373003801,-0.0007695663966818449,-0.0029162408274866804,2.77
-0.010618089613145443,-0.013088140302014044,9.737590918760104,0.0009901460605315593,-0.006627790794734649,0.0066694957599682195,2.7800000000000002
-0.03455436472267226,0.024164378698230224,9.698080715004755,-0.01131100388197148,0.010619418155430181,0.017423078406072528,2.79
0.0945732012613784,-0.13334026089731735,9.866469990228667,0.0006582394656991889,0.0009840263353797622,0.003627409956197956,2.8000000000000003
0.06908624137003538,-0.026786472060455504,9.701247054014244,0.010816585729768858,-0.0031885149981616357,-0.005668032445650858,2.81
-0.021398735205056196,-0.03590477875689479,9.85223423174007,0.002585437020309302,0.004240395158688231,-0.01042989552225881,2.82
-0.05459217460776283,-0.03107726095495357,9.838009840363089,0.0030015349673683544,-0.010427054689654814,0.002228896502306677,2.83
0.10492327333515575,-0.09770999510732048,9.872058200018092,-0.005366216590560572,-0.011939388133585107,-0.006341519657960508,2.84
-0.11094977939244828,0.209890740316874,9.708856559960774,0.008257115333147524,-0.0015918218144115395,-0.009243746213139227,2.85
0.036949371678887406,-0.04919547269671465,9.963998195775165,-0.010907016722775005,0.002585336108941815,-0.008685570566526147,2.86
-0.03487802723012919,-0.04663758529596637,9.702421672886974,0.013686369870785694,-0.002842563396235649,0.011002511043733868,2.87
-0.06611471297408252,0.13373289204139516,9.76445493785144,-0.010161761564454561,0.0032810786739173505,0.005886070922880369,2.88
0.18618504582362252,0.0009660398163868653,9.711949280715663,0.007104228602514525,0.0008562880707836831,0.0025805821018050133,2.89
-0.0211100535570886,0.22512006407376428,9.876445817289632,0.0027590543518699155,-0.007070280346304435,0.007676594969969003,2.9
-0.14770181231216845,-0.05174598084589174,9.769206137106252,0.0003842876976335385,0.0015619383181306723,0.010328655843671524,2.91
-0.07183860461842753,0.07262869690880673,9.714688011215339,0.009977639855925686,-0.009961166830485538,-0.0016023944174630345,2.92
-0.04993724097375769,-0.17199516701211454,9.936199457024744,-0.0022625306040183124,0.009065081012519887,-0.0075812812758597825,2.93
-0.09196521643426364,0.06710286350922497,9.813661539773003,0.0024963994710053322,0.0046170462175495405,-0.004231318705794344,2.94
-0.17049117073354994,0.16325764921802832,9.955981862132571,0.0016792201228412232,0.01267713267052831,-0.003128455195372129,2.95
-0.09567576976242523,-0.09431601569307334,9.859667553624124,-0.004292672133323526,-0.007567171333184747,0.006196553714418377,2.96
0.03448795059344961,-0.053030633952626555,9.640498386732373,-0.01723026799730315,-0.010431759934226072,0.0044499646551293135,2.97
0.09736224551495783,0.12138947392566815,9.801644775908164,-0.01638139029739384,-0.005095621326767174,-0.00926679206458987,2.98
-0.023309158935357847,0.02776273336295459,9.860198570197136,0.00758377041086421,0.01720982264929329,0.009434889901573899,2.99
-0.017755521958901274,-0.0024847161173311883,9.709750997238077,-0.0011776548335752652,-0.0026770027093865833,0.0007654872472115068,3.0
0.0183807951266208,-0.1368502276501052,9.858664307936248,0.008148699771434259,-0.022493331075527038,0.01184499964505607,3.0100000000000002
0.1034044319848128,-0.06504369176423729,9.785275698034752,0.024372692331083776,-0.0014808672139938726,0.0017105593123813534,3.02
-0.029024876945298275,-0.07355013406159482,9.815865706811445,-0.0031498628041298554,0.005409222064959648,-0.011674825547888474,3.0300000000000002
0.0609856362779359,-0.16667689362309898,9.76054213477066,0.0024971405919431504,0.007791743161331304,-0.003312207368074624,3.04
0.09803613448413558,0.08844811592372652,9.873399017855629,-0.00762159321814776,0.005763554030981237,-4.0626683884405276e-05,3.0500000000000003
-6.61176346482643e-06,-0.0023543908908248436,9.70229594349604,-0.00617539986987157,-0.0020775681161672634,-0.004560498807013518,3.06
-0.15581052015545602,-0.07636328350190952,9.686398905201125,-0.00854342600348546,0.03380927612197352,0.009439878448724291,3.0700000000000003
-0.03871769830709449,-0.034215269330984684,9.978808385415801,0.009764476500124339,-0.001388472066106973,0.012457914307163287,3.08
-0.015360080373948657,-0.07492793531124646,9.819437534162304,0.010286383337571321,0.0049445180403111366,-0.0025670776423139525,3.09
0.0066137356300549404,0.041181766533562585,9.830963104765097,0.0027243244653014282,0.02196216965302914,-0.0021190234784977465,3.1
0.017485478500755876,0.1424190231929672,9.712415144030079,-0.003349085193320521,-0.010779510109742213,-0.005418159826620844,3.11
0.08322539809494661,-0.0047582001211430806,9.676375200683545,-0.0006423256948183179,-0.006841549050803895,0.005668087091040791,3.12
-0.17203814262589093,-0.14347698287117575,9.822612379033286,0.008437988135881187,-0.01611422216384352,0.004120639442610532,3.13
-0.05193858471573046,0.09073098087233254,9.946694230814535,0.0051656502041426,-0.012369638848468898,-0.007151858017372088,3.14
0.0698292958468844,0.001631349507280189,9.81857365237065,0.012509230115696313,0.014918641731282645,-0.013187864519590182,3.15
0.027735368718970307,-0.16133633048717114,9.835722630731151,-0.007739086556177075,0.0018506828949057198,-0.02968641892435597,3.16
-0.005495796653568912,-0.049909693969760215,9.790923003474294,0.007754313578576582,-0.005403803650817514,-0.004398602975170897,3.17
0.03541837058526123,-0.06868028183745255,9.656392354099982,-0.0026406740033139524,-0.012090157828464293,0.01119852009005597,3.18
-0.046312485237385154,-0.019368564576383588,9.816555140461155,0.008743829456202272,-0.004071746030069569,-7.108207006333836e-05,3.19
0.021223687866162563,-0.17827294222061985,9.962223633484683,-0.01042545061431259,-0.0071328610358065885,0.005319847410394095,3.2
-0.13567744374398405,0.2198745513569712,9.806770975256823,0.0006297645692860434,-0.002706181607302757,0.0007573674095102554,3.21
0.11705393912000094,-0.001636443141228497,9.821817818994209,0.017684205160123985,0.006128703529916103,-0.005201210427944726,3.22
0.030500253266939528,0.0982767450238338,9.878727225117963,-0.017747078376812744,0.005425648798171807,0.0049824896544537435,3.23
0.076508140616599,-0.09925339335404279,9.888580055965786,-0.002763060332192852,0.003267462458440881,-0.017768408154273302,3.24
0.048845414637128694,0.15483974112334345,9.76260382529143,-0.0021263549173129383,0.0049909585466153105,-0.010379712652068973,3.25
-0.0052171992381451985,0.013467932741468536,9.944582273460707,0.00627702912909704,-0.008158262701856855,-0.004048182359816737,3.2600000000000002
0.01176485995841043,0.07971152387305817,9.892485421868846,0.02158983484110762,-0.01370048999568003,0.020253610735493168,3.27
-0.02427200588237911,0.10184903519827843,9.804480225155718,-0.00901905050746133,-0.005173504909730334,0.009144246692198262,3.2800000000000002
0.05494978079680092,0.07770186275794326,9.696704607217045,0.0032261835331298416,-0.025972018355039938,-0.00556904353764768,3.29
0.07645373948890005,-0.06153345058010961,9.759937524263833,-0.009011833219487547,0.011175221956235232,-0.0018827979729351036,3.3000000000000003
0.07930096651932973,-0.01475138343410077,9.912138058590406,0.019838974293817986,0.0017486883407972146,0.01863653124416756,3.31
0.03392820578232155,-0.01694328721317209,9.714205359394336,0.0033430958078453765,0.011336070678389076,0.0058918047107430396,3.3200000000000003
-0.13430939943769366,-0.0824410606130334,9.759068623530014,-0.0071750629990953545,-0.01550290457504973,0.004145727617657111,3.33
-0.028760502488396757,0.15327203613216972,9.835340121778893,-0.009339991346053586,0.005651412157715316,-0.0003606671991817272,3.34
-0.03559947841468158,-0.10665267448403698,9.90894916682118,-0.0069508119828452,0.011384215715763547,-0.004885694959567066,3.35
-0.07643687778030375,-0.011013527447385351,9.80498413807051,0.0027103599811444407,0.0025956496169818304,0.0032337866667167636,3.36
-0.08621169265356633,0.06846137510858465,9.79426120071331,-0.0018814303781289642,0.006045263627623396,0.016192028769792765,3.37
0.0783290289334211,0.07544645520480955,9.911938006069654,0.0036209574609267743,-0.0022740552140153307,-0.028737144128581117,3.38
-0.13280778881490443,0.00941755469291832,9.83616965045467,0.004354401926051614,-0.001643305049124923,0.016875693025203344,3.39
0.08850899967653073,-0.15806024653677148,9.785880892441352,0.0014029174015905796,-0.001505764721176649,0.02124583422143707,3.4
-0.10913372298822105,-0.00012929373887464118,9.916687794267263,0.017377224449835634,0.007555886393723175,0.018304906720933208,3.41
0.15329352289017084,0.03920143863004504,9.802065589659406,-0.004661395439956284,-0.008570070518789606,-0.0060268278351435015,3.42
-0.16092180766127825,0.21005518175627502,9.771702337600109,-0.003934955806567342,-0.008462272009572771,0.012157519434989321,3.43
-0.011701410893227734,-0.09711619108402693,9.745329354688716,-0.002732797924515876,0.013160181836262462,0.005058560940217148,3.44
-0.022745127510738077,0.10564692149379196,9.87762809100141,0.01389923675748978,-0.01646109646205725,-0.0057912923370647875,3.45
-0.14115438794923651,0.07992352683299812,9.537738419714245,0.012605785121932033,-0.01389094298553451,-0.0027162864968107697,3.46
-0.09546455430741323,0.04432061978358773,9.900964593092972,-0.0010988626695438246,-0.005869077148996501,-0.005846004769466926,3.47
-0.08391807756534919,-0.13479475811950142,9.689505341886091,-0.002447648170808778,0.0022955817424456008,-0.01320062732511687,3.48
-0.04773380037859735,-0.054492793361578445,9.910065699560766,-0.011838038955517091,-0.024385461154058357,-0.004017534779089909,3.49
-0.27607631580366404,-0.050661205667314135,9.808784300673084,0.007789589713398353,-0.015412929009904984,0.007528476612889139,3.5
-0.09176941854110984,-0.05094664251812791,9.711118753672055,0.0010011442719413113,-0.001484834460257874,0.00010613415229577014,3.5100000000000002
-0.08200655113269568,0.01685166437264211,9.815624922250342,-0.014086263915665559,0.01525635666010838,-0.0020406135450767356,3.52
0.008991330769821289,-0.05027225275015167,9.755867338190383,-0.013443027634436795,0.0005441374711021243,-0.0032346240574387935,3.5300000000000002
-0.032433797702909405,-0.14514246191279392,9.781560338191843,0.007329967137837689,-0.0036028100937427867,-0.009421654221977374,3.54
0.011017085938904922,0.1154845119741401,9.897071468275199,-0.0015470028526513814,-0.007850327870052683,-0.0026172956835411117,3.5500000000000003
0.19839499131178284,-0.1739414182189565,9.904889684385006,0.001329002402898455,0.002642075736018324,0.014953365517574568,3.56
0.02288023700879397,-0.18947048351978754,9.73377749703023,-0.0012744839754843518,0.003986733187414298,-0.005768394912822301,3.5700000000000003
0.06145285332599546,-0.014505374443094358,9.742445466161026,-0.009590136009822255,-0.0039710314164729185,-0.002891558878536559,3.58
0.08462303397422423,0.025456612004908875,9.766430637265648,-0.014639948205892636,0.0010666406413289986,0.007027649038071316,3.59
-0.17337783740267887,-0.1227224529974361,9.808144054710631,-0.003891412924730431,0.0014049538611619764,-0.013040280244009867,3.6
-0.029150879438896438,0.04942153982994972,9.725540694414539,-0.019667660018099848,0.010856244748396597,-0.0021726750584765424,3.61
-0.06177736173598919,0.030206555759276738,9.810834891358338,-0.013300617645841555,0.00272604088913528,0.0028156630567980974,3.62
-8.766471415891956e-05,0.07798248902918573,9.740178341407717,0.005969822515443639,0.01258038243422277,0.002641401732397475,3.63
0.057519326427905006,0.0007621840890856816,9.749671763433083,-0.0043119842977284665,-0.012554998283843294,-0.0007756742397689884,3.64
0.0005124259155641492,0.11609628173093478,9.723692336132942,0.01765468584444555,0.005256526787907057,-0.006269812231698034,3.65
-0.08937305742242414,0.1130049161773628,9.82326548134003,-0.016786032393432265,0.010022771638178165,0.001996856940917521,3.66
-0.2605004159528596,0.10510940442289302,9.740346464438996,-0.028445386065229852,-0.00628351654238641,-0.009246835723203164,3.67
-0.021133438866381537,-0.1427840429270948,9.740740356420952,-0.0034864425425137416,0.019019687499486664,-0.008671786076250227,3.68
0.13327228375602604,0.003708673785877975,9.658059681214105,-0.006128544627040913,0.0017533065539809421,0.007420716433996192,3.69
-0.11077347413823097,-0.14785186954940172,9.795563381701227,0.0012803902991832664,-0.0011317833456450774,-0.004970888398562765,3.7
-0.044151621819451155,-0.102385790818692,9.841501433335889,0.015087974501021614,0.014186093711042774,0.013021128722851784,3.71
-0.07176781858634738,-0.0721812455197608,9.801840695382797,0.024340031835842532,0.0036128854120596795,-0.006646758046822718,3.72
0.05715857346130862,-0.18917792469323286,9.636939246326309,-0.0065615182759184865,-0.009637036688483137,-0.0087700462805855,3.73
0.024628922184535468,0.06568726159961817,9.78672614359866,0.004042003882475355,0.018550845509596556,0.0007485534324233981,3.74
0.13558470373790105,0.019434863202053843,9.842583992997405,-0.0023419204767131845,-0.005851716585187635,-0.0018083877398616614,3.75
0.01370023842915481,0.019926069318868797,9.977886425056306,0.008590716508976356,-0.01193859637013171,-0.00611521846957483,3.7600000000000002
-0.03112748827029231,-0.13973946568627446,9.742368810904704,-0.006880093951849496,0.004066932589653788,0.008816450948565454,3.77
-0.09810154914645813,-0.28806684791046483,9.72357263423272,-0.007867856101968522,0.01227612146823876,0.01256579088939537,3.7800000000000002
0.15544323272570373,0.09351434465625845,9.788795534715959,-0.017306852173995944,0.001864744849110776,0.015071269342545008,3.79
0.04346765287936402,-0.17175389781345687,9.772598559274439,-0.007108306502903755,-0.004963670066215053,-0.011417254945065257,3.8000000000000003
0.060381691335832634,-0.06072497116676832,9.938203659675263,0.012132158767163809,-0.0018526313155796557,0.01859381562631045,3.81
0.08372898597022534,0.034415703526247385,9.896798079093589,-0.002045259305700383,-0.015176337258413775,0.00997580513081475,3.8200000000000003
-0.09157136979809787,0.09440449025105745,9.993648903182477,0.0012220439817198598,0.006912018394446519,-0.007088787250468295,3.83
-0.027589032799171534,0.2651152684264753,9.82120083197766,0.005521336054833394,-0.00887474478997646,-0.011444284593222243,3.84
-0.04092223315155391,0.14913771177877994,9.855714851451292,-0.006155169066029267,-0.011014522879831998,-0.0044520488899392596,3.85
-0.10693439817835203,-0.0962622606146109,9.667659064039508,-0.01490904821359022,0.002938232060061692,0.0024724131035928415,3.86
-0.07234248628061161,-0.03760887308804425,9.941695562403364,0.003309702883851606,0.00999997501537258,0.004257742877954364,3.87
-0.051646345778319364,0.1109822368499245,9.91802808497233,-0.0010405045548259747,-0.004823743682616233,-0.008142260385481824,3.88
-0.0941856371313084,-0.051301084086485496,9.88802765626524,0.0042202662686392335,0.01048494458830512,-0.008470357752890569,3.89
-0.061254665991207324,-0.06773299030259132,9.93870887174301,-0.010412135518139387,-0.007311909301391893,0.012821232588130622,3.9
-0.0812361198161512,0.05310681859953249,9.723273589420726,0.0063144962651621485,0.008564863310976507,-0.0026773169136445557,3.91
-0.1138265834732048,-0.1043703409880509,9.603604425809232,-0.005344561645445154,0.015892824996778944,-0.02176231306538949,3.92
-0.0702505066710961,-0.17113632740897095,9.808963443972704,-0.002855501134878487,-0.0028596441917879,-0.00018386682620016054,3.93
-0.16101568316098092,0.014424371698570866,9.839314733289724,0.018756844632536383,-0.027013493747624597,0.000849458930859327,3.94
-0.08760783559106718,-0.15008938325286747,9.680775489687434,-0.012019722150487695,0.013975687669195278,0.01597161712856798,3.95
-0.07141704534085357,-0.18011052226442098,9.830446082872069,0.009112802405060145,-0.005522186252844966,-0.0010741158309724433,3.96
0.02618384166661928,0.0740071617100155,9.791310027405217,-0.01377906470647553,0.023642022282421214,-0.0017040072767963632,3.97
0.033352392485271255,-0.08587223018902111,9.842804668817688,0.002362921615430334,0.008297924340614249,0.0003404663562229478,3.98
-0.07029319375412528,-0.19214282432541963,9.809708232905507,-0.001023147391582013,0.004716058617656871,-0.005661528775634368,3.99
-0.11628407087610092,-0.019885730715385536,9.825659285431575,0.00727491055047505,0.0022092569304736852,-0.009389162082331455,4.0
-0.03545357334644312,0.005171578656342946,9.833998458148605,-0.013420433497951797,-0.003708298080134019,-0.003005493011037655,4.01
0.08346787601713568,-0.05139763815338107,9.578453761200468,0.00010866714546120816,0.008990274191855578,0.007138410858339965,4.0200000000000005
0.05637689529680589,0.027915205470135297,9.827877244247432,0.011517154545760386,0.0045988717079914155,-0.003531546378259573,4.03
-0.07522087375476318,0.006867748964398604,9.675945025153672,0.01113090539681777,0.005849600795718813,0.011983538468947263,4.04
0.03326179606291431,-0.01554551511637766,9.895218581574342,-0.00943493103701751,0.0022610438224552245,0.00019763242663979217,4.05
-0.05838337312443777,-0.022269115965431484,9.86335740314928,0.007212038278183739,0.011354912837532023,-0.005118360517717775,4.0600000000000005
-0.0859073985770028,-0.023005918609245054,9.737070955936526,0.00955173692734325,0.002984962216227968,-0.0009501898221362315,4.07
0.13214685744588836,0.08097692194916385,9.73380734475234,0.005594635928619533,-0.006751902973743051,-0.007119523301784752,4.08
-0.016826830549008975,0.018995334054386713,9.747306863115648,0.009214706846522416,-0.006611364120806444,0.001057881939286614,4.09
-0.051475756203907264,0.10043678638816914,9.720354075828977,-0.014424879371841622,0.003467928535080188,0.011640969237507869,4.1
0.18964152247372232,0.005831363255534675,9.738209038464408,-0.012310414087686159,-0.00601908956860003,0.004442380267392298,4.11
0.08193802563202855,-0.05114047144428019,10.01413338234559,-0.013217682301301667,-0.0042346836369003184,-0.02026813751849094,4.12
-0.25992677382724383,-0.03167253562146818,9.776681568261461,0.0007922086403382607,0.0004810997081242878,0.011058288063060973,4.13
0.21553529496465532,0.020449200776921472,9.510534453994092,0.013742423393470402,-0.0029568982978094138,0.007222518133974287,4.14
-0.09133705197558248,-0.14281700301150071,9.63378134366658,-0.006984827166246424,0.005427068296089952,-0.008577172138086826,4.15
0.03192338705619406,-0.06736728198089517,9.801831673902466,0.009051951074266783,-0.0032705618475113523,0.0021798107048873992,4.16
0.09020005198799241,0.05703510694204496,9.78770388030885,-0.005639670299119338,0.0063040483993749875,-0.002553724646284359,4.17
-0.010233805755396603,-0.11626563107085647,9.751718547378488,-0.012046804988636693,0.006074718681461361,-0.0003340069237887068,4.18
-0.11589294755617377,0.056144602602443694,9.687861749566464,-0.0025082211641856682,0.00899931861900076,0.008999142999763477,4.19
-0.0647840649253552,0.038260208850141836,9.962532352449674,-0.020771343480168545,0.005379915906041179,0.0020132015475161093,4.2
-0.03100411611763993,0.06720752036895834,9.796095561887446,-0.008662626401819145,-0.0008842333569195462,0.006384487209460753,4.21
0.1679908707534648,0.12481478316243769,9.874965219050821,-0.021767192455007134,0.01644287397862036,0.013713368015284045,4.22
-0.1460275499019922,0.16767778429930202,9.71265591623039,0.006643644229547929,-0.008247325305590733,0.004956343329400133,4.23
0.10000209611344496,0.009611261615496344,9.823197057573584,-0.011016160576079626,0.012411600021953548,-0.0014168869108430872,4.24
0.03472364964780188,-0.2055890743773442,9.871094567741306,0.007578793011672041,0.006416538701701826,-0.008409856249217522,4.25
-0.038355317951728,-0.0859114755446468,9.693966520447205,-0.011893245908175124,0.0037708826680902135,-0.01241041601469421,4.26
0.03127258493553864,0.03355391817181955,9.794398366472176,0.0033428938544168302,-0.009204192027752817,-0.0014415504348750377,4.2700000000000005
-0.010185788547204217,-0.05770980700223596,9.74748401433733,0.0020295450259185475,-0.006557567257170284,0.0006310110453648578,4.28
-0.0572663762515663,0.011530308494301445,9.68873284639427,-0.003222078201176113,-0.013108007082520221,-0.020891267087190885,4.29
0.08177676080309701,-0.07112132229951816,10.042971867016167,0.008696861287761922,0.002667154870193052,0.003672811536657272,4.3
-0.08612968622398748,0.11947137260674517,9.935707569475552,0.0036247266301502315,0.0036654095204913056,0.011352703273923116,4.3100000000000005
-0.0017285445900912817,-0.334936641613012,9.766220040834494,-0.009133323397510362,-8.66866298317787e-05,0.00468319299550519,4.32
-0.02951176170891714,-0.09599175324176212,9.802968607548133,0.008067939821275651,0.004168980563257119,0.014462124399653005,4.33
0.15254270771615425,0.0020598501173354814,9.767083888049779,0.005664467221533186,-0.006370617854486503,-0.005296651540921771,4.34
0.022828015295731672,0.014002509805871005,9.782660409979199,-0.010329461208895342,0.005796465465602594,0.014164947489016816,4.3500000000000005
-0.11645247816615263,0.04141650104064007,9.974464709136884,0.0027211342998503946,0.011154389929593188,0.006900196047651242,4.36
-0.10210150282803708,0.002341997951434664,9.760010005135582,-0.008461805620728359,0.0036313296387415544,-0.016378160117924544,4.37
-0.21785867500079603,-0.019670329025726546,9.649888690160264,0.013826784714103667,0.008519439704485628,0.004287015509840476,4.38
-0.08818074928624198,-0.0419423493339331,9.843365431677014,0.0013579910279183222,0.01152719797572239,0.007702095213964564,4.39
0.07357860122925385,-0.0710701365363182,9.787675359934491,-0.00721675822757215,0.0073802012036398666,0.005368842973774001,4.4
-0.034948979025967136,0.059886888446717405,9.721174868528292,0.0029809474905625284,-0.0008366764479306222,-0.012214104658753205,4.41
-0.08499304671791237,-0.12562667383993795,9.881886816123943,-0.0127475785020999,-0.014886379001420464,-0.0011759489592259524,4.42
-0.10482051221470752,0.15079057736643392,9.808626239758025,0.0005230695062346106,0.007932520830122046,-0.003003048386228446,4.43
0.09168410529106862,-0.15182651945140724,9.815700539714998,0.010795057110404847,-0.0056905746901437515,-0.0024489894834490824,4.44
0.12106609907715869,0.009294957650486877,9.802622120580557,-0.01698771678365515,-0.00954003678070308,0.002677833442971715,4.45
0.08192353339023131,0.13339925048504223,9.838682067349831,-0.023631610556924667,-0.006245558775533192,0.0005240357838552891,4.46
0.006410874721523291,-0.1906478514022859,9.692401177181477,-0.007346509045357509,0.0035765436022795662,-0.00825245517172222,4.47
-0.007695945005211268,-0.1335212674826338,9.807700412335562,0.007988196735518998,-0.010380043464924138,-0.008698857285687159,4.48
-0.12788476245033864,-0.02107125803260549,9.90735599662823,-0.004696911788733488,-0.0038321315490437683,0.0054702922329554395,4.49
-0.13451217931837997,0.108916537265009,9.828655205501615,0.00434333079251349,0.014074618572424575,-0.010315698437651026,4.5
0.11695413219748774,-0.0602483771441419,9.555177126580555,-0.0045297918748931475,-0.0028790030236224996,-0.019990676479735528,4.51
0.059865653610982575,0.019638756578920186,9.835516114557748,-0.001530114344148903,-0.016153387981909354,0.00826571569617429,4.5200000000000005
0.05068129170577669,-0.006264839807355509,9.689275858990241,0.006338101188236715,0.009333365102993051,-0.014035470821299868,4.53
0.02700473919144485,0.029789717223458658,9.75157769455331,0.0020298010684693933,0.005565487072913797,0.0019380333337968888,4.54
-0.07662353975198953,0.022801613172756637,9.674075451226837,-0.0044143835612878365,0.014913344232658242,0.0070639613127275805,4.55
-0.07001284586247696,-0.10631990159320073,9.911005598447382,0.010884574799613503,-0.011190970137806686,-0.005766572880249576,4.5600000000000005
0.0980676122521453,-0.08550388286364213,9.80502982034613,-0.0008392686501843605,-0.017291590512869957,-0.012269746283527224,4.57
-0.03660482472076013,0.00659038487743702,9.80931339822939,0.01125684202870259,-0.004762334568473019,-0.0056222058206906855,4.58
0.1352451918440097,0.1770117492922092,9.816899409188768,0.009340039189411235,-0.004787610283075255,0.007601042735355406,4.59
-0.040598651668500484,-0.04250538364388385,9.829299455974189,-0.016563195991353627,-0.0010576578228836996,-0.008852040662356394,4.6000000000000005
-0.025060034213266625,0.03353666697397816,9.69744673785919,-0.018694250553303586,0.021672939372352994,0.004711792002883384,4.61
0.015060632317892118,0.0774244855485291,9.610443353780115,-0.015161378315967514,0.007943619164553611,0.0007365943194044067,4.62
-0.05550028926348244,0.002458568474418477,9.689039466290346,0.008870905012468537,0.004816910529096813,-0.008266871450381944,4.63
0.02431167893904292,-0.14245183504997083,9.688777613021108,0.011831417074108872,-0.0008305359487163353,-0.012857048304100137,4.64
-0.03932647864077026,0.021008352918633323,9.702787893795565,0.011515361630023455,0.011524834411853074,0.005589557602771662,4.65
-0.08012995828044978,-0.007778119312304148,9.53215180918993,0.0027058514415385614,-0.009763581033480873,0.0016702230000805738,4.66
-0.07963189206571136,0.006837863551720881,9.979297102173305,0.01154364249851563,-0.004006373063416262,0.01458983086476078,4.67
0.01619946636238077,0.02974510986746505,9.770277252119342,-0.0021398699329575528,-0.005934364962193485,0.00266769956105548,4.68
0.111013287010657,-0.002324745435997584,9.600328459819307,-0.002087847570646973,0.007298225356702011,-0.008084789449913015,4.69
0.142736221298107,0.010568131489823909,9.627427359828085,-0.0025748256081821403,-0.006338809860848719,-0.00237922314418787,4.7
0.03663961218878746,-0.11521203466480001,9.73499611289443,-0.01630576232638593,0.003542625609320484,-0.009156535875359088,4.71
0.06698690121477588,-0.060514886598334865,9.868746349983288,0.001829687636754956,0.003139161488149903,0.004078468660473381,4.72
0.07307041503591925,0.017491845772279396,9.773139349018713,-0.007674323603085309,-0.020837671618858584,0.0076233241003713734,4.73
0.06995271749631789,-0.17894956344279067,9.864710241294773,-0.006757002641803185,-0.014528737201988476,-0.0013515052419876621,4.74
0.06614752045551789,-0.016413839572942474,9.770845225389271,0.007050548019831726,0.0025710679798490415,0.027258604458970416,4.75
0.07510323404045824,-0.07369481992222801,9.753869320828862,-0.0024568981640936184,-0.004518421251204539,0.009918645348083765,4.76
-0.051614667596238596,0.1523316023273871,9.839653007116093,-0.00892648960302921,0.00781892550031977,0.008356890013803516,4.7700000000000005
-0.04006317551493413,-0.05223141163929266,9.813750117910631,-0.019821919217039644,-0.014632644297125021,0.006204702185724752,4.78
-0.06079001727816139,-0.12473779223787113,9.854365619386343,0.006425554961993738,0.004479302579055126,-0.00764546880517848,4.79
0.04924500872260115,-0.07632269775870637,9.78020445880513,0.001966737316567449,-0.003495016247356455,-0.00730584852989946,4.8
-0.023916469757333386,-0.15483456544043028,9.675971574923139,0.001393790069859707,0.0007089819692434805,-0.0031535122496823605,4.8100000000000005
-0.24279120803257334,-0.22084587880770337,9.8851684985031,-0.013701579044197696,0.018194584623513414,0.0010136633373341738,4.82
-0.009491979615829715,0.07672068139195228,9.809861703890315,-0.015049533060415099,-0.002117339568725014,0.005323179093109938,4.83
-0.02258465215989722,-0.03928278474084772,9.780627578592423,0.018876960591595875,0.00033503443489840446,-0.0001996977606593656,4.84
-0.11216916062072915,0.08591204692025545,9.983841252231386,-0.005753029507067538,-0.006755058412710284,0.003070100137789571,4.8500000000000005
-0.18689835336213842,-0.018911615889433946,9.785302709983998,0.0025756735581927786,0.0014343444391562191,-0.011739042172405836,4.86
0.14844102090247543,0.11157934255159226,9.810247712147651,-0.006263068625511284,0.013233892116053246,0.022237843564218686,4.87
-0.09885574359537679,-0.06726794274546903,9.911265925339253,-0.013214590990681818,-0.01920941738060807,0.0038020792572870366,4.88
-0.035847390230153084,-0.2104018116357997,9.868480353574302,-0.014579034347646028,0.004132311502429245,0.002990025745237448,4.89
0.07184874027237552,0.006436858585023577,9.779792944771643,-0.009077689718001358,0.01908879227334498,0.005402971213078887,4.9
-0.08812061855819821,-0.08823867428015393,9.738938386695402,-0.010316558675889535,-0.016254011032063805,0.0028080344631031466,4.91
0.0028365006061707035,-0.07443560205325839,9.770893416947171,0.005892427623378325,0.008567093079721528,0.0020560179838104405,4.92
0.10375658460443055,0.035982900115509954,9.90486915729331,-0.021388370518668754,-0.0021879952561112037,0.004626733133738531,4.93
0.02377029042782883,0.10362679212440845,9.81515080047776,0.01003891175013796,-0.005763306010409487,0.007946184277171567,4.94
-0.09738018614364928,0.04047406118399293,9.67246335456012,-0.0028799474022620708,-0.017889285980636084,-0.0015972137684552169,4.95
-0.06766909157491634,-0.08050757169864196,9.830684526724198,0.013492818253097172,0.005068805513084736,-0.01727361399305859,4.96
0.16725306156233813,-0.14408067799661803,9.759587782437565,0.012866879841440478,-0.003979727470126021,-0.016478783794706197,4.97
0.010998886349044432,0.06684216813662118,9.690756866840587,0.0021599878130955296,-0.005806090174142394,0.004281075115304858,4.98
0.10247512063910963,0.14147981043586577,10.050312701324579,0.014653366382729094,0.006333937576561849,0.0014452967905166931,4.99
-0.07584955838105278,0.13524457905248088,9.954857333634786,-0.0006839950718519109,0.004308863897300856,0.005358184482889105,5.0
0.025736234555734202,0.027193715571782323,9.755722881580569,0.01773151145987637,7.947434628004398e-05,0.010351201429041364,5.01
0.07297267616994489,0.11345460698072674,9.796151112108069,-0.0003948535863129268,-0.015328956705149457,-0.00929177609073723,5.0200000000000005
-0.11029271577493859,0.05335193011834388,9.86298316663648,-0.005435584765076079,0.0043927114159018465,0.006443152118169165,5.03
-0.028753648882477497,-0.2565337213392953,9.751022891650809,-0.005479620595768436,0.014643088582020214,-0.009264492443410103,5.04
0.0074891514047975664,0.1690460569346539,9.778780573619995,-0.008361068699445716,0.011865948185696234,0.014261768180115908,5.05
-0.00902158311669688,0.06366225549339131,9.879931057415895,-0.0016188639695487277,-0.01225319566658226,0.016740124641624603,5.0600000000000005
0.006170433227213955,-0.028991995907073048,9.680054145002243,-0.019045629527533633,0.010083599182818835,0.015898317415386994,5.07
-0.11485799717506695,-0.1441295126878935,9.815466515437677,-0.000817393157772103,0.0210811093477093,0.010861970404328194,5.08
-0.016868920348385556,0.02724329450133159,9.695220242583101,-0.02144328632888746,-0.0007856859149424618,0.008931064969894622,5.09
0.11056436523805185,0.26448291096082394,10.050976970112545,0.0027689167669671727,-0.01751235791278577,0.004754766529372843,5.1000000000000005
0.08727140195168358,0.05735826578400003,9.81171270597926,-0.008819009058071614,0.009900907963400554,-0.016602786364868387,5.11
-0.11345094588903629,-0.09454621745399357,10.001342014533737,0.0021477726232282343,-0.008087906842374898,0.012929571746698672,5.12
-0.09564536864970268,0.04119770137385839,9.80316839232046,0.005615365092905227,0.0018447303548897562,0.0033218812260607097,5.13
0.00044845015910979953,-0.010937920513471129,9.880336977390801,-0.010830262531368708,0.007753407457572137,-0.009565633644466802,5.14
0.09553821371994829,0.012371307370312818,9.801467963421842,0.023569191699159643,5.504873135588959e-05,0.02433612586438398,5.15
0.07107231196286988,-0.024295914727621357,9.883613837577249,0.02065497562540629,-0.0013011032578515284,-0.0029067810104535514,5.16
-0.002970081688805403,0.0629458936156111,9.790411511699242,0.0027146927070039704,-0.012732563311458854,0.0028381224252438993,5.17
0.11561261743081173,0.008268700589842923,9.672372965944268,-0.002272045879790291,-0.0003176923219143634,-0.0032070570723880813,5.18
0.02407260644656764,0.15824859224435905,9.866170115226385,0.009614846289502127,0.007567319220327828,0.006826133940661861,5.19
-0.16737959224026436,-0.03164478787003544,10.019430713416735,-0.00027108158722498175,0.003538059099635471,-0.0008842730210412426,5.2
-0.12316024090078784,0.2317132392092352,9.627998146186984,0.005168890165336,-0.010952067851533305,-0.0006575821386956625,5.21
0.03549856742479207,-0.27591818749306407,9.850870095600289,0.003242742862846468,-0.00847062605573471,0.010123614995856426,5.22
0.03338827575804514,0.0023653985913683426,9.885821660184499,0.006919661678717056,-0.002479255545032509,-0.007462217408959578,5.23
0.04473985855809734,-0.00500008087794333,9.970387524921662,0.003445050817126304,-0.010703346079248405,0.013362575071398129,5.24
-0.31823401977610044,-0.03980867003709568,9.864298868590929,-0.001866766139938853,-0.004653187389126502,-0.0017697489207857138,5.25
-0.05980582517859644,0.13988987144020737,9.7404712475352,0.003919747331025228,0.006380202056575667,0.011538842555418035,5.26
-0.10729410618327113,-0.10396356521565753,9.910394669757332,-0.007200102929205072,0.002990781708778817,-0.007018228047551567,5.2700000000000005
-0.03493898575718412,-0.09684869499754623,9.888875620708333,0.01654701803883518,-0.016593761086451667,-0.01528014513189765,5.28
0.07169701666526773,-0.0965335896613527,9.671373854996089,-0.0018280629215126124,-0.014905764507742308,0.008440986350596917,5.29
-0.009321448640976577,-0.13843841361105558,9.826698140909299,-0.012014792808651318,-0.009225011783431126,-0.0059906488082519605,5.3
-0.1027749679849239,-0.042602979207159136,9.7229828351298,0.015142039269944516,-0.010312272244132453,0.0012188952677517522,5.3100000000000005
-0.00874311984466585,0.11491144149286021,9.71278768493972,-0.007522939063828475,-0.000629278921999259,-0.0029856671176629493,5.32
0.027671917831517814,-0.10073547997196548,9.598095637979759,0.01372270628789621,-0.00197929860696633,-0.006996417565223286,5.33
0.23638800757599965,-0.03593344833254755,9.631138987325773,-0.009321314699093511,0.013464439592034147,0.0023145827724753896,5.34
-0.08933400245990644,-0.037974833355225925,9.790389377326093,0.008373932388166585,0.004599610536752105,0.01057297966214462,5.3500000000000005
-0.11308467662386944,0.042921910051315085,9.950086170535975,0.004977895092745323,0.001984857070594639,0.002015972541937871,5.36
-0.09110621906687252,-0.010237590639512947,9.647707759926377,0.0030097609835090275,-0.001922801384133134,0.004611582122637588,5.37
-0.16575108631258345,-0.11488669549940705,9.869448121505425,-0.0029160998610208017,0.0036522046095574323,0.012276894969269623,5.38
0.037989729978496346,-0.029104147085866124,9.915161032983473,-0.007464473843697468,-0.015777950067838203,0.007208654835344444,5.39
0.03194293155801497,0.11052683547684826,9.91186817060233,0.00010471418789776212,0.012151514925328889,0.01043582144116482,5.4
-0.07921210753862434,0.007800823339836347,9.64094893572099,-0.005009644303824337,0.01044603202218149,-0.0060430285105593185,5.41
0.1056792507458016,0.033463515193056494,9.702287279136062,0.011541678017174465,0.0033371307472472617,0.002187214857117641,5.42
-0.08088073701168758,0.07163760139264162,9.871005643181194,0.0029278184068473947,-0.00946120740260719,-0.010055099825383542,5.43
-0.047332510764557835,0.10775566087796212,9.559731009329964,0.004760090050791906,-0.005007070951379461,-0.012367556888166494,5.44
0.01949715076010805,0.13528036227657358,9.881186960746826,0.009465580446625975,0.011188343042826128,0.017585770555733224,5.45
0.15527822486025966,-0.1533854952600032,9.945323974744934,0.0184065746670618,0.014058864080180922,-0.006245272381890099,5.46
0.23342012107680332,-0.09719949014582352,9.820636032176216,0.006980248688746802,-0.00024324883880581764,0.01517787780350099,5.47
-0.07725595689398161,-0.018149587518760914,9.861984982848323,0.01202337404203685,-0.005070992659271373,0.0026872502505827125,5.48
-0.2413375732291924,0.002408294339412892,9.620348191961805,-0.0035565306059366377,-0.017914338992145253,-0.013330014443817826,5.49
0.0098299454951317,-0.19659547061118923,9.894759155339917,0.007828773024415973,0.003679990398409251,-0.0020916213489085528,5.5
-0.15343374430147608,-0.10045035229567026,9.717639250720962,-0.007606214755719856,-0.0002007210251159302,0.01195245800147519,5.51
-0.007139051644495136,-0.08694392688278046,9.856752847043174,-0.01825794972354198,-0.013975896148470085,-0.0013242061123290324,5.5200000000000005
0.026500833713199758,0.234112743222593,9.767488625004502,0.009731887186382727,-0.007461199283169767,0.00875522811908018,5.53
-0.09588107192210683,0.1576760943817602,9.671895092428114,-0.00567197859818022,-0.0035818125804415006,0.004238788423147773,5.54
-0.03308038208676752,-0.05328777798831268,9.931992055506898,-0.01671098442155081,0.0022932463007918685,0.02171383284630022,5.55
-0.16903545037562567,-0.005794303282589015,9.843583873781268,0.006025522527843781,-0.010045304153310904,-0.0012832201713821722,5.5600000000000005
-0.14794864969053806,-0.035508521154815724,9.943863461819593,-0.00608697929856085,-0.02581492635768946,0.004697335893316057,5.57
0.03239980291175392,0.034763181178861395,9.82230565881739,0.00027853447649966523,-0.0009861733197536607,-0.018956450244767394,5.58
-0.22507485969033483,-0.1102397332402068,9.833235024438295,0.008850889108803103,0.003505982073854271,-0.0010607136992723174,5.59
-0.10596252909318052,-0.020727136674084438,9.81365784127107,-0.005891927597198629,0.03055008632789605,-0.004250861951941031,5.6000000000000005
0.1040007819747761,0.04606384076146066,9.761440422177262,0.012064676652586453,0.007287727132016579,-0.00615886774894093,5.61
-0.010811314169093589,0.12788859714324796,9.802423137953138,0.0018917758190845095,0.0008349310186347099,-0.009605039047038308,5.62
0.015981791199356752,-0.027827733367150123,9.902972915180309,-0.008311871331999138,0.008359119078776968,-0.005708812613729722,5.63
0.041294996368524906,-0.13671383828144892,9.78650029593591,-0.0019303666273345701,-0.00846034942004164,-0.013547676784351122,5.64
0.009978449720794194,0.039252361439859496,9.74016074351482,0.0012804740096286882,0.003946142530476601,0.006694195260379449,5.65
-0.1852744397372459,0.007455342057601669,9.756616505216577,0.012320873509499562,-0.0047871049950347876,0.012240099694202467,5.66
-0.019334644864676984,0.05486936487461928,9.729506554837021,0.0063907794902103065,0.0036927916684223127,0.0015393153258362602,5.67
0.04626413276576591,0.08071807023821337,9.80705867423755,0.017200809123453897,0.002227285760439498,-0.00985279714871477,5.68
0.12564968032884716,0.10763529040482628,9.81132228458365,-0.011939345770034615,0.020339202811993112,-0.013685236887294089,5.69
-0.06243383671104213,0.01339444112952763,9.80201086149715,0.01102133201878615,-0.0018485743133137393,-0.005013097626024686,5.7
-0.06661471954767842,-0.08030204020938425,9.77257553378846,-0.014663423796080429,0.008476978897851942,0.011926443193583755,5.71
-0.04548822883007532,0.08895918070933857,9.927028816191193,0.010495102554021142,-0.009689007724887391,-0.00750432056747167,5.72
-0.067992877863138,0.10321232926091257,9.673246383323479,-0.0038474587990188513,-0.0008430654666211226,-0.006166421354597043,5.73
0.03150390156138751,0.0453888657826636,9.835070034963337,-0.010802465558680063,0.0021118089599558173,0.00256293183554477,5.74
0.09840528107666772,0.05433563928764293,9.785068320722397,-0.003326956334340696,0.012662087556579712,0.003028541439731997,5.75
-0.1491345306554038,0.09044914041678116,9.827156677757415,-0.003905160475737254,-0.0031143346723844336,-0.003627931648704168,5.76
0.20272622677935273,0.013515275765321248,9.679025987624968,0.01064460168106039,-0.001035246695516304,-0.0026108309089450826,5.7700000000000005
-0.10361557542938996,-0.015096822186631002,9.668954323814917,0.0029104827975446074,0.008288766623068098,-0.002459453487756231,5.78
-0.018314547367537928,-0.00477312302747567,9.769595370549887,-0.006174362338640258,0.001953302305880711,-0.00035332498131205757,5.79
0.12892913457866012,0.03911126269509089,9.860965153648625,0.0175513369072878,-0.0002888651142051509,0.014338847572641113,5.8
-0.05604458717779538,-0.043623833036471646,9.837832065117842,0.014041337532828886,-0.00157387530559831,0.002615076991841419,5.8100000000000005
0.054685597238426344,0.056702933205746625,9.695733757684648,0.0017526061310951069,-0.004787462187137453,-0.0017551489172539304,5.82
0.04464561887785645,0.07365830641475271,9.737209724629887,0.007504356678485079,-0.009500257693430372,-0.011462730009163454,5.83
0.0041884934612575545,-0.018399981446022496,9.607083992686887,-0.014357978711636576,-0.0013291748879119163,-0.010669695396967518,5.84
0.11257201307344374,0.03822710802847265,9.775064211565644,-0.0028152284633431615,-0.01681199588859186,0.006211906742498965,5.8500000000000005
-0.06469640809045922,0.04383382186981366,9.751064976147148,0.004632681212593438,0.008825860124513219,0.006207441806488113,5.86
0.12110837668267155,0.13989780026982201,9.723804168082976,-0.003663230233310545,-0.004293952135124878,-0.01274837701876579,5.87
-0.12628492540972183,0.004270586997753836,9.829561457360482,-0.015215259057988088,-0.0013769837949529507,-0.005169224248427287,5.88
-0.012229788533087052,-0.024496400392520063,9.812600032968806,0.005486065962707197,0.0003010875594963057,0.008651929806419953,5.89
-0.034075801988256806,-0.06861283211403041,9.792025230194781,0.01173254791059662,-0.014732290943015184,0.0002858719405487601,5.9
0.0038075833312997374,0.26146087154928144,9.968759197698075,0.010169872004687356,0.024034114632249852,0.007929409723881752,5.91
0.005606272058358311,0.15355821294486008,9.875456193570999,-0.007877008526923529,-0.009991478333655235,0.0028453501872291683,5.92
-0.02455005935558875,0.12010399634185101,9.75440880244613,-0.000869307534310383,0.013109431090016783,-0.006858004531423564,5.93
-0.07005635392489731,-0.22080095906791375,9.893521147485563,0.019460243770069368,4.262294006827898e-05,0.00981396190024383,5.94
0.06271658862021105,-0.08487555122066452,9.55420519970356,-0.006726701186918953,0.008433532509205408,0.01152281760414851,5.95
-0.04998965908783787,-0.10773462776767573,9.958143659440452,-0.007906967934790982,0.000607286482813364,0.004515212863911144,5.96
0.029129875363791122,-0.0379332390268133,9.75490252491809,0.01735119974784044,-0.003071510704151562,0.006098060651505658,5.97
-0.22400281358917293,0.1315428050609191,9.721212396796144,-0.014755645522878,-0.01081170747295295,-0.004587501068384765,5.98
0.04381965692038528,0.07352881297525271,9.830673508233383,-0.005987071241026919,-0.004089009373269133,0.007220424578820947,5.99
-0.04786041339970359,-0.06145400791615481,9.682412011268632,0.0024767841779364708,0.012535758171109381,-0.0005394238884598737,6.0
0.06046571884222568,-0.0015236917948085826,9.745239659264946,-0.014695122108555413,-0.007287382815450355,-0.007345474004882682,6.01
-0.07013383338298053,0.12155439135086521,9.764193451209715,0.00032000260491869473,0.013547156831962828,-5.208108291640609e-05,6.0200000000000005
-0.06528906993466603,-0.048561581402245736,9.91284348059352,-0.007968495924932767,0.004824065295945247,0.004191141752554799,6.03
0.17278130562388852,0.02384476611431083,9.804862188169228,0.019124308126096126,-0.00443767700637638,-0.009791315165898228,6.04
-0.09766654973858084,-0.001218245486754397,9.823691111306191,0.019124367098847735,0.00706828953845216,-0.033943420910528585,6.05
-0.07200190011012468,0.14353830459904007,9.781944767193238,-0.003146219078478045,-0.0006611509984222884,-0.0108052439229739,6.0600000000000005
0.07330101916431174,0.01831947083116373,9.764438632865426,0.014041751607170425,-0.0020903905379152186,0.0060362131339222105,6.07
-0.08994379653376182,0.037217133307830344,9.71180960409947,-0.0014220329056640344,-0.005221403204362595,-0.007583336375047153,6.08
-0.11044243013639193,-0.07005686748175692,9.738844835048171,-0.018267858818345778,0.003354185634251338,-0.01209108503662108,6.09
0.007513475134306204,0.116463786718422,9.918950041652812,-0.020719248394434255,0.022652112798509066,0.0036329232184854955,6.1000000000000005
-0.16977952894348755,-0.15876610313287504,9.868823343843198,0.0038893857801346344,0.030680199264294182,0.0012135444772187656,6.11
-0.05878316444156631,-0.14262485633241084,9.923409820996568,-0.01417795981931965,0.015619605683356812,-0.011145348786893824,6.12
0.025198580298681446,-0.18741866370078872,9.792693900209514,-0.005134402220887382,0.021810471261097218,-0.004822188899348151,6.13
-0.22474263713717582,-0.017367123525810265,9.868488686170544,0.01628996749092305,0.0025484454361440795,0.012426797375498065,6.140000000000001
-0.15168862928049887,0.05521336909829181,9.89772528980773,-0.01591965432255164,0.005071944425988042,0.0008869152412988816,6.15
-0.06907560415112317,0.015709571515008357,9.695182968915706,0.006715990595291411,-0.00397208586707434,-0.009370329251273752,6.16
0.18028415252362323,0.14217787654545105,9.689657405472376,-0.0042666769362564696,-0.005829345895155378,0.008090861935504545,6.17
0.03195358229533328,0.07538404838459838,9.862251650027961,-0.01793236303352093,-0.0029133496961909807,-0.015579018387945065,6.18
0.06503431065731828,0.030287108904905158,9.712543237515048,0.004724827599374429,0.011514436684259536,0.0014809582881159678,6.19
0.07754860106641238,-0.10508540645877061,9.766622125607563,0.014716482744235272,0.009926389252750753,0.005128436617710229,6.2
-0.1207020179580243,0.1488989851653423,9.750182877691547,-0.008411736545696472,-0.00763032096504908,-0.013791274581917444,6.21
0.06390018847984916,-0.017458784579171924,9.662251048767628,0.01143925541831915,0.0301570696999597,-0.004748047616362025,6.22
0.03486700175602319,0.023148175139646662,9.89190783721405,0.01486739286606463,-0.018595073348430458,-0.005657011732867985,6.23
0.03920641125498573,-0.10801306047231328,9.679605620801857,0.006250873532401794,0.006037222454968558,-0.010610313393657143,6.24
-0.184063630846385,-0.02623753626774135,9.73360657165185,-0.021304670793066718,-0.014217204987896597,0.0073353472927103845,6.25
0.13392742783479136,0.07064213430840953,9.937212162496978,-0.007498452520556559,0.0048224268145266105,-0.007847075334498198,6.26
0.06003600292063212,0.0019354836689333401,9.686495219319259,-0.008657241701737244,0.014301230048295557,0.005136039606390764,6.2700000000000005
0.026332724666921287,0.0104616122004767,9.777550119371933,-0.003653548633775698,0.009816758721169718,0.004064037951841429,6.28
-0.008575534906627203,-0.15212771969175043,9.835991820085104,-0.015463281006447099,0.0012723867645385732,0.009394214809943312,6.29
0.10466226503533138,0.13074822050806706,9.792426678239552,0.010414217700428654,-0.00324122794079877,-0.013724108358109458,6.3
-0.022948077424868096,0.15770064748333099,9.82889232435545,-0.006383239640345372,0.005085893849693855,-0.019094509990305916,6.3100000000000005
0.08267320579281388,-0.0007240179280063236,9.979700783569706,0.004957067212956472,0.00731127288983627,0.004719328347972644,6.32
0.18990701048360947,-0.06687303266283885,9.724500159953264,-0.010193741385683542,-0.024243300124636658,-0.012806654680974448,6.33
-0.023369827576856864,0.054913465062805415,9.916429676923691,-0.009267270215652034,0.006411566763464245,0.009394685179846202,6.34
-0.09164685369816712,0.11255435946152048,9.870824751162486,-0.022895323035576037,-0.0012179041388040615,0.0002959290123333986,6.3500000000000005
-0.13798784362647507,-0.04229634613910253,9.826109611183238,0.00475155016746464,0.0061041408242987006,-0.016791302918785837,6.36
0.058981455369485174,0.03502483756001997,9.807662208226567,0.010708793661902912,0.011301806402757368,-0.0005485139131729537,6.37
0.040007224053420616,-0.13294359342830642,9.900175451501136,-0.00688120245095715,0.017803318647970925,0.003538580015631192,6.38
0.14674843234533497,0.172344367280192,9.916470271695866,-0.004553371341430974,-0.008503429797530469,0.01505253256619392,6.390000000000001
-0.1720303149318623,0.1500896579293427,9.811264347172385,-0.013016474795797373,0.019297201835099084,0.008905929790406435,6.4
0.09030489885419284,0.01184393131327053,9.880698692682383,-0.0019824047915312586,-0.008848106176085875,0.010821193736592278,6.41
0.05292537622645545,-0.06822331233127701,9.764070926130517,-0.006718903315906633,0.0030438712953862104,-0.010170573456742977,6.42
0.14021541001790744,-0.1919935736293352,9.751467280424118,0.004811669902572739,0.0011363666500790724,0.012357933913945773,6.43
-0.11277312359930097,0.022552896913185207,9.86969169471773,0.0010821191525043445,-0.002250909742430329,-0.004546231040044731,6.44
-0.1793124573933947,0.017718042995081337,9.935878515798986,0.017817713439451995,0.005089161969750217,-0.010121230443385578,6.45
0.05964476478859512,0.05870931449345164,9.8204486982271,-0.01583337731801359,-0.02065510825939998,-0.013001000166917966,6.46
-0.1404479728336616,0.030130059157200368,9.750293911126501,0.02814338796045629,-0.008213986046397946,-0.0044892568806108235,6.47
-0.08841470833767162,-0.07665608161458382,9.887140695702149,-0.003011411094784558,-0.004600833066848313,0.04094379399663419,6.48
0.03725781915020867,-0.09327672148344776,9.661234071405133,0.002192519397239508,-0.0005172152822751272,-0.010220818986484548,6.49
-0.03273116131892848,0.09018047857785196,9.864278661467122,0.011239748827700098,0.001968952126827275,0.0038100084213098925,6.5
0.0026568211203804215,0.04517822321713639,9.884884950908168,-0.008182403605916011,-0.0020479297493777673,-0.0038168501065126846,6.51
-0.0002914225586126957,-0.11937221185891425,9.841322806702408,0.0022253533111348117,0.006502999364696669,-0.008562518252603502,6.5200000000000005
-0.079718115887877,0.14292804266579695,9.96647775448554,-0.009513227615677263,-0.0001414284869229404,-0.015276651220495025,6.53
0.09231387392764168,0.1400714831617482,10.052774791860886,0.0007746633559796727,-0.012731944098884604,-0.002249777977939811,6.54
-0.04450641973630348,0.08667629281135973,9.905025190693825,0.012687640379842562,-0.004029096607921499,0.011685963723089497,6.55
0.04827349322364474,0.15226597290379235,9.901301923275877,-0.004595579761489427,0.009485888632460561,-0.004176045716262661,6.5600000000000005
-0.07243567440003765,0.044025665520824354,9.867931744262957,0.013087471581504626,-0.011689697494755949,0.004859736406111143,6.57
0.10196693060044425,0.06460360717854882,9.820872837774349,0.0020547736778811017,0.00045113325092855007,-0.005068196728471273,6.58
0.03889298384029172,-0.047829636755464616,9.724359701326465,0.00865800291453521,-0.006792076884300867,-0.00862379778491297,6.59
-0.1183484818192925,-0.0683924029570439,9.79962425018521,-0.013225415433378436,0.007314680838755864,0.024205693695123643,6.6000000000000005
0.013655013148118324,0.12448875722296988,9.834316859839548,0.002005679839464674,0.0006524909390397117,-0.0034886456635687697,6.61
-0.0014577436998423113,-0.04662559198871228,9.929199549579131,0.0029980147973801418,0.0017869982539170726,0.007149698923767942,6.62
-0.025472782320712546,-0.1358824978492075,9.76491858733983,-0.0017811283944471536,-0.003959523762096992,-0.0003072148651600266,6.63
-0.029792708626209932,-0.12072146308733687,9.803100685772067,-0.014084593228773737,0.005620888569510024,-0.003793619217281389,6.640000000000001
-0.020711654398738514,-0.01144407500028623,9.93717931906507,-0.006905099377124895,0.0086017591514412,0.006578100401349773,6.65
-0.014527307350834781,0.14078466544934856,9.84111336689207,-0.01967061522619542,-0.007540208465088421,-0.0008958505850867198,6.66
-0.05878723003721301,0.07255431007453243,9.785016826311884,0.01063060749188127,-0.011994741243939124,0.01651916815415253,6.67
0.10206202113800363,0.028456675938115336,9.608042822268324,-0.017769772975928,-0.0015106537615461033,0.0067127097140017135,6.68
-0.10102887233699034,0.19330662593330772,9.685313656791527,0.010365079032807674,-0.014678001478763966,-0.014892010288913547,6.69
0.08257201982085953,-0.07198801564568996,9.860261893427456,-0.01012265718671221,-0.0014053862721533986,0.0051532045963712525,6.7
0.07305127108902042,-0.012516516000565579,9.744433924009694,-0.010390140689903694,0.002355501064697807,0.003923745036816569,6.71
0.07999388713125638,-0.007671627865769102,9.889983493815164,-0.01719590675366294,-0.0061757477501439345,0.014169775515831698,6.72
-0.07411133317202588,0.050447300884153834,9.711485322373278,0.003498527867122526,-0.007601571333946519,0.0014488232471878853,6.73
-0.13741287835425317,-0.07686645878200273,9.69399142917118,0.012072462262621432,0.004844089159330528,0.002627360508253188,6.74
0.09110622085744663,0.007701439151517814,10.09948351300706,-0.0014463665109466085,-0.022377086065969366,-0.01596209709251153,6.75
-0.11226263163801209,-0.12410290769084527,9.811322035131232,-0.003690365695757155,0.0012562514540249336,0.0023037391132561392,6.76
-0.002888070447520975,0.1721448520526988,9.753340697763553,0.0029564579441250572,0.008056646735005023,-0.0027469424935440195,6.7700000000000005
-0.17967942866180267,0.013495827336728545,9.942339698068222,-5.604255466653156e-06,0.009384224057598025,0.00690971455225637,6.78
-0.22333945914578424,-0.10361482726063738,9.881960173163606,-0.008735574041627515,-0.008117670627033693,-0.00810285154822947,6.79
-0.0653019724028444,-0.005553565553727093,9.78833632059129,-0.010968930802043631,0.007605627208025418,0.007673798420862571,6.8
0.12965416672018953,0.047722145663966375,9.783287289571543,-0.007669402032731911,0.013812295464702657,0.0011515512165548958,6.8100000000000005
-0.13518123764963622,-0.015774297577471813,9.904747858150996,-0.013386667026079725,-0.0014465765259396928,-0.011338397567553294,6.82
0.0358462073282712,0.07098188781932967,9.754802373271525,-0.001227253295057966,0.004981156553215487,-0.0017800692104752386,6.83
-0.08635235598619763,-0.14741510411842576,9.89027688895405,-0.00043262136773877346,0.008773032309596689,-0.013704133817425619,6.84
0.027466832266261107,-0.0813164703619345,9.8347989826286,0.0003951398611693431,-0.004562415799641175,0.009052861224017945,6.8500000000000005
-0.1619812066273881,-0.08970835441410437,9.66108783881757,0.005982017146504684,0.014582352679138487,-0.01781633427594476,6.86
-0.06525249008351625,-0.1049406496325773,9.73657083281709,-0.015122428646296782,-0.0006685854883585689,0.002395931185571768,6.87
-0.07900918732503998,0.13414651534933864,9.830202365627969,-0.01014289006226209,-0.014920457600781707,0.009530768233593823,6.88
0.06630446850697283,0.06067801468995258,9.564321295928838,-0.0076152932187970625,-0.0013275796646849078,0.004043942533731712,6.890000000000001
-0.16734136839282093,-0.18293550995874108,9.702618014935485,0.018048739852315844,-0.0006256858109677946,-0.0019684145499000594,6.9
0.13741065332516894,-0.030147909409005764,9.831999895022397,-0.007462119943349124,-0.007409117001022681,0.0017563995465425012,6.91
-0.06779122223460322,0.010690742559106917,9.719223659683882,-0.016981711273133315,-0.018901429350194718,-0.002161049380353622,6.92
-0.041223745120024996,0.023789449852820235,9.759637093554794,0.0213314754302256,0.0004591136223592827,-0.0008518795493609191,6.93
0.09379516560833867,-0.005647173564369321,9.725433841165678,-0.004676805979884913,0.003653891696498972,-0.005914157784237345,6.94
0.1491060381621487,-0.01931454469867666,9.90611298678248,0.019160890173124744,-0.003950067062143584,-0.012168886610700676,6.95
-0.07772063250900861,0.028996390186745758,9.976896055815722,0.014494770995827836,0.009193539717295784,0.0011713444370631595,6.96
0.08924968826368448,-0.05860109369490273,9.815712757462125,0.006916468881128862,0.0014321782241363875,-0.01080476970948919,6.97
0.11219974186290696,0.08418858882917521,9.921749649123182,-0.002277810343333953,-0.00963148764647334,0.002189013293079282,6.98
-0.04783273775199646,-0.07198985672729602,9.855037071804789,-0.010152611077909412,0.0038996235113994714,-0.009576099005038436,6.99
-0.06890146841392666,0.061312776471358826,9.72121109426019,-0.002917428670764663,-0.003963108324684092,0.003163113694859015,7.0
0.028600175756282487,-0.018478868684663422,9.933454331978243,-0.0017979158456982607,2.9050155091445608e-05,-0.0030774950674633873,7.01
-0.17718495687871919,0.10459438928569459,10.028589190977511,-0.0033600013908484543,4.238455291551094e-05,-0.014274704698988146,7.0200000000000005
0.042427232022236916,0.05477979589798471,9.546213952393977,-0.0041051885562457015,6.14844362855834e-05,0.00795046321878906,7.03
0.13212542748281894,-0.03769230060715915,9.725440449034917,0.00022513370039401525,-0.002802730555397638,-0.00579940471585745,7.04
0.0685783532810755,-0.18063199267801933,9.833858678958233,0.006227910773988658,-0.0026834487930020457,-0.000779391624023418,7.05
-0.03938601239813014,0.031022417742008663,9.8201562466919,-0.0027430605410358427,-0.00842593363226625,0.004067013565757777,7.0600000000000005
-0.10218542266121172,0.10945806661586938,9.75876895848395,-0.010480624380619905,0.0023787190126187516,0.003239021640553068,7.07
0.07355953704128036,0.09509254006028116,9.906296610882103,-0.008520114781325767,0.004565719580138558,0.0009083976669055474,7.08
-0.1641753026330828,0.2060578104974009,9.687443508975045,0.0013223362914214297,0.01691220493098031,-0.007245590208900179,7.09
0.14642126641360806,0.06258055487627164,9.811860246558185,-0.006437166044514108,-0.0017498077382082009,0.0027149739661059815,7.1000000000000005
0.08169571472076709,0.04762866650963246,9.86277281663992,-0.001478134149846203,0.004105482877688298,-0.0034871837144304506,7.11
-0.14696665322122457,0.016761865066755924,9.693250235758521,0.003682370540768468,0.0061270309524846835,0.01256879146384715,7.12
-0.07574423435989448,0.000937033148327738,9.73114879388575,0.008636072934752012,-0.0054720223581367754,-0.002845700031700838,7.13
0.1309441940181459,-0.015711479621660047,9.784037125562309,0.004210053064262826,-0.008612334839744395,0.0015845916144281646,7.140000000000001
0.10772946007019238,-0.11153288865970115,9.798130831968555,0.005540205578527822,-0.009701971624830006,0.0014602948587930584,7.15
0.07907381510087733,-0.18020364105439823,9.838631059091336,-0.02063994282787447,0.0014663471419549604,0.03060828397464888,7.16
-0.08785758788386817,-0.05475864576369593,9.839641959640726,0.003950667942165174,0.0015931921789470525,0.001790078487366336,7.17
0.0377594968691895,0.001371430089413174,9.85051180866075,-0.007388166064979524,0.00757526351950524,0.002432359510191672,7.18
0.01832907049983023,-0.018769999880544407,10.019101498315049,-0.0008222186708000082,0.007845478342169575,-0.0063853920324836964,7.19
-0.07733875312104993,0.23204216133331357,9.985695178457224,0.01520137819203135,0.004243265971740327,0.0010551686372289575,7.2
0.06278576735025836,-0.10398037796826215,9.648365674910293,0.011352389209650883,0.011660591094230722,-0.004648970714039055,7.21
-0.10922558871596684,-0.001527597684775392,9.890809666023108,-0.0029935959572729336,-0.005242643637387228,-0.007110564691134055,7.22
0.02688543409721915,0.010222924631425176,9.811728121207036,0.004419421412311163,-0.018917096756809363,0.002150028662752688,7.23
0.0035706189785660925,0.10747394130454549,9.700125514788892,0.002750724841161372,0.014336855350978317,0.017273379483779796,7.24
-0.05418034483802098,-0.09026719768389874,9.880230271069859,0.019062269057230845,-0.01613201831557005,0.016093322409797283,7.25
-0.11148684331053327,0.12962255751966678,9.590778092068128,0.008337037825000136,-0.006589112313861665,-0.0009389018072384087,7.26
-0.17720293550849087,-0.028925338470094427,9.901833288006554,-0.009246599907637473,0.0069344169007550405,-0.00989563660755893,7.2700000000000005
-0.19622352736965432,-0.0076883789590034245,9.672936983829176,0.01092121948916073,0.007308785972216566,-0.012066708293544046,7.28
-0.12929774239350553,-0.04868855983560324,9.993200082016928,0.015059550861107116,-0.008077136145369689,-0.005116975304077841,7.29
-0.054851023931153466,-0.05327537470604942,9.754072005940529,-0.006718769699108338,-0.013295503672891425,0.01589288200286444,7.3
-0.05804058679465658,0.09711651157387029,9.861298493976047,0.002660196408901911,0.010672627541673736,0.0020593183699097175,7.3100000000000005
0.18621852693172694,0.014537664807417985,9.771976238405596,-0.0020388063613657028,0.009131193044888167,0.015076799782031637,7.32
0.12017340166750344,-0.1003261615736008,9.87335061135315,-0.011088017946117046,0.00668244399094703,-0.002241491137263965,7.33
0.25818842510737045,0.06269001488121743,9.840245622393162,0.018878022903437267,-0.0054445245775517626,-0.007448964879692009,7.34
-0.049571776264050356,0.12946634850882593,9.748925159012838,-0.014381085315389822,-0.003588311665808401,-0.007464991201187149,7.3500000000000005
-0.18851276133406797,0.06303462885554856,9.864165761362969,0.013302265120628806,-0.01558335873455864,0.0006279836457059304,7.36
-0.20890701956633798,-0.013704307099738681,9.871316377068899,0.011034476469740855,-0.006170415573036368,-0.014769633687473558,7.37
-0.16961694082346437,0.01724061478747259,9.671951425940772,-0.014680567946333203,0.005581455841178226,0.008498760250221993,7.38
-0.057220468535653636,-0.04817661461576897,9.898490294662132,-0.0037468145962824156,0.010271647498338355,-0.014734362948242192,7.390000000000001
-0.04353764792917105,0.19906845369935677,9.933196961315286,-0.010862928243975374,-0.004635355270240013,-0.0085283926616738,7.4
-0.05327955887766115,-0.2985865850293596,9.726360343896472,-0.008628307275494695,-0.017981997330096273,0.0009773098144751399,7.41
-0.126496995746679,0.009003093727383907,9.715477940976156,-0.0073612081717244395,0.007040282047360712,-0.013780436508323205,7.42
0.06324334640380427,-0.1622307271484405,9.794007833191245,0.006086880587159821,0.008664420883161428,-0.006445756297520678,7.43
0.05574017680105495,0.04507229704956059,9.707368554202752,-0.0042595431228121365,-0.016489926963745336,-0.0017488604063325688,7.44
-0.12417951258536511,0.027441183805447106,9.50038492615174,0.0027439666282839128,-0.009720400435748316,0.0014707993276957296,7.45
0.025192807930058438,0.0444179864258096,9.685566047818384,-0.0012561951506290872,-0.016822147151578506,-0.004570573046006052,7.46
0.03777924723950939,-0.03580977368586146,9.865851038267204,-0.0023547083644393997,-0.018587373480516395,0.0008164377628265358,7.47
0.07162488581889893,-0.03808180710106962,9.859024206866804,0.006783192459028987,0.01566593414608697,-0.022757160450655657,7.48
0.02445772907044016,0.020965535044599696,9.98605472659962,-0.01061048790045871,0.0040951232880196975,-0.01920807818235496,7.49
0.04554499725114886,-0.09450926834185236,9.818937353712307,-0.01290636525394347,-0.019169957388985467,0.008165237065176753,7.5
-0.03753298136326077,0.20691281895019986,9.742896501910447,0.006997435501874224,-0.00946194163042294,-0.009847983071434575,7.51
-0.0409256923279274,-0.07954285199908273,9.803022332492056,-0.008614817008840642,-0.00705225642723211,0.021745524047365374,7.5200000000000005
-0.07451597841192126,-0.27572962146097685,9.753070074586368,-0.007694017131922939,0.0043838150218364295,0.009091147225457683,7.53
-0.03253253824623438,0.03140869200108772,9.801747153494327,-0.006695050184232655,-0.008116474382660685,0.005920001863860038,7.54
-0.043169703509721075,-0.1445184218133046,9.845079852952928,0.01012591124472303,0.0006642461982133572,0.004249019796360587,7.55
-0.06010647740131595,-0.13280375073302217,9.662347855669925,0.008104944177228367,-0.00804809830453016,0.005101280235597484,7.5600000000000005
0.1002803576891107,-0.1406646903934502,9.672524581922572,0.008364322419305117,-0.00802190290511743,-0.012461964295281071,7.57
0.126538815171608,-0.03832150541343529,9.675379837491292,0.01113148741233295,-0.005982940186154582,0.003603432783330745,7.58
0.06331535521989644,0.06605695543513303,9.76858938028898,-0.004601459961935447,-0.009789417319701264,-5.4386624138463986e-05,7.59
-0.03955947029696829,-0.020618646056211557,9.700153180734365,-0.027301463125568273,0.010895512487999496,-0.004421886122852324,7.6000000000000005
0.07470022287411525,-0.14834600267025785,9.748462726758607,-0.0068127087066480845,0.0034688939292415208,0.010193062570615767,7.61
0.009684117266694176,0.03697748913242318,9.858567827748118,0.0004963936045153695,-0.0018104385533899833,0.006386295384834147,7.62
0.11350856008377302,-0.014977638942745009,9.916162055381786,0.007656054284657722,0.011922153345444894,0.011001535618531802,7.63
0.03298698605115673,-0.009779420250936526,9.676392879246539,0.007473160856245894,0.000979611769943858,0.0022627669872547244,7.640000000000001
-0.2509205592898844,-0.07408922436406772,9.709602955106737,-0.0034416327215284126,0.007180232804776432,0.005802691496557315,7.65
0.0216237454546355,-0.0836014877211348,10.026768783923451,-0.0012656737363460318,0.014092070392523123,-0.01633333581604165,7.66
0.011974197935667903,-0.06027558579928264,9.84611088126639,-0.01268385312345927,0.00432214890179822,-0.001489884373906583,7.67
0.06104238196625709,-0.15045293889637976,9.604262084108882,-0.008149332666516993,-0.011393160921424433,-0.003956815719242274,7.68
0.03255996899786759,0.04421553699970826,9.976394103994354,-0.007593926931796397,-0.0017256768303895026,-0.007894259787769182,7.69
0.1026498321913474,-0.046693019212622734,9.878512207780089,-0.0008066805003342075,-0.012724245521403381,-0.02210420627902206,7.7
0.1605848057788502,0.16589585335394516,9.819383337760362,0.01483842844730955,0.007364150828022062,0.004105145130458835,7.71
0.0022441954607260372,-0.013997707193391024,9.909282372440284,-0.006585229675119188,-0.017925619082972407,0.0008114691276424236,7.72
-0.026705214710235514,-0.17095356959157637,9.932580355497707,-0.010343802697455193,0.005249564000068636,-0.003455324431026678,7.73
0.010907419252592296,0.13056439336740794,9.786749248398952,0.014882428365442693,0.002180479524155031,0.0028715925990606852,7.74
0.06169642442204894,0.02831691806143647,9.895859322319902,0.005043046538320617,-0.010434950539129842,-0.01703793069422128,7.75
0.005680266733165866,-0.09265483886535882,9.739979850655697,0.009741618539759469,0.006262699072371215,-0.01855865035060011,7.76
-0.11704794664853427,-0.06535246896196821,9.71479740338348,0.006836237240620077,-0.009024616458925164,-0.00920025792195253,7.7700000000000005
0.018549636064327406,-0.0856805433104429,9.764313151130557,0.005847318149601468,0.014709914178272497,-0.0016811142554682122,7.78
-0.07238693715066274,-0.08094569873214695,9.643038210194463,0.011431164530163252,-0.0022791880982664455,0.0035617666292966877,7.79
-0.07629801766017402,0.058477659998836806,9.81790212127726,0.0005806381821517433,0.00956720974833208,-0.003117248361312843,7.8
0.1185890326824916,0.0747656474609062,9.748988589897156,-0.004826227396792103,-0.00414016974970751,0.001015092037507042,7.8100000000000005
0.14599132965953274,0.04962846288375708,9.760846408033817,-0.0006490872445542907,0.0071687249438158115,0.0009334442436172202,7.82
-0.12972463385481492,0.08843263458873363,9.849332028864904,0.0034434597176830352,0.010557629083631163,0.0034103877513173013,7.83
-0.027836768364879905,0.1895575692059248,9.900822770623245,-0.028233700604406786,0.010984596553895103,-0.000329758158484051,7.84
0.12067269383784762,-0.05270619555331001,9.79162011181591,-0.0010055155956864197,0.006274376731787303,0.0036062368366130454,7.8500000000000005
0.17736991603591956,0.09373299901862296,9.886669764950422,-0.0027845517600446003,0.0005898477421372369,0.004034438955893336,7.86
-0.05528677569004099,-0.026605252642630986,9.661810703684568,-0.005186349377805709,-0.007869829038671805,0.00909799735559367,7.87
-0.026347884643632875,0.09762891103068794,9.650294940949601,0.005446478089369516,-0.0030677293770204938,0.009433889154231335,7.88
0.001155772852365458,0.029900748953259046,9.92781032639898,0.004671782591821611,-0.0014593872291641362,0.017042771594563716,7.890000000000001
-0.02446678184342372,0.09269258144305065,9.90085116851468,-0.01778906877230141,0.023687356397680524,-0.011723488720364137,7.9
-0.039019377617087764,-0.1328382155748851,9.695769182623522,0.01756333423637579,0.0014379346401576312,-0.0021674008858868494,7.91
0.05758326804355464,-0.1208466187446809,9.813034314508037,-0.008037264843816254,0.0029930605206128754,0.023502998969276673,7.92
-0.09699195482758978,0.0384104503354701,9.90386719929706,-0.004977782236893755,-0.004814643704861851,0.0008009926753959804,7.930000000000001
0.10197857303200475,0.15372044459960443,9.75047553755876,-0.005194217999508865,-0.013008877260278566,-0.024728512425003495,7.94
-0.03586566971521652,0.009524208614456025,9.476953545303939,-0.009507351545671533,0.02033144286634932,0.005134030242184537,7.95
0.17162604116009011,0.25999503053596235,9.841890493919042,0.014597395505751287,-0.0032488031050532085,0.016450089430354906,7.96
-0.05712534397636261,-0.21197922049264784,9.700574246371783,-0.013080997667702545,-0.003984470475156487,0.017469000868742902,7.97
-0.018297431423268985,-0.08713615557110732,10.030159878183378,0.0016709251135910456,0.020889989524648284,-0.014460419338463872,7.98
0.04507453677283929,0.021712654968859227,9.970271657996129,0.0023824567442218047,-0.009236854307159887,-0.000597365991497418,7.99
0.08841793897486597,-0.027196380245696025,9.830775665588476,0.0009396381837790835,-0.012822485987674048,-0.006592591360196824,8.0
0.0182627494525632,0.08053910847948584,9.721136455301686,-0.016281073902745576,0.0026797715651650403,0.015448607352789205,8.01
0.03220030199307597,-0.00726769085675432,9.76348557093782,-0.0018074615217289192,-0.002675392891507913,-0.007064067894122179,8.02
0.06765448548324794,0.020693659004657822,9.75872552060912,-0.022943340319173163,0.004121637193413778,0.0005459979403218865,8.03
0.05559533284003006,-0.027609883428888943,9.66031795598477,-0.0011572572866853526,-0.0027539833442953576,0.004502148449200606,8.040000000000001
-0.038261441230252685,-0.05061997500131426,9.850276091631397,0.0012742671416770882,-0.002017273782477002,0.0003723836953791542,8.05
-0.10167410655358755,-0.08201480585333726,9.763895848948723,0.008106936017545306,-0.015188453349311635,0.02391740277113663,8.06
-0.04405538743161618,-0.0728600280186409,9.790187564748937,0.008006809253808308,-0.00554850955984355,-0.009744574693338897,8.07
-0.07281749887920487,0.10326166305957139,9.771708364591726,0.02039107373338202,0.010533842435422554,0.006559345125217355,8.08
-0.04765549893635174,-0.07556721254243788,9.90915994978044,0.0013752285287707486,0.003461344997809697,-0.005526614500014424,8.09
-0.0443692033888922,-0.01242048829811724,9.756653717897528,-0.003498950075033156,-0.0058038362822803715,-0.0026388188751062503,8.1
-0.01607203272220593,-0.12849895759589877,9.913546341173134,-0.003635352006202477,-0.004764112335774953,0.0004232511074742193,8.11
0.13228505310790917,0.14339856892002817,9.84492159713552,-0.01207302225713932,-0.020654561282220887,0.004424143884652889,8.120000000000001
-0.1561714763571359,-0.061687767644946524,9.577641226063012,-0.0054048815999143745,-0.027429187779461964,0.010036648031164401,8.13
0.16658110485094338,0.03440936794086917,9.792507056106238,-0.003124604045421316,-0.003597348817262264,0.0174062885788218,8.14
-0.07174068447813507,-0.005956112894472553,9.933881265544157,0.00549637553840065,-0.004046987488660855,0.02365349125533015,8.15
0.09445891885314094,-0.013208166985859941,9.856829198884158,0.0024557259449226473,0.011950143298722862,0.010477678292280404,8.16
0.025623983977364928,0.006955221144175502,9.914618404736215,0.003033127516556627,0.006866092857662995,0.007610139844722149,8.17
-0.018104008938581852,-0.1745697227249755,9.944163298229247,0.009509011510674435,-0.005991863624736954,0.008956716911332558,8.18
-0.0729322441299997,-0.009482760109940666,9.866171330332836,0.004264909174369576,-0.0035399965670317307,-0.015593052304384566,8.19
0.025309621254704873,0.20590996455842583,9.678620300057808,0.017387197848759722,0.003999153155815631,-0.005772988710833175,8.2
-0.04876832189980469,-0.11009873794933765,9.973935067668581,-0.005787918696017106,0.0003324924175624295,0.010852860007028465,8.21
-0.2110457383515812,-0.15928295437840878,9.67116696296857,0.01147767325798792,0.0025016719888352997,0.017259186370418393,8.22
0.08441878295899413,0.025753494577799314,9.79037855056216,-0.018804062464777796,0.007056823824159265,-0.012419532276245916,8.23
0.039984237725198525,-0.08327950753691367,9.822481108815891,0.0006254942124431473,0.009534909001574315,-0.0006207366506293481,8.24
0.00014896500696321782,0.08967261941895693,9.983295594386432,-0.005234516025081585,0.007068484680300563,0.005444414352420715,8.25
0.024527283075029577,-0.0010985409875179186,9.69634044580476,0.0040648227003680145,0.012448884451865276,-0.01160711999094123,8.26
-0.11670025104343709,0.012003752930652485,9.80310772286504,-0.012247427401551467,0.002263088450544628,0.007625048780869517,8.27
-0.09594458466949085,0.0409047441077669,9.768675400147623,0.0036082175491565526,0.0011643576970738181,-0.012119557758525315,8.28
-0.0650950050815821,-0.22269770775802367,9.633403363734812,-0.0017260661896906996,-0.002537100955228535,-0.0036720495157394352,8.290000000000001
-0.07566168385666018,0.032881472333711186,9.850543875656392,-0.00015291600278032841,-0.005023701764636511,-0.006840254417162684,8.3
-0.04017450723772782,-0.022086771488240987,9.8291872598711,-0.005226991512465496,-0.013826300490822856,0.005077933323417445,8.31
-0.14113365426748536,0.01522906993133445,9.76773865324212,0.004581310701534404,-0.008085134066036108,-0.006778767538196754,8.32
0.046009231600312714,0.0020414709935196863,9.881495152271482,0.005089304596976483,0.0014336763445997756,-0.008820384798371342,8.33
-0.17594926104915856,-0.03915447920540226,9.721436383308296,-0.01011938487602028,0.00794536306099088,-0.0051557441691338106,8.34
-0.016391561077887227,0.13455643323137356,9.878731086730337,0.009245212874041816,0.013995881438955313,0.01049749206864591,8.35
0.02264921339277269,0.04417311257585625,9.871557569999316,-0.019439491064270436,-0.0094318032191126,0.023687645580998153,8.36
0.016209314614068517,-0.02192216174757739,9.730063616759583,0.004686241086423183,0.00250212262036131,-0.0039011988630777523,8.370000000000001
-0.08635515910830738,0.06835180882087392,9.802962814569355,-0.006198206228247916,0.0029691079462159276,-0.0018531509132962865,8.38
-0.13147174491858607,0.11912138750715251,9.78397925996345,-0.0002128071725062459,0.013829344716006605,-0.011270756336142858,8.39
0.016200591460892227,-0.09919686261094252,9.819418538223088,-0.009045017513930616,0.006253227097122184,-0.0017008089615803965,8.4
-0.1739106823693393,-3.8960772326384825e-05,9.870477617350925,0.009051686940532539,-0.0028543676844007947,0.0004792145723772047,8.41
-0.026802942500737583,0.16010291748368932,9.757064990975268,-0.009457844996889217,0.009054387210961417,-0.0001897885917338229,8.42
-0.03043530928318702,-0.13613102085172382,9.943890270474068,-0.00108675377373108,0.000304690176312752,0.00632257971669785,8.43
-0.020134339828402348,0.14913450315915536,9.867643769542672,-0.0012420685855427545,0.014334323947183184,-0.02442500235284184,8.44
-0.07686691742398423,-0.17462724262355728,9.752953888375462,0.01222440010953233,0.006837796465711536,0.006611829656223738,8.45
0.13123266225793587,0.03932625406156532,9.765831312972463,0.005925366519325178,-0.018251209249630487,-0.0010782541196975811,8.46
0.08623468441300251,-0.1638308726548188,9.77857944008697,-0.00968323190204338,-0.008616351238235722,0.003960147985220871,8.47
0.04499089367576479,0.06670997276828507,9.83893154519337,-0.005503326949787649,0.012414573183314577,0.00997022204955719,8.48
-0.0605356192864595,-0.2329377022789481,9.798362366439687,-0.01790939197460938,0.005405194914247818,-0.004407265999319928,8.49
-0.19134301747344062,0.07014635080190056,10.115600137897166,0.0010381389496775801,-0.006323976365758241,0.011827249925706418,8.5
0.0028918501138786054,-0.07268857851298481,9.78896388553556,-0.008921191580911363,-0.006151806124705209,0.005611458040721897,8.51
-0.04953031012533538,-0.010830855865493315,9.783661516802995,0.008141919828482827,0.012629393085573402,-0.009738892454641825,8.52
0.03792019658991856,0.07135739378511369,9.884145691095044,-0.0002093062640025865,-0.0073450034894847116,0.00507162454757011,8.53
0.06758835118277505,0.12075238802055188,9.84081143021395,-0.013256741050998612,-0.00879684103188972,0.0030943542948434354,8.540000000000001
0.16381417107240506,0.0029623405552988216,9.583886708534735,-0.001115732352351603,-0.015993505320453388,-0.00022112484269221818,8.55
-0.06080169078485762,-0.027249808008958643,9.770433119630178,0.0012667804728502053,-0.0018712544336684164,-0.0048706366794187715,8.56
-0.07312501160382807,0.08576787048326277,9.781697224438222,0.01576142142564875,0.002503532198105887,0.010011542266611257,8.57
0.006405525178283817,-0.030047189641574597,9.887610962422114,-0.01742488372110777,0.010303560283454492,0.0009673522154389338,8.58
-0.0644769340096076,0.028835241492524644,9.706438906589483,-0.013589309976803948,-0.012293739022220956,0.003223134129325645,8.59
0.010107481465622587,-0.17047361619052395,9.712287611561377,0.013446639292444917,-0.011445132816271877,-9.502420285475235e-05,8.6
-0.14067385677029043,0.14038241268551602,9.664788475311568,0.02170143839687783,-0.028303341571848058,-0.01764859149592262,8.61
0.09599874917674428,-0.0726080293970114,9.851438467973477,0.001445655129154893,0.011704232914499851,-0.0016329769693596446,8.620000000000001
-0.11922422188148725,-0.07310802657218783,9.962667808392872,0.014375194831129059,-0.026090473912310105,0.01419014928419752,8.63
0.001868921151187921,0.29507031015268265,9.981859656279987,0.008133997773490118,0.005358134229689797,-0.004910377793890223,8.64
-0.16439441865844578,0.0618446187446873,9.95519707438916,-0.006260602256379347,0.0011412943501241933,-1.9199877240545467e-05,8.65
-0.13992148828485346,0.09558665900625912,9.711105057701381,-0.006435337037072349,-0.00908141224290817,-0.01608381724099986,8.66
-0.04416778509092794,0.1150432320095019,9.91592659714605,0.0012979717124451567,-0.013641158759504625,0.010924565953748857,8.67
0.06474876119827735,-0.12498966960829304,9.82634663122323,0.0036764749992013912,-9.569287277464539e-05,0.015827258624723735,8.68
0.03880832844684489,0.09080742664323606,9.77221550816148,-0.008873514277903028,-0.010193298264163951,0.004280354827335792,8.69
-0.031292469928577905,-0.0614479520394834,9.680412848784606,-0.0010607094848810036,0.0026230277680134428,0.0002938176160956484,8.700000000000001
0.1266993073842818,0.04359847129034394,9.766882956126333,0.006609760300333951,-0.0010291831763995318,0.00822554026588594,8.71
0.11598963688158187,0.12269791927452967,9.838811473897398,0.018676885545691718,-0.002331475789811885,-0.020384929337296125,8.72
-0.26094237930331576,-0.031295798927608906,9.90235583207187,-0.013783289745306775,-0.020000442527685344,0.009386725949059663,8.73
0.09719097180740244,0.021843410691524637,9.834604028795841,-0.0056979465899876305,0.019729940060834977,0.015873610410688174,8.74
0.0002119204557859013,-0.022064916703646194,9.73765450705512,-0.012838075785229237,0.008612416509199304,0.010918361034290773,8.75
-0.012062576799675984,-0.005098859461819904,9.949416300924335,-0.017156859603740443,4.5708524126544354e-05,-0.005371197176811091,8.76
0.11583787074068091,0.08542221251702604,9.721571508410872,-0.009717820634242175,-0.0240103813102804,-0.005196413312418563,8.77
0.07156638612283117,-0.1718327366979084,9.92009366148403,-0.004395385050730668,0.016491177664211647,0.0047855937765579875,8.78
0.020973086168451685,0.08846451964501378,9.75009472101267,-0.0006431734736052774,-2.6575291912485912e-05,0.0046112905077003346,8.790000000000001
0.09526323135087371,-0.09135885783457039,9.909007775610489,0.030048390245599237,0.0021578933238258916,0.001133786001839627,8.8
0.02787228546756373,-0.1183803752653901,9.856854320845944,0.006824549604969278,-0.007952680860517801,0.016849396291183642,8.81
0.012475880597644866,0.16718342304113032,9.920385717861274,-0.011164714535827782,0.007702969905585218,0.01586865448905246,8.82
-0.06338242000787414,0.11590614105702712,9.927333407341507,0.01113181374101737,0.006126844822135057,0.0016590301114703715,8.83
-0.06769895858857025,-0.06540889805824404,9.766744004927814,-0.0012146793035621335,-0.013309769577587033,-0.012053417859605316,8.84
-0.15039216957198953,0.028432207532630288,9.585571801030499,0.008593698206618433,-0.009932833689426542,-0.017472971793796477,8.85
0.10576352014695115,0.28069226641369677,9.958368049140548,-0.0005592714745188428,0.0004644954918283124,-0.00555508271539143,8.86
-0.05311405623558601,0.06006713628380908,9.838028028290838,-0.018474424868120627,0.0036318697866755296,-0.0155022859745306,8.870000000000001
-0.11229520342796623,0.05803021149944929,9.7941988188296,-0.0003028281743549811,0.0076726825420085,-0.0032452814081311166,8.88
-0.05890342588676903,-0.2098647444548647,9.847814179071728,-0.009517124552562062,0.010100661102226825,0.007376567661259731,8.89
0.12196791509250203,-0.09300549513698589,9.843300541510805,0.003401070415574532,0.01782498574563264,-0.0016210215063219569,8.9
0.25553589352592393,0.11509737091886424,9.721824193787723,0.0028960760755526067,0.01261726645803708,0.011520440681578148,8.91
-0.0883675291732754,-0.0812790784227833,9.847038428189016,0.003951343894193,0.006977844677420024,0.0002391387625606501,8.92
-0.1703655911179073,0.06633310340717563,9.86988353082798,0.0067121826814564856,-0.017394211637360206,0.0033897029395313022,8.93
0.012051504288831791,0.045981400201776795,9.879817620965198,-0.0028466725576169953,-0.01156880639440856,0.014321801166834345,8.94
-0.014619188266057005,-0.04617038423118322,9.787473422165052,0.0016849102056670235,0.009887785249827042,-0.006069930098264018,8.950000000000001
-0.09814420180511114,-0.08877236342213032,9.705944167813033,-0.008558429860561533,0.015986704796292744,0.007919190410772433,8.96
0.07303432998714669,0.0251356121801282,9.870881535110977,0.018946164607841893,-0.004606186858318985,-0.002379500944794703,8.97
0.05676254857009877,-0.07129649760638575,9.687615249543443,0.003995744102994504,0.0016278247157510911,0.004776398051035705,8.98
-0.01017171902227739,0.027370636844477415,9.754972231683723,-0.008314955196071892,0.0043192579262928245,-0.00899057253130415,8.99
-0.022342686955807163,0.08065007686796691,9.829976031631297,0.020423071370760257,0.005347040443323794,-0.014852283804975188,9.0
-0.00366622374538082,-0.013776377842672938,9.645920837207544,0.0024392908832403764,-0.0025932833846958186,-0.0034372403877693182,9.01
0.10668927223186647,-0.040462858341965946,9.828163894462094,-0.00962376900753221,0.006743322039105125,-0.005666714780486393,9.02
-0.1923983149757098,0.01587135613488379,9.904051809605662,-0.015127048669117989,0.005384772894433954,-0.010087911763505184,9.03
0.19043402810746554,0.09998780176440325,9.77693649148039,-0.001899756058778824,0.009540621772301545,-0.005793444646987903,9.040000000000001
0.12092163934723449,-0.20696713372411693,9.706558404715267,0.0029490040703836853,-0.003079707856965493,-0.008310324216333912,9.05
0.037802344443116975,0.017193162933936166,9.71349376671731,-0.007567889525251643,-0.007746755279213242,0.011182216143019506,9.06
0.11730435653621266,0.09443891649703845,9.684933165660002,0.0076407617687845675,0.004919269849736109,-0.01202749184721555,9.07
0.03377934267457238,-0.227991066330855,9.754334098355189,0.004909574612355615,-0.00204097013215024,-0.008787422254839302,9.08
0.03497522549407171,-0.10382601941066896,9.791556290514533,-0.004656547531754789,0.01817435470502425,-0.016428838224814207,9.09
-0.054297683606437976,0.11281124423032754,9.95978028885751,-0.01132942025313228,0.0016310237486518262,0.00034480306397946135,9.1
-0.22148127975889983,0.04770181329780877,9.692109606261965,-0.02098399700914295,0.002226723369030143,0.0028961735878956845,9.11
0.06735701998246346,-0.05185896276378432,9.880338083937275,0.0016229754942403626,0.019468606811135578,-0.009639875102312167,9.120000000000001
-0.07071659672023994,-0.24416227505921775,9.828144053009066,0.007247012300811352,0.011376015118607892,-0.01209014003126036,9.13
-0.057562606014914065,-0.06582483078732422,9.751601754067979,-0.01259055566173764,0.013137696088026405,-0.0029508877961592836,9.14
0.054148569981260566,0.31080520550133894,9.961848546070424,-0.01645166169107813,-0.002468147547358484,0.013861464789824187,9.15
0.08927504085081409,0.10222830305767297,9.850182434620029,-0.002475486656784648,0.006810059771165598,0.004489645763817755,9.16
