ax,ay,az,gx,gy,gz,timestamp
0.1947501450431311,-0.2578659775258933,9.884063191684472,0.016801797744124304,0.017910095572989292,-0.003951266360601734,0.0
-0.006650272216241382,-0.0800605437837712,9.879922942461874,-0.006581191537081103,-0.012392745675919062,-0.007372275494400916,0.01
-0.03174054711894827,-0.19156470772361903,9.824907590081269,-0.015657878539968407,0.018890283346046702,0.0012960897790606927,0.02
0.12829301953174577,0.11797724539055188,9.901796313337748,0.011329115528145757,-0.005679028926450708,0.010182951082351599,0.03
-0.030902991710931124,0.15984736098069116,9.84313747948624,-0.01650216807960824,-0.002825356043918255,-0.005004968863469981,0.04
0.06458998554247353,0.08052308789629475,9.854447005482653,0.0009252741415483614,0.004199037243691382,0.008696383293011409,0.05
-0.05809046848897053,0.17864055209699856,9.79303696416968,0.005328468072576787,-0.00727195101693973,0.009228781213034177,0.06
-0.08442789775174418,-0.04600902945751414,9.855727395028115,0.002282711704480815,0.006833424463331926,0.01279218673864718,0.07
0.19610837749497556,-0.01005417709829047,9.836933151471426,0.013398667743314434,0.015709833206318292,0.0012435720279536057,0.08
0.06110421926120623,0.05721027627680217,9.719116494024234,0.0033074129748838555,0.009149699816901852,-0.008583923222465175,0.09
-0.13339944273633808,0.06510098427399524,9.734221034884321,0.004132964294404372,0.021889533422546514,-0.006132735428486452,0.1
-0.009758286717881311,-0.06494425795543073,9.962330956173293,-0.008722886235898227,-0.019782040288025184,-0.006342208622481591,0.11
-0.030564539347991217,0.009093939991053509,9.840263682904142,0.01573153797751789,0.0064822444864144554,0.016074947605701096,0.12
-0.09587975429234144,-0.03584444644134552,9.799132475598299,-0.0015120013222674285,-0.01353509581975407,-0.004272018200569736,0.13
-0.02399135021704365,0.0034888063740225145,9.829288724735683,0.007705816412745426,-0.009815987827331608,0.002088175813420445,0.14
0.051988908923165024,0.10420951133281785,9.742773798069432,0.004731167039912567,-0.004412313114769965,0.013196284151222105,0.15
0.08805011997861442,0.06723773561160938,9.856331302385842,0.020045186820059954,-0.014909136062492548,0.0218215282162887,0.16
0.045106327884399396,-0.06512113862102242,9.61215429505711,-0.0006365999631755784,-0.011204638435294368,0.0004978187789405728,0.17
0.1611392449116748,-0.0070113407104080115,9.691744866114806,0.0012797051378805472,-0.0021261256922499813,-0.014831332497097883,0.18
-0.1114682023345137,-0.19789226979537258,9.802522442385508,0.014110880953062399,-0.006926533757242413,0.0008198606586867492,0.19
0.07576365860553577,0.07594670803560348,9.754693480461237,-0.00022629911467455033,-0.0022175403234177818,0.0007282695178080058,0.2
0.019702358299837776,-0.015753240195033876,10.046098303571966,0.0037602040533455867,0.01998233296774708,0.011553630475768756,0.21
-0.13666985237339654,0.09725550635690844,9.672334955521546,0.013334898816701763,0.010932070045366307,0.0001641639178627008,0.22
0.0891866054351288,-0.09957710347669402,9.969602337476646,0.00559517401181206,-0.007939048521699178,0.0037650893978887216,0.23
0.0897372300928373,-0.023062768677234863,9.891394075288718,-0.004314525890977942,0.010626668656839177,-0.016373837620270427,0.24
0.16211913363176855,-0.03851685197880104,9.859934683127095,-0.01579708613743554,-0.0063795602785915876,0.0070634373088634475,0.25
-0.000985621770428122,-0.08551282191231006,9.96748491176955,-0.02186297266768208,0.001894633913934835,0.016870623702973563,0.26
-0.09285859492886595,0.12379634754210914,9.768951837199348,0.004929129901994546,-0.004445682134803025,-0.013559284241164737,0.27
0.3076577215666353,0.02464280192705558,9.834399776552608,-0.005871017605954216,0.01693841946387597,-0.0023224028769081744,0.28
-0.01098089661255074,0.12952615006493093,9.775436310377414,0.015405226132055043,0.006841107321795237,-0.0018295314042123133,0.29
0.010640020320491474,0.08259215988765645,9.92928186209972,0.006819217466499909,-0.005550331969950562,0.0024912327796890606,0.3
0.02397794003103948,0.10497096497797692,9.812353669917352,0.0007018289130163362,0.0038648969074089466,0.01111788777471029,0.31
0.04422237615992672,-0.17850752519351057,9.775805732959254,-0.010387592393501628,-0.0025789995510391178,-0.00788335393549532,0.32
-0.051229589849700434,0.1753384562067227,9.867134687871856,0.0072751573300475925,0.00566190465586678,0.013390281172246601,0.33
-0.03407386851276238,0.14064145181672447,9.904634429155232,-0.005118011589138333,-0.015856351678000074,-0.008265589378064766,0.34
-0.045346473388201525,0.050873100725319864,9.766268462463316,-0.015441810910385724,0.0069267285475881945,0.0031346045642478134,0.35000000000000003
-0.19480166131376478,-0.1669460706683062,9.833614678547768,0.00202941099280191,0.011338219918527135,0.022951918542896358,0.36
-0.20231249566366666,0.09830448063353579,9.731943447207088,-5.222345989789861e-05,0.015331682873015822,-0.00015298923961112277,0.37
-0.0021434658466060073,-0.009281598552056052,9.85128021202518,0.006841630146240055,-0.007162695653102901,0.009712696095982356,0.38
-0.16323889493010474,-0.18455283027052838,9.737706522187102,0.0009091539162376501,0.0014891253028175345,0.0014014146489951297,0.39
0.0037328689916259388,-0.06268006804207742,9.849998485899077,-0.002164775615439901,-0.024998033179575052,0.00027599976834106755,0.4
-0.08458701308889235,0.08382762019320705,9.87448034026801,-0.006171722967144609,0.0029139984160832574,-0.016148912023936434,0.41000000000000003
0.05730926043491429,-0.13764497538020212,9.877081310075848,-0.01269733044622989,-0.006540107736121799,0.028668561483883668,0.42
0.01748663838869106,0.03802722762851844,9.797153386673592,-0.004521137119467858,0.004892069150004384,0.009776700320254725,0.43
0.13211882748697315,-0.08995017248009034,9.933280034872318,-0.006823236197729006,0.0020194328578247924,-0.0028023839014666286,0.44
-0.03628931276018875,0.05769023399219786,9.758733929966116,-0.008082622959224526,-0.0008087263619683521,0.00913220266013431,0.45
-0.005192956073261145,0.019542232793241302,9.877857989351881,-0.013463131328886442,-0.0167921989379008,0.008324101524281811,0.46
-0.14668547158355538,0.0471254857784974,9.786938604658546,-0.01540056505905336,0.01797135309632667,0.008238562706234317,0.47000000000000003
-0.15514908442010306,-0.0036901033644064513,9.818774476799875,0.013069190427218477,-0.0024410219314275066,0.0027401288140653196,0.48
0.007204875573310395,0.10494037312914291,9.860355260629435,0.0027909820131150355,0.009958349748273298,-0.002814134448109266,0.49
-0.07480011117272808,0.18499011771474105,9.886287743233387,0.003994180683404146,0.0009233598992393027,0.004746072422499221,0.5
-0.0877471808758486,0.03623970995378958,9.717957742305554,0.005614777536480739,-0.023013014985322672,0.006364330954546122,0.51
0.13371839965312476,0.08501555964950645,9.806123494801202,-0.005828097754187657,-0.0036401726588968105,0.010927230905899634,0.52
-0.02051823395021347,0.058147929318357196,9.640172185482623,0.013717773877348087,0.01892812439609078,-0.013542594573548781,0.53
0.008413708930146728,-0.01230771540881893,9.74366969135103,-0.00997549137796506,-0.0009104257664061083,-0.006081199027784959,0.54
-0.16329407997010537,-0.06810377783296799,9.8410295217915,0.0221921339894476,0.015205702763320356,-0.011314147904564992,0.55
0.14391893377776746,0.08994516942203802,9.742258639325138,0.009892934778276465,0.007851241066899807,0.014145979908250709,0.56
-0.06783836202729895,0.12026873282185063,9.928273632259456,-0.009390201750734344,0.00925930697365091,-0.0048449038541855975,0.5700000000000001
0.24443773083926762,-0.13000676633763963,9.868809646475274,0.009004448855123677,-0.018238524956395948,-0.00936023428862763,0.58
0.15929938530247045,0.1305928886400293,9.668506071227963,-0.008016796111778732,0.001933170425920626,0.01744076211566577,0.59
-0.02520323448265492,-0.10576497307035287,9.683596966209823,0.008055918411597073,0.003999737636621971,0.004896493408146452,0.6
-0.15418925769285144,-0.10988131182509234,9.900284175395827,0.012854198404284327,-0.018102848584531494,0.00010862015533068058,0.61
0.1345925285957599,-0.13469463756204292,9.769646403768256,-0.006378166775607901,-0.00887305956093919,0.01274401993682469,0.62
-0.04593770937407163,0.046216878397066105,10.028562156931898,-0.00030064386619942985,0.011846431502028316,-0.005755699668015408,0.63
-0.12149961842823119,0.14342641023002226,9.792280130236753,0.009632555224755366,-0.008246764128384376,0.00942283845276827,0.64
0.1283314895674593,-0.06541575952642496,9.688889076023196,0.00794787494456486,0.0007401175510789236,0.0021011085963479844,0.65
0.17656466959728115,0.043551477414140144,9.81768244522668,-0.003427313363946919,-0.01266429060694212,0.01257664600338395,0.66
0.07599900241179862,-0.2689976853488519,9.773963304325795,-0.004257835289864933,-0.019073750043634034,-0.004122515463476707,0.67
0.011888476230219477,0.12724724975761,9.814845478633902,-0.008538314355732206,-0.01716800780779168,-0.0018571508914266403,0.68
-0.048780279962122336,0.011450061082131273,9.682027050253394,0.010752886656890207,-0.006516417133221342,0.004895981800368452,0.6900000000000001
0.00475485910086749,0.06728437291143606,9.91414407364235,-0.0016407564118039383,0.01732070230694164,-0.00035660698695980434,0.7000000000000001
0.005890446575951756,-0.13710916093328382,9.748538635102804,0.012286251278133748,-0.013795733033766062,0.014326490683490352,0.71
-0.03937133721194039,0.02497799744951786,9.97987862420584,0.006137397009491829,-0.0034858000183210446,0.013766169813740686,0.72
0.007547958077666327,-0.03640300677735412,9.745365767198182,-0.010976657913338643,0.015139622522742563,-0.0023490189061673955,0.73
-0.041601925709681936,-0.0646088497487753,10.01043287251099,-0.0005614827037080951,-0.0014323892631124028,0.0009705229797310317,0.74
-0.24136559874926344,-0.006624171557123502,9.82243069684772,0.012138250167035387,-0.006739703078348731,0.002134385827302983,0.75
-0.026631933963061225,0.04218760487058481,9.703213225250327,-0.009904532552840581,-0.025072552014412476,-0.01350913017960749,0.76
-0.12081037582397376,0.06780073867682135,9.954148698244401,0.00023106230939265115,-0.0018896841500491816,0.00665240852222224,0.77
0.0017905444830331107,0.020910213288245258,9.947873012252439,-0.009029215166003688,0.004830827623816207,-0.0026866913774158496,0.78
-0.1759855079555839,0.05519281614014935,9.911444865314857,-0.006970099071988561,0.011271365462720504,0.002548957035571834,0.79
-0.021251989845369936,0.11381740550072524,9.866529802928113,-0.005409578957157852,0.007020204073085437,-0.0025035512850187162,0.8
0.09450384079276548,0.10697934151302664,9.822395729292769,-0.01062416942215558,0.0068791585563014665,0.01642324101446567,0.81
-0.05708739523266514,-0.15924237888379278,9.905237038330686,-0.008748876186305215,0.001252555147671189,0.0020266487020543194,0.8200000000000001
0.08175447710313505,-0.06774791835955483,9.777971064115903,0.012065565455230829,0.011717268614632646,0.018075487780761814,0.8300000000000001
0.07251226526399701,0.14860796670592868,9.736054509526546,-0.003003706714594592,-0.005504605161448641,-0.003899578505538556,0.84
0.06814082037392784,0.03655577816154217,9.722923917305385,-0.017057004152776382,0.0025818853600601804,-0.012262945142406598,0.85
-0.08901002799893515,0.08762291052058274,9.870289590844916,-0.009723150575526562,-0.007177218681948411,0.0002758657689678488,0.86
-0.11087707528641454,0.08102364934736017,9.787723771838401,0.008671060464589693,-0.0016428946595585467,-0.006601086741355158,0.87
-0.022851389139929932,-0.12736555408280212,9.694905057300517,0.0011115184042629579,-0.001446025589629354,-0.002289305965461439,0.88
0.1893282309440622,0.0024535712365877684,9.814271615415628,-0.0013500993562058864,-0.0014232560322584413,0.01304270585633532,0.89
-0.2409595746585157,-0.03399058161812008,9.865376361495759,0.009741501679903057,0.01736765650876531,8.829705961540217e-05,0.9
0.07876400624121964,0.062339477554190094,9.957513743773262,0.003996560150435748,0.00922676757078518,-0.0048486175741027015,0.91
0.02246657746205098,0.09628207698424439,9.606458362021531,0.0036593061954869467,-0.02492781835970267,-0.004832422147092833,0.92
-0.10666688479296732,-0.09884712616556393,9.847134701933628,0.002473869025850276,-0.005329302958067899,-0.009780811190434842,0.93
0.009116399577819592,0.03871221048137433,9.852840430969438,-0.013918151632380455,0.014548164656125715,-0.0037366354556161233,0.9400000000000001
0.04519232291369189,-0.00390635783539492,9.89217661796189,0.0077239565851947994,0.001729487459788812,-0.010046338703240254,0.9500000000000001
-0.06038148542542787,0.11201563327285818,9.81414395179504,0.0042616544666310855,0.016474902578826348,0.0062128795531111915,0.96
-0.11010616106097629,-0.09366831831472208,9.95727484505871,0.003486907991780407,-0.0035908733756638256,-0.009136091695583935,0.97
-0.06734649229811547,-0.004819290627590809,9.752075475621313,-0.009957996673745296,0.004686185286222239,-0.004174057441229868,0.98
-0.1534970616992647,-0.07551874192881602,9.773462728565764,0.015109453616341417,-0.013305990648578016,0.011870882386363924,0.99
-0.04483344590577662,0.034751367859616876,9.961427186678973,-0.01241612903377727,0.005374703894107617,-0.0014163406195706713,1.0
-0.14889037496372268,0.11220563070952383,9.769347317887192,0.0014927723460191398,0.005939352971961828,0.01454986205996582,1.01
0.05849400809625857,-0.0937756586450684,9.850970303975833,0.01047948751384833,0.008192885335133425,-0.005597384418186706,1.02
-0.03520428552423085,0.03873379607078769,9.81843650473312,0.005863355751677302,0.007583291599381508,0.003025083467310607,1.03
-0.06333228425122374,-0.07079113979287127,9.587949084190793,0.00823693230675867,0.004593418761181368,-0.003777572963089042,1.04
-0.08087173777500074,0.040189553456870475,9.886808327193426,0.0037910940326470735,-0.009715365112113667,-0.010214866535827241,1.05
0.0693564921784585,0.0969252418074467,9.741090057982133,0.00387321117169479,0.013299241599023388,0.024333484457826817,1.06
0.15006069122699406,-0.07742811206511624,9.866120128737714,-0.0078215278476348,0.01103732804484947,0.003343743139142676,1.07
0.08279980912023013,-0.05514816867476481,9.891001318879649,0.007068532536279034,0.006370167134331818,0.01037575099777686,1.08
-0.011764060439710018,0.001671609089200964,9.782517279471318,-0.008343632502781726,-0.008113718239309328,-0.0036597747906764043,1.09
-0.05249045564812617,0.019730337070303475,9.679610171987395,-0.012572820408456158,-0.009344683616945501,-0.019220162465631133,1.1
-0.02383501809590143,0.22073568336276161,9.7643534869218,-0.021801361639685667,0.002209668606735976,0.0118393986332095,1.11
-0.09593040969324991,0.08776915949776315,9.835329626007862,0.0023800559238821004,-0.006302241309574734,-0.007935253784322709,1.12
0.004273261129800881,0.14547912100358928,9.752771654766722,0.009772374417225935,-0.00037336913945625267,-0.00626337198441314,1.1300000000000001
-0.06770389589652852,0.060155175727924226,9.819221176842795,-0.013851012837095335,-0.0029258536508747265,-0.01027561512125907,1.1400000000000001
-0.08844247561461793,-0.043096552893442545,9.817190883964107,-0.009985654359015465,0.0005404974475153959,0.014209212201721309,1.1500000000000001
0.04374551622259796,0.032955869531692404,9.825301960487877,-0.010193801070934766,0.010724557321397585,0.003651565985760236,1.16
0.04828785611432045,0.08082094261457841,9.71915073791226,0.01271678535713935,-0.0012926121893186294,-0.003273309745959342,1.17
0.08076091790878334,0.021965102088927393,9.969678420340847,-0.0005669696399234953,-0.017064516512739564,0.01032616209903007,1.18
0.04936224034118464,0.08511344425841699,9.909413322752824,0.004172080232698436,-0.020414698210434165,0.007254582289254561,1.19
0.028567934802335278,-0.09670856025206073,9.814340849742475,0.012732648688332342,0.005125443089336241,0.0001974247963943817,1.2
-0.08632835010305508,-0.05335126943735585,9.673868922856428,-0.006633465391868919,-0.01730705580656264,0.007841449463989073,1.21
-0.11381528913827987,0.14121851822186934,9.765413438109288,0.018024772487013525,0.0013794587526945949,-0.01072779935109484,1.22
0.03875928700062742,0.06628017916324662,9.810387153048225,0.0017421184970049912,-0.0012624667471924948,0.005240335405354269,1.23
0.04030499803514901,-0.1763930063247406,9.907397572315984,0.012234202964734039,0.028467375587756995,-0.002044123119195097,1.24
-0.2036214562073466,-0.11263509291688499,9.661793321363902,-0.0021804841182120264,-0.01661912524100119,-0.00028038147718596876,1.25
-0.08206004524662619,-0.12737864236488852,9.861991726782632,-0.01272848960227371,-0.006467469890638688,0.005277137815582887,1.26
0.23575013442562054,-0.1075442518188695,9.855585810543518,0.001761450913342734,-0.0047311150289219,0.0013831683605445425,1.27
0.005380183648479402,0.0568950735533214,9.897080224310857,-0.02049463623801325,-0.004640076583423076,0.008501512468170647,1.28
-0.024805757434002155,0.06623643349646284,9.827161336507734,-0.002504680961300998,-0.0013826703466047919,0.00640135922938059,1.29
-0.008658361775209714,0.08225479549178102,9.701038042496808,-0.009513154669593444,-0.01001729876268477,0.0029723384440241037,1.3
0.01635596141673427,-0.06442969672131711,9.746451140935527,-0.020668890869663913,0.010433242974167646,0.018734692571024357,1.31
0.10469140265997362,-0.09805564700295362,9.84350916040186,-0.0005716320448799924,-0.010151060963660056,0.010930765571387257,1.32
-0.05612707394660015,-0.12040998311112712,9.79680273678607,0.006725246643249333,-0.005198182099820805,0.007059358140766037,1.33
-0.02151588255645613,-0.004325540950645712,9.885526359533886,0.012722977595387246,0.01035334508160686,0.005525958202453527,1.34
0.36356350580790914,0.06462785152780592,9.803944736677588,0.009371691225347869,0.018580925204275508,-0.00924150373392888,1.35
-0.02426986029698475,-0.05632753718039764,9.813515229657344,-0.003678413439027195,0.014746365491202243,0.004250645549679197,1.36
0.06736782785024044,-0.2564310528483501,9.844556857620427,0.016590473120555407,-0.005879868293913793,0.005480923341036955,1.37
0.006853573933439636,-0.0616450445390407,9.671446073637572,-0.008428417504759643,0.007473223511324506,0.0013538993635010099,1.3800000000000001
0.18901546770719205,0.07277189230149905,9.689666091791402,-0.0054077056684043055,0.013005348138524693,-0.002707673438902118,1.3900000000000001
0.19131596698083153,-0.09213397896823344,9.918722992267286,0.0034964308682041857,0.001368174050857562,0.0052034187056584046,1.4000000000000001
0.029197734820102267,-0.20385303577812303,9.880564737033973,-0.0031131899395105507,0.00981680756101669,-0.011992384863760277,1.41
-0.11444361365054492,-0.0852533609909649,9.812965315741161,0.010190950012489293,0.000820074145713474,-0.001163215319445036,1.42
-0.05062306082024107,-0.16061151896397588,9.811570905708836,-0.0005189302044469486,-0.020894611323434266,0.0009219052590141578,1.43
0.034085142925783955,-0.07635428352225684,9.702527082904371,-0.014842013437810078,0.010108198755047974,0.007215909548603584,1.44
-0.04875319183624088,-0.051268457709642945,9.882624056003051,-0.02090824426626904,-0.004220652174686366,0.009887454121489139,1.45
-0.07358397893982653,-0.061027978694759046,9.774148252826981,-0.006058826752678639,0.008528103295898705,0.0105980291153231,1.46
0.00992931381062511,-0.07262400000860489,9.72938041478803,0.010330337291093823,0.013812740113335638,0.00854148711601275,1.47
-0.09823129761929214,-0.049818471126422,9.694324654590325,0.015766827932656265,-0.005425984653848624,-0.007605549615833504,1.48
-0.10743248472359741,0.007002168374560025,9.938434688128893,0.006608149713310839,-2.905743477384719e-05,0.0036040225118427185,1.49
0.013594575445952016,-0.003654315232144061,9.868044101415363,-0.004353350625069106,-0.00025019726693757,-0.01043096331754779,1.5
0.07557660378935657,0.05131976112344522,9.951908718619801,0.011113379223938848,0.008647446962095226,0.0035362726071957546,1.51
-0.027527295249561285,-0.09114384788384694,9.957557237925634,0.008592633935430817,-0.003822254230715014,-0.014490954559062132,1.52
-0.014516154586256791,0.023369576208088806,9.7341120768549,-0.009356509374383475,-0.03145788817999166,0.008834407305551783,1.53
0.010994977805860619,0.03071804997094644,9.730187772549908,-0.005055467688114514,0.013113568781776823,0.00022100875179857912,1.54
-0.03226526344929984,0.0255138092519699,9.925727630003832,-0.001051430234312814,-0.01258249472157793,0.006937243290940887,1.55
0.07044298361803356,0.11416158133978827,9.77935680874007,-0.008188544540194381,0.002823851560633878,0.0023365972556163616,1.56
-0.1558682371510417,0.041583811125119365,9.904241887023561,0.024403484730030543,0.01583002133799186,0.00031476009076042823,1.57
0.052235487510240465,-0.022509212543360316,9.663744628375571,-0.0024103515278194702,0.0032589391858430738,-0.011009347395566105,1.58
-0.03074454048655434,0.22068005999253365,9.817408862702946,-0.0181000957002042,0.016444114788852385,0.00934228374083839,1.59
0.031351954356756896,0.08114156362021896,9.738923519711319,-0.016215276505311453,0.00820528972855397,0.0008669153320646054,1.6
0.029319648475755668,0.043112518346321536,9.703279921953296,0.0031364439841095933,-0.004810610269465729,0.004607303642594312,1.61
0.29490523104833055,0.08734823454692009,9.647758668602831,-0.015426051369294987,-0.01193469162766939,0.00883287617363346,1.62
-0.13743197571672222,0.037543083880860396,9.92139608447356,-0.00976830143622814,0.0006373300527011162,0.0007941345687236702,1.6300000000000001
0.17583188402879332,0.050986186769074106,9.641371831285078,0.01206346909167022,-0.000779808762198504,-0.006107928111097476,1.6400000000000001
-0.17522143619122407,-0.04296015673163861,9.886341913766225,0.005814137057850081,-0.006199566742314846,0.019772923829485745,1.6500000000000001
-0.04352525674208264,-0.10222334451105802,9.797920782943335,-0.005310860288549711,0.01253903832118692,0.01437365629255871,1.6600000000000001
-0.11812477831207567,0.13259827025134488,9.88887133557882,-0.011776840205734624,0.0035870289541139033,-0.02074665455922408,1.67
-0.09492085263567218,-0.08307651406848299,9.713633762461352,0.02344346255833098,0.0035097981277554357,0.006074513783959361,1.68
-0.01901829802428093,-0.0574066216565698,9.885502473792581,0.0025121654822744146,0.012739333008038619,0.0006245501359328251,1.69
-0.055428339467534386,0.032017255279138734,9.860444464308467,0.0004047874851657867,0.00591922703287063,0.002074449264828582,1.7
0.05888492118142468,-0.04111647784444733,9.783838055173833,-0.018141641467743733,-0.0071618490624068935,-0.004692793628902963,1.71
-0.0971687234348631,-0.023211229555074767,9.839692784023676,-0.012038054229142182,0.0005539370715348575,0.014597926766763096,1.72
0.1145652192600673,0.030043086866035074,9.858645686322824,0.003648990466202853,-0.012474950889819954,-0.002522982031733318,1.73
-0.16243127117251685,-0.0069486927900093065,9.611012831690648,-0.003900502100769625,-0.00909047485877477,0.0019195805166359443,1.74
-0.07719369313267112,-0.14749736703276561,9.719562354306401,0.005785751366814212,-0.0011429374627819188,-0.0036439251215643446,1.75
0.05718317776110665,-0.06418047033641285,9.743635636722903,-0.008363292504935284,-0.01102865746221619,0.009388911885058167,1.76
0.0006695683612889944,0.00700901162581047,9.996140073109489,0.0023015417441363904,0.010100963993570243,0.016460536436638924,1.77
0.0996435736086682,0.08147355311182236,10.037678554227854,-0.006412638235279699,-0.004761037651641492,0.0025926640886165197,1.78
-0.09289767964224582,-0.29573570621092515,9.851285895395764,-0.01071256351108855,0.003579636184229203,-0.017236101175005042,1.79
0.04034024979528219,-0.007559792888084883,9.957435463529267,0.005448814935452184,0.008702185987617767,0.004770625644846476,1.8
-0.05030979281423244,-0.02108631188545483,9.748711978960252,0.004262758580780153,-0.007733996837876327,0.018988064207321763,1.81
-0.01606577257819515,0.04869023766995001,9.740669950862921,-0.005783079143418896,0.012874442827195716,-0.0005184557838630451,1.82
0.021347410974958958,0.09308798615411967,9.741193123290198,-0.004934365147335142,0.01295340273575266,-0.0024269989265068214,1.83
-0.21457157580032993,-0.03399152667935573,9.888106855584134,0.022064795435823636,0.003760660874560657,-0.009507224978113168,1.84
-0.12877565758022974,-0.017494043933735767,9.825979912048282,0.018141039780551708,-0.0037324191756121267,-0.005922196191462762,1.85
0.06638205671831292,-0.10095933735547491,9.914872378617243,-0.017540265060602862,0.0025503518144410135,-0.002927301927533103,1.86
-0.05478871748362218,-0.055588442488116466,9.581110829050605,0.005278386864346887,-0.001954424284301689,-0.011523281533461641,1.87
0.007596588347678685,0.004060349715555575,9.965071417285703,0.003726919588282761,-0.011922819891820008,0.007125837738928129,1.8800000000000001
0.12756651338034872,0.002705220156248895,9.630379732023544,-0.02611479718338116,-0.010786521967184095,-0.005573510989503086,1.8900000000000001
-0.043849760039261804,0.10657900331436235,9.761532477649794,0.004601908453098188,0.005586453785455774,0.014526845697438012,1.9000000000000001
0.0914638077406004,0.09433569713344162,9.763974643817662,-0.007692197217496392,0.01694800584061744,0.005369808652064814,1.9100000000000001
-0.11610624816918365,-0.07204779794182696,9.758259576308344,-0.0018264239151955714,-0.0024485784097009106,-0.002252528940554945,1.92
0.047404827762102586,-0.06008388163555933,9.877515099283052,0.0011898552268885547,0.0025727238676958885,0.00645100818412206,1.93
0.03255584622861615,-0.009235476848849778,9.88336370928647,-0.016694615185795698,-0.010570668460983715,0.014452342878240303,1.94
0.16153055694529042,-0.005385634809771885,9.864085911664304,-0.00759360435189605,0.004856974679338086,-0.012782111030101833,1.95
-0.10476448978660431,0.013792225615959428,9.82913045527454,-0.0008657119045314528,-0.014427748942044998,-0.008245591174412845,1.96
0.09638623715128938,0.03699001284404254,9.887774578041707,-0.006035352273449938,0.00410369808925864,0.004347843817973506,1.97
-0.037847702976915226,-0.20944199292711405,9.504441444046053,0.005297957618294046,-0.0022677629369648785,-0.01664525610704527,1.98
-0.05659179329751921,0.12211757152677759,9.806482542820627,0.0040276762601368825,-0.009296123012509825,0.008483148713829929,1.99
-0.21707026999093393,0.06731596549827862,9.819675977896793,0.006065379372563494,0.012250618708316776,-0.005597038251975269,2.0
0.0240521985474495,0.19627982566517757,9.68607247191403,-0.005776631428050656,-0.011173208254081293,-0.012738404644546914,2.0100000000000002
0.016436669947461464,-0.11551387902271071,9.757152721472258,0.01899782566674993,0.005607310792745386,0.012796782346236175,2.02
-0.06717888967217864,0.08135406041938616,9.679096152553358,-0.0024690722187072005,-0.006851140449503098,0.0011482049046810494,2.0300000000000002
-0.001786564282338094,0.12484241928872108,9.763009751767955,-0.012355976538366174,-0.0069442596437696204,-0.012724690788013594,2.04
-0.03697645541123935,0.012293641967173346,9.903252507917554,-0.0036293618272824585,0.016328213764779668,0.00571395087280695,2.05
0.09903784645214118,-0.04355888635190253,9.86464322684783,-0.009128724076272958,-0.0038976422791581885,0.015445572876705458,2.06
-0.00948014507859667,-0.043911169140547435,9.802510586446088,-0.003786449367857847,0.0024657537858634323,-0.004736954459280979,2.07
0.23377049201215902,-0.16611262964815687,9.825841937151331,0.0008329343555673083,-0.013090052354778567,-0.007857963617520853,2.08
0.06402341362968898,0.00562516781619744,9.753052723810855,-0.019492317457380337,-0.012509906061083946,-0.001466418795346538,2.09
0.09050702463194975,0.0697667961008115,9.792978140389904,-0.021397230445560016,-0.005085150818601653,-0.022888043366096553,2.1
-0.014465474889767219,0.00016457247436443335,10.002255040024886,0.004834814407561366,0.0027483913160875955,-0.00125925201877204,2.11
0.01570566243557622,0.05592938942161379,9.79909324061407,-0.029882855026538865,0.009592569032805285,-0.004641549699531553,2.12
0.09790901063966913,0.17913623282226288,9.871221793758304,0.004645943616375177,-0.0009339883254909339,0.0013862172460503835,2.13
0.10463098456369027,-0.18579449251431335,9.626105524353902,0.018004909793186794,-0.0017391328554638569,-0.017781332514644796,2.14
0.014037873035014584,-0.07210912868256457,9.787901793569052,-0.0008187424683811149,-0.008545448450223762,-0.01253834269930701,2.15
0.05143603370448627,-0.019127359822464385,9.731361346270965,-0.010271949731118137,-0.006305017254439516,0.000769887546000509,2.16
0.019406815872103893,-0.08002339724113806,9.787517090046848,-0.008377422002036394,0.005994313275252067,-0.008817649933590417,2.17
-0.05245697333623526,-0.128461007256456,9.893081670309575,0.010704700019183538,-0.0024317366687209227,0.005477489106807236,2.18
0.09223951949700883,-0.13089809970004693,9.7763863610721,-0.007139141377020615,-0.0031113597766467362,-0.0015474344619353763,2.19
-0.09255337660013138,-0.0590567644801591,9.899501371587146,0.004576660799150835,0.00010023654102986518,-0.012777764573401795,2.2
0.02443314354477852,-0.15467126354352673,9.743097539234743,0.015925955929968313,0.003850986660272415,-0.009491344458184591,2.21
0.04521635513205784,0.10342055322352908,9.822280419962016,-0.006362274165089812,0.0012297903731364403,0.0026978981367426938,2.22
-0.08711935591483147,-0.02897655307570636,9.828632252018023,-0.009207112324651656,0.014782036827016629,-0.0036838954668489553,2.23
-0.1751767133054352,-0.12924329930389133,9.83889353884048,0.0031287338615771433,-0.010319129102377556,0.0033483632451902644,2.24
0.07606463095073034,-0.11888325990017029,9.75821696732198,-0.007031066190859107,-0.0003873692375159235,-0.010684005111681646,2.25
-0.0005065092950394527,0.1349058500523159,9.873207474499043,-0.014441509228242675,0.01689784847412625,0.00520104685236769,2.2600000000000002
-0.11004592835223002,0.054589075367906616,9.637039877626702,-0.0057103591671091745,0.015902589241293213,0.00296387716212813,2.27
-0.16656954970872992,0.057276971863027326,9.863919159755287,0.0008483163971807475,0.007929342780349138,0.0058989385864049795,2.2800000000000002
-0.10052067948480095,0.14764654381937767,9.644028959161918,-0.01480439430064554,0.018194026156980667,-0.011124374804012873,2.29
-0.11051921450520058,0.1885545081931807,9.545010918544508,-0.009284709701852254,-0.009881681900606648,-0.007734181458832279,2.3000000000000003
-0.02232569398412597,0.010413788863781527,9.792069377846143,0.004368829977901602,0.01960643872795014,0.005827061285032817,2.31
0.07435589083012022,0.010949869499733748,9.771171392678392,0.007793769249384924,-0.001876127594640849,0.0036197408311822404,2.32
0.1053556377742277,0.021779598477006293,9.947699873680866,-0.002120318745706068,-0.005720286856480674,0.0024767526631539077,2.33
0.15960354790832093,-0.03899139211765741,10.012947296072637,-0.02500021427429731,-0.007362001791805417,0.010108176222715544,2.34
0.10118035170961635,-0.19988479972574086,9.72315681309608,-0.006091429233492913,0.004477047804506138,0.003617777896794454,2.35
0.0815904031956955,-0.08198134530497143,9.766441263838823,0.005718437889742049,-0.005828554223150249,0.019140457193680845,2.36
-0.047739193680040495,-0.2592139624552556,9.824166163264993,0.0040165895489857415,-0.005225829543927425,-0.02142210433459002,2.37
-0.11401916314815119,-0.07246169727204413,9.769248689153915,-0.010359204551072039,-0.00975232523609818,-0.0012056119474639635,2.38
-0.0027817132256856333,0.0764735380060216,9.702488399012509,-0.01187924147223081,-0.007983413433616155,0.018613779900854745,2.39
0.26257522411761486,-0.0786006782975388,9.755411531679027,-0.0020620225782437673,0.006462199130710301,-0.0015688144809224978,2.4
-0.1301626337600451,-0.1714326045690685,9.812081309426999,0.00565867057638072,0.013721588490840849,-0.0039535089570364,2.41
-0.13856099046270454,-0.0323563740843159,9.849112608121667,0.007702531992462323,-0.010238653913947808,-0.015029391206364642,2.42
0.07813939247092937,0.13953796096743654,9.640463267667979,-0.0003986815116057651,-0.010369392922899985,0.0069120784786866896,2.43
0.12414039640054625,0.07835526738983023,9.833081736196233,0.013182148935304821,0.003136441735522093,-0.01778180913109379,2.44
-0.01631768764522413,-0.10292766313922852,10.095194716797318,-0.0020739929460981206,-0.018086095676982522,0.009479071809153715,2.45
-0.060877890026234366,-0.0553497022790449,9.805826052649248,0.005632314248693101,-0.01012497519781981,-0.008933699184686408,2.46
0.02902187131610423,-0.19677781598822605,9.770323283470258,0.010534023438769307,0.005394051506136064,-0.00553630090982976,2.47
0.1514159892710377,0.002589919880351675,9.842724769042555,0.004808061577519104,0.00022073306843806083,0.01614085380647448,2.48
-0.003224388883902539,0.04820269159463701,9.915446478175994,-0.013315120970919633,0.01394641538400544,-0.013081052480239544,2.49
0.06736130814127274,0.16737360489788122,9.862437034661768,0.005540735429239705,-0.003635273703746492,-0.0031909729787801856,2.5
-0.050785328650124785,-0.033197176842605446,9.92398911998378,0.0009758484022244945,0.009075592506538865,0.007684987487782078,2.5100000000000002
-0.06348278040309721,-0.25266425917764856,9.69812970737099,0.0019109894403390698,-0.002536523099310994,-0.02303002366200088,2.52
-0.06446178652004576,-0.05419730032015216,9.871411867829325,-0.013011589559071815,0.004905701912255468,0.009667567832685917,2.5300000000000002
-0.13008700604054088,-0.02525911850663541,9.840239553716332,0.003992867782271686,-0.013586974736154563,0.0005290753917459007,2.54
0.00865306888582886,0.029240767417406166,9.933409790762123,0.003707649172949142,0.002787837811895409,-0.007945394559005258,2.5500000000000003
0.1344009556823649,-0.22363088106822215,9.83305792045658,-0.013140654618189378,-0.0033921327777052855,-0.0018306010511418842,2.56
0.05899009723832615,0.07359286234373245,9.59405602414791,0.011970994247038423,0.007565191795329106,0.00813128791043974,2.57
-0.13665328292961798,0.08294543259827339,9.867473471777426,0.005186286284353981,-0.00035181755371445426,0.009523446953667773,2.58
-0.029372344473615936,0.08179241860810373,10.00481428108793,0.012408786089114072,0.0069705972098166825,0.01616982819743758,2.59
-0.06614176442842083,-0.17244668093136342,9.715634186576555,0.015206902553631338,-0.005131183297011479,0.0023679512196957265,2.6
-0.04133855332751099,-0.16785038048328435,9.65308674330329,0.001420508046365193,-0.012905939142988323,-0.0026643767775132617,2.61
0.05087025417572453,0.06054268309057438,9.89942748867865,0.018412372474315843,-0.01888652043012706,0.015677373076839748,2.62
-0.008950523374716968,0.06721143509446025,9.717905009081438,-0.004789335586240894,-9.030565744508558e-05,-0.014766790151159866,2.63
-0.16495868032287225,-0.05928694125058057,9.810629849836017,-0.010402525742391035,-0.008365833366223317,0.0027165953954219795,2.64
0.002158994827757709,0.17611410844456188,9.71587808057339,-0.0016579525994940636,-0.008430715187524081,-0.0004223070644630749,2.65
-0.13710329787393383,0.004013401419212698,9.72223852139843,0.004879488484188092,-0.0005410986038261625,-0.006906589198439037,2.66
0.08473219628544268,-0.2353657905714094,9.73500638696287,-0.019104901004826657,0.001171060704188485,-0.0062364157179932225,2.67
-0.007426193966048752,0.05382674772037885,9.890925902323369,0.002626798906866847,0.008804416305345982,-0.0034246703424373817,2.68
-0.024604196495305215,-0.0022629933334601775,9.838197800877598,0.0037375307357775073,0.007628980377634735,0.006022230561414228,2.69
0.13557562873659915,-0.027094288197188045,9.672871974892029,0.02416034141213736,-0.0007351026604188304,-0.0006660181130357945,2.7
-0.06688786376032319,0.20301146312363616,9.810585286418819,-1.8515489477544324e-05,0.0061270255161546385,-0.009568299545258799,2.71
0.09601867673613823,0.08343790052775446,9.860330818828695,0.0035779807414494293,-0.020539087810607974,-0.003543819543474566,2.72
-0.12248363574889128,-0.1320940792870495,9.716685208278793,-0.013941703645722925,-0.004649607602242512,0.01208377543273403,2.73
-0.04182468879658973,0.11052062088216855,9.66745271019846,0.012803059590962793,-0.00674324476053278,0.024677353022152123,2.74
0.09449363185632732,0.12146062495760973,9.708693678934532,-0.005841052021174927,0.0012533888502494965,-0.005710927448431404,2.75
-0.09292101227927152,0.009946506733685023,9.86793163997381,-0.005803840881152543,-0.016569100606068907,0.006188255196195822,2.7600000000000002
0.002366572291842525,0.02737078776523715,9.71294800401297,0.0021685778650054575,0.00028258708572069486,-0.005493051969839642,2.77
0.08776769405314362,-0.013307042636673075,9.901295761522427,-0.004774013870395481,0.008241595241852792,0.0028284205052561857,2.7800000000000002
0.1411554987945584,0.02627554222868217,9.89776930194015,0.01055676767897052,0.0006499754842400479,0.013478881831676793,2.79
-0.01480462049441079,0.11120116446018213,9.8641210340474,-0.00391883860721361,0.010991757137263998,-0.0007394444752903979,2.8000000000000003
-0.07172184597953983,0.10598605754503537,9.64811380510885,0.010332805382876958,0.02229350799296618,0.007660085539814492,2.81
-0.0759314863296428,0.17805577304281978,9.73916765240511,0.011477522127305115,0.009072903923982608,0.007331512530403895,2.82
-0.030230441430623384,0.02391867045000577,10.029059203024543,0.012818434043172584,0.006123670660116776,-0.009686404973022564,2.83
0.11550566778102266,0.058388319119229704,9.731577997273902,0.0011752028902604615,-0.007813320048470379,0.008419904575930554,2.84
0.1513453136495438,0.060179557676542365,9.94732575053767,0.007366683455007055,0.006213398697701651,0.0037029334413727286,2.85
-0.2796904964039223,-0.010682142333672096,9.741185656734626,0.019648947663992455,-0.008765370587451837,0.009964834526161601,2.86
0.028280326768973074,-0.09856960694889039,9.90959768569402,-0.0002518896845340672,-0.009551326033558684,-0.00098816182571153,2.87
-0.10027400321790654,0.05469579076167646,9.831105504021114,-0.007646236980732796,-0.005293794435577097,0.010745433806601456,2.88
-0.1558268039484091,-0.09144081101766648,9.861429666430146,0.014977033944561638,0.00698592114919369,0.0011856933751774547,2.89
-0.18624728552965256,0.13641512942243433,9.86212417715993,0.004320813342092807,-0.02798045862649405,0.01100259194343026,2.9
0.014376261761593359,0.03341535198706847,9.753246517814688,0.01562660855740476,0.0019687930850303776,-0.007732847003639809,2.91
0.11729719917816038,0.10409617662420077,9.807116829870163,-0.0021266080708308753,-0.0061212785146842206,0.0038906819687184856,2.92
0.044042795453703355,-0.08344772967510146,10.209022470209952,-0.009216692677993943,-0.010495768793210328,0.0030846342554666944,2.93
-0.09731022761113832,-0.06270253894015237,9.888119143261981,0.004734568100085041,-0.015202786217414761,-0.005354653417964077,2.94
-0.1466605607749879,-0.028988027837477295,9.950460096958082,0.017810109009853494,0.0022214556612275794,-0.020809419989772128,2.95
-0.027222292610557447,-0.05317261143583446,9.886882491465022,-0.008383134211224321,0.00990284414783784,-0.001711097831115561,2.96
-0.10864325320797757,-0.0004011260617234224,10.074837060518117,-0.00868187651452663,-7.946356850153562e-05,-0.0010966178542029135,2.97
0.028268399422436054,-0.02745717728050945,9.751202032218092,-0.007886384299399507,0.012040697531271516,0.00449071132322005,2.98
0.018278326211892664,0.11403801328089187,9.70969896897035,0.023755472060636062,-0.008416579191329461,-0.010804052740087727,2.99
0.04641864217644623,-0.06787000870235933,9.94350758128321,-0.021030617247055794,-0.007840424012089132,-0.01133736592905038,3.0
0.07282707296929766,-0.045421991770918387,9.866034701266877,0.00038066430769857914,-0.004392273125218396,-0.00018633944084276772,3.0100000000000002
0.002818522868904189,0.10007511121767543,9.951185499571503,-0.007680779622140259,-0.005084498108912555,-0.007538355939224821,3.02
0.1515350671701856,0.06081294640195676,9.755265794300076,-0.01940581567379624,-0.022294681775241524,-0.009900652445559311,3.0300000000000002
0.02445594324946628,0.04136553811867344,9.78847449423982,0.001438871500499639,-0.007231582600013213,0.004290951211777315,3.04
-0.017030289374028396,0.04748525820529487,9.775714747175448,0.011229191296725506,-0.019995330125859117,-0.006010325356773046,3.0500000000000003
-0.14947333768848897,0.053691333492721,9.740418121232267,-0.006774655161807359,0.0022773141285824766,0.017564396362815923,3.06
-0.174595998482694,-0.006741247279581685,9.798090047889541,0.015653631350747786,0.013976048777971895,0.00568219839043016,3.0700000000000003
0.04432148290543065,-0.08898924077247622,9.75324784164617,0.00570591572811382,0.0021745964899297626,0.0057060802566885425,3.08
0.08069140740546941,0.07422622381176142,9.848562764416636,0.0013699817663612118,-0.0035997777701615176,-0.004668900495417756,3.09
-0.24803939239013892,0.031181570165843227,9.88352559610838,-0.007545205109839518,0.007088924032342382,0.019652421768244128,3.1
0.2356468322744318,0.04017852995676867,9.652493273719516,0.011167992653247763,-0.006056646771829293,0.0038784597399291842,3.11
-0.21519012425953715,0.11154127551680769,9.790643807311536,0.010495204389567475,0.0010343119998145775,0.0054648109963329125,3.12
-0.12191422357037851,0.08922026975529371,9.842372001308105,-0.004618861817133044,0.0028569584611072875,-0.007590650435887188,3.13
0.1297185822100317,-0.06228239867824832,9.822509667787923,0.011498630150152806,0.011921260242915694,0.013142484693052821,3.14
-0.0011908771414725122,-0.07341777242127455,9.804498356252026,0.005708008949542398,-0.0016700354695980948,-0.007293751947090953,3.15
-0.0007179541339766594,-0.1263120747208887,9.666267968746169,0.005759876809936685,0.023717669716886436,0.02266467720802961,3.16
-0.011600492454861784,-0.10816989302767147,9.89666089842847,0.008169104533116107,0.020559332717692103,0.0023555444148747537,3.17
0.020200934173263022,-0.207443389593709,9.820554479117282,0.01258896112389626,0.00574367072862443,0.0018792262731576342,3.18
0.03750555274012097,-0.008389375806636375,9.815250846143288,0.015336950155261011,-0.002765201805239404,-0.010012301349210169,3.19
-0.013257924537199001,-0.11333950122853156,9.883096007725696,0.003555443843215528,-0.007441204663552254,0.0009395819237426347,3.2
0.02660416507304549,-0.02060723090857502,9.682720040822744,0.006116340588673528,0.01969751716114275,-0.0013924394296916229,3.21
0.14411351684473556,0.1881484443203649,9.941630099245266,0.005560488015810441,-0.020495710228486702,-0.0002227745284256117,3.22
-0.10007720055806645,-0.1105543721500619,9.872423449229414,0.00927123491942867,-0.01332195770626635,-0.004257425376874548,3.23
-0.07225899155855121,-0.08540188377107225,9.73846650033072,0.006327927576492282,-0.010748470221510285,0.008459026848049458,3.24
0.021903141077341884,-0.02216620691534803,9.859835861961878,-0.004057711993206888,-0.00561185695150705,0.0025117833018519936,3.25
-0.03754284050744034,0.07995334638135174,9.761766200471245,0.012756465691377982,0.00596998435041453,-0.00671322649953816,3.2600000000000002
0.3003801941358133,0.014072513516050409,9.848807867002359,0.00244137785106202,-0.0013664046838631847,-0.007556462903543677,3.27
-0.09225148356719942,-0.08176596891596727,9.692009039121873,0.005646859224408178,-0.002436776820054463,-0.004255073257795455,3.2800000000000002
0.015476942753073791,-0.06291681097128012,9.732277274119987,-0.007284196625117062,0.016069867456555684,-0.028586115955016114,3.29
0.07368120966373601,-0.021196468716820755,9.65594008854784,0.01419128536104557,-0.004253356303626387,-0.006740923884217558,3.3000000000000003
-0.0184745533631426,0.04726912372919291,9.726311353261595,0.0035807196095268825,-0.001025650880776649,0.013058348960201634,3.31
0.09909477489800328,0.09266392683034083,9.783472790653555,0.006911428561887869,-0.016056374812133276,-0.009080849424787266,3.3200000000000003
0.24748831295691712,0.0245124088483695,10.016896001273508,0.0043605359772205445,-0.009135863589581765,-0.008328507013429782,3.33
0.2540047531714022,0.05969187339709221,9.831194809491329,0.013530698008424083,-0.02413652600264864,0.0019339878279800713,3.34
-0.07971079507213819,0.0445814885501692,9.871854935701759,-0.01821564061506651,-0.006825762049387575,-0.01672417016716815,3.35
0.14138164945615886,0.024497922622297916,9.776399663301971,-0.002704879517878097,-0.00891289405689293,0.020100923707789882,3.36
-0.020875392185579184,0.10448592261925493,9.749460753102452,-0.013858890045562778,-0.0047580285754829955,0.020883239251879803,3.37
-0.008430667597477721,0.06756774020061178,9.972381607570696,0.008532156204094804,0.01793640276515687,-0.01878333683827499,3.38
-0.041485036977224284,0.14573382533720788,9.827416269005878,0.0007143140404451647,0.011279855262047413,0.0039329422825067776,3.39
0.06381335184690529,-0.006211664115153373,9.893276887468366,0.00019967810526629666,-0.013074786506367508,-0.01022085822888823,3.4
0.0002839083592698406,0.07807138647237241,9.810280066294538,-0.018582398180141024,-0.01755477140255985,-0.006713789351791939,3.41
0.0239535686854304,0.10740515194946704,9.750003414248978,-0.016672685879575058,-0.004647777208244412,-0.014123781604272901,3.42
-0.0885225804988338,-0.20227415934857237,9.76373494332634,-0.002160051411595136,-0.00010399901311009059,0.0022075325578456016,3.43
0.04770586258406362,-0.03567224278168916,9.793468117275989,-0.014257876232367864,0.009251733084871535,0.010154142036302605,3.44
-0.023956238523127435,0.07623243913752614,9.772180970209023,-0.016670508976223998,-0.006799444427280912,0.005795507731440793,3.45
-0.011888108717022415,-0.10522709873823821,9.8497410547325,-0.012715041634169016,0.009547467613172786,-0.00198833028286548,3.46
0.06955940536132117,-0.09963480834266934,9.6343363673345,0.015398739409456732,-0.00625315112030758,0.00685582612373169,3.47
-0.06408984358770071,-0.1268365727903256,9.778784005381317,0.006312174920094206,0.0040127789028684005,-0.0024710202286367827,3.48
-0.06972081531502826,-0.09184693997012884,9.85474362532164,0.00854025693162653,-0.007676647237522259,0.005821427227741731,3.49
-0.0008136077672585915,-0.003954963409388574,9.982714247202317,-0.014702744878862303,-0.007383766724189893,0.005206749430811526,3.5
0.13655407306795977,0.14646083888308997,9.888867304219543,-0.0037907847654964095,0.0014950566697036068,-0.0007832001239342513,3.5100000000000002
-0.09073803442918615,0.011733363978002995,9.851233032521307,-5.1394375474613576e-05,0.005883124053956169,0.008556697120577678,3.52
0.012891674335270178,0.027744808732561063,9.839859903040608,0.006619913847113931,-0.0018953007128725706,9.017436275481078e-05,3.5300000000000002
0.061809815761200704,0.07996781828431468,9.922404839669447,-0.019077279371101687,0.002136622479230794,-0.002276714728759861,3.54
0.14138666467798752,-0.09885552365574533,9.881349017342025,0.004061260262728036,0.00871658084723262,-0.002929029853000919,3.5500000000000003
-0.0064162005638587,-0.12146276706568356,9.981214627574866,0.002276229953399662,0.00103761313586483,-0.013172670287623993,3.56
-0.026713454676091448,0.07301473111973511,9.7285759175339,-0.01804180190276049,-0.00368791623848461,-0.0024672297392343448,3.5700000000000003
0.0741753786660143,0.0770357319575235,9.918260148628162,-0.012338662023362108,-0.008014028045884825,-0.011872890781827457,3.58
0.005150483500084878,0.011345819805452696,9.836565594717515,0.009750658656138004,0.0004152423293617203,-0.021185971230223064,3.59
0.0006727636278190053,-0.21150174759705279,9.843737326872429,0.00934830636116997,-0.0022435093708904324,-0.005314799238955613,3.6
-0.14130516648591163,-0.055715818016387454,9.786672822551994,0.007452746987709223,0.0027903245963692208,-0.007975871626422252,3.61
0.1116730837632199,-0.14867322173192823,9.92466850028426,0.0012950097988538084,0.0027726706539426206,-0.008763350560124948,3.62
0.05439372502036162,-0.053590292138401587,9.846091731945013,-0.014642954140487172,-0.012715012829674882,0.02596327776839378,3.63
-0.05557503656279085,-0.04416026130736818,9.799918057539719,-0.0058459845262455925,-0.008506999210476566,-0.015639707684190946,3.64
-0.06367001635426787,-0.06919032404164298,9.82527326711352,-0.005509877245748065,0.02215882132987442,-0.003984181985288246,3.65
-0.09933015398403774,0.130998531867269,10.054797011580572,0.0037625580823636004,-0.012993642495746832,-0.014401608035069131,3.66
-0.09816435976471277,0.06815842961450289,9.787747184803,0.0009094362974232389,-0.012755523325989535,-0.003922338731059709,3.67
0.0020957860642543237,-0.07835067318457568,9.719967309866414,-0.032163912083259805,-0.007707643379360859,-0.020688655230367798,3.68
0.026225990593583923,0.013093900498336293,9.86054529864654,-0.013194726692012701,-0.006143945296308109,-0.004264020486843301,3.69
0.06417909212730236,-0.020711411418161303,9.645402285708881,-0.0022100858967530022,-0.018093784252240553,-0.009034053277574226,3.7
0.08018019483480476,0.11377456093493528,9.884359412442729,-0.007799205324267506,-0.011072809622685538,-0.02359756173739243,3.71
0.12225469619205015,0.10094629693890743,9.748895171314176,-0.004764044963882436,-0.0027815229877344964,0.012156188940288856,3.72
0.1947801011645519,0.023313061393748877,9.926979066122165,-0.006938299187875231,0.005744970712887098,0.008072483561291402,3.73
-0.07038041422572923,-0.022911046540206974,9.953836084790764,-0.01526337559799047,-0.008844588021237809,-0.0040130927005321915,3.74
0.014094465264520696,0.014081386126623383,9.739886058851909,-0.0001445804220892334,0.006739212842124205,-0.009949508022420008,3.75
0.005859283621889432,-0.02000253502901605,9.860615663258105,0.0003243420750656913,-0.00996001085310767,0.0015192099230946748,3.7600000000000002
0.022070692803010734,-0.009038575623840762,9.769836447127346,0.011566579600696621,-0.006043458579807639,0.0022644908856732505,3.77
0.13642893912318627,-0.15259219248537656,9.955385443229092,0.019592358295960895,0.0001371378301271434,-0.008682499158553403,3.7800000000000002
0.10705876513479917,0.021795947943077994,9.623366962992435,-0.02783746595352729,-0.002203506369211645,-0.0059962639533505,3.79
0.023328399358508115,-0.24306144709723188,9.775604134227175,-0.0022006263668065767,-0.006657177545434796,0.007044407910553138,3.8000000000000003
0.01051032545843758,-0.2173652671410844,9.755517107382422,0.006947231575349702,0.003097341775945027,-0.0064315937762438186,3.81
0.09518845525987611,-0.09994498667002051,9.803186742919356,0.005333677152168811,-0.009563068348515003,-0.0076109259969487095,3.8200000000000003
0.000771590830199697,-0.1323189463811141,9.84964028282188,-0.018507482759523956,-0.0013927783767468114,-0.007849189577320509,3.83
-0.06643745533612107,0.23119987416871246,9.793044027621576,-0.010921727483303093,-0.0037180056157403852,-0.004580150390002726,3.84
-0.014408462353099508,-0.2095497484141193,9.757418515965167,-0.02294215007009348,-0.000712517101015297,0.0024681598275414123,3.85
-0.04082534651660252,0.09453286971498018,9.775614930244467,-0.0013517511028343682,-0.0025287531537856946,0.0045616523249868346,3.86
0.08792040471488863,0.0859150593265164,9.752222489794145,-0.0023169061191072884,0.013650989360651199,-0.011735784857006763,3.87
-0.041228692460856114,-0.102578367660999,9.680172802603911,-0.004281845917325939,-0.00589369222097533,-0.010897627204660847,3.88
0.19817182832279434,0.00042686840135896425,9.818924856199692,0.021905358548350313,0.003760992755707676,0.024939586977856636,3.89
0.11215637352151353,-0.058704536812783696,9.805006320069639,0.003449275910887942,-0.0016151760339554663,0.0032344262604648605,3.9
-0.11985234867157656,-0.07506726410677328,9.720736657063716,-0.002485749491190268,0.00042953294495014026,0.014353346691302482,3.91
0.04226397816580026,0.06596358144690993,9.751086621573714,-0.010834883799769745,0.01026292787487687,0.0033247341326363656,3.92
-0.1681407399805419,0.01927265103351028,9.61421364115847,0.006233847294621456,0.0037886657109348198,-0.002691394954402677,3.93
-0.0033765702272906062,-0.1526451305839958,9.840397920869417,0.00021567520700767595,-0.01687287035017084,0.008029283827453125,3.94
-0.0840597355728735,0.03425396102409125,9.651324349147634,-0.006214961337116322,0.011787085564082849,-0.009259941584122983,3.95
-0.030190681012412277,0.1607936127653594,9.826504332627191,-0.009783753922015885,0.000600848319218979,0.0012071185471522424,3.96
0.03255027740067041,0.003637669241063754,9.883012353278483,0.019313599618403517,0.012852930190802183,-0.007438691187905808,3.97
-0.055314822111161045,-0.11667596073858455,9.855022741254974,0.006018228598831016,0.018098304233080353,-0.011112038208779578,3.98
0.0080734930843169,0.022508593830716187,9.910927103807422,-0.005301981254464348,-0.008138565979503378,0.023960815673574498,3.99
-0.009905692866806298,-0.02264411096378957,9.692635699638808,-0.008852341276923,-0.008422326609843364,-0.01142345886007786,4.0
0.07320584766953868,-0.05302458459882323,9.854499152240722,0.00980060605789417,0.014689615230860088,-0.019323407452567498,4.01
-0.011480951480360794,-0.015613206615309483,9.916787832796839,0.030015152558198418,0.00015841135878718801,0.013740775227562348,4.0200000000000005
-0.010162057907730815,0.15905277544594876,9.730080515757168,0.005104445991249814,-0.0025999493977703985,-0.020897076401165688,4.03
-0.1082309770033738,-0.03847728459374518,9.631474948491432,-0.004214447284516066,7.20368906713544e-05,0.006817673986682609,4.04
0.05089427124085732,0.08587567122279414,9.815456254364571,0.0006627342322507815,-0.002079561453922205,0.003607230740973367,4.05
-0.011367001664988292,0.05273207441655725,9.841878766855707,0.007680108758564766,-0.013767847187794226,-0.011865571303992427,4.0600000000000005
-0.06733458098651593,0.021532228976323446,9.920104480776684,-0.000151388771486426,-0.00398598050599068,-0.018130136805299953,4.07
-0.0066497573401580945,-0.05259402239413118,9.895100017137077,0.0082418675758857,0.01758108686789633,0.00931566932739332,4.08
0.07552801375229863,0.10309179425112108,9.849846543467727,-0.01576076249825322,0.01984326973082128,0.01600631760060201,4.09
-0.08512574227291356,-0.140929920564561,9.670923779626492,-0.015427100129857074,-0.01498592132684119,0.005079501399942834,4.1
-0.012461956347917493,0.17305427875856594,9.762116272225706,0.009794968141057011,0.007190078679667453,0.02339538883370362,4.11
-0.05139909599711804,0.05997084172990548,9.89445564106467,0.011003115032269237,0.015255959972590443,-0.0014770625531553413,4.12
0.11638144128197406,0.05792548025418231,9.905899348805468,0.014552368916516678,0.0053212171297361424,0.0008654860087280036,4.13
0.09946929301825566,0.017273271007947552,9.842082075313373,0.0004934957001933657,0.010948264615158403,-0.01238910269516713,4.14
-0.00399344044853531,0.24199984494931692,9.925059298526683,0.011636833025008491,-0.000957192158139365,0.012386531791359361,4.15
-0.02854743575502443,0.1266835592877225,9.7960009901785,-0.00760197920432251,-0.0014215612829533936,0.0032947510613368473,4.16
0.0653234070289764,0.02881079019444075,9.939533799792446,0.0032932177246376977,-0.007460699872615665,0.0059763124230169384,4.17
0.1907160880700761,-0.10431127928107037,9.944115045802443,-0.0192419069313469,-0.004119888484131288,0.009148404415610035,4.18
0.11527894839189659,0.028322705820317443,9.762599242483528,0.006103914798472709,0.009753375579338013,-0.008481279079585746,4.19
-0.005010697220530666,0.18458179158021482,9.910062356968075,-0.0013325552867489122,-0.001170418370828222,-0.005478263270320952,4.2
0.060990789774100156,-0.20591513024295907,9.893572526692463,-0.0016661726489315513,0.006924797494832586,0.011906901067820474,4.21
-0.12758864121734745,0.1843820984237493,9.734981877609284,-0.0022418749028046405,-0.0013555538735622544,0.004778694768753961,4.22
0.07593755184471301,-0.07623716174726147,9.834377168004435,0.004024357897996627,-0.003904049286286917,0.0011868243986554985,4.23
-0.08211249457239655,-0.1783532400058332,9.902750254237267,-0.014565348433030192,0.00785487145434896,-0.00975026311261727,4.24
-0.1079609391078653,-0.017430770578730586,9.871376286268225,0.0049410643419673375,-0.005861544208374868,-0.006964411638346284,4.25
-0.09596834914815817,0.17358056890682064,9.926299926933295,0.0019120347181296779,-0.00496605738011103,-0.021116478407178826,4.26
-0.0694409701805556,-0.09438592104635354,9.755320320801477,-0.0006526754530079592,0.010559580381348407,-0.010264615917794864,4.2700000000000005
0.13542927650002237,-0.03868362139760818,9.696873141553777,-0.015150932393000091,0.01285928678471801,-0.02327188211851167,4.28
0.1938600384657753,-0.04226337792145912,10.023343881503207,0.007445584729432827,0.021407794818874667,0.0010064431284585304,4.29
0.07992099872335325,0.06782730804206256,9.643820987994568,0.011948624942552251,-0.011425978600243103,-0.006590723935924574,4.3
0.06957535335590913,-0.07192738987993616,9.699691075933947,-0.010332891422450315,-0.00012166680409032506,-0.02283607789653655,4.3100000000000005
-0.13957894736219376,-0.162769195970983,9.923629236198254,0.007327817857542579,0.00022158148765765635,-0.009108504999696615,4.32
0.004852438617390952,-0.06760996481677901,9.891760392383976,-0.0029896241884852194,0.011382465365519154,-0.00870936565985739,4.33
0.08605991559675642,0.006647297143130677,9.86860742347612,-0.0024898360534207488,-0.006309060055681201,-0.011923524441407181,4.34
0.07172987191124588,0.01392759309750519,9.804341681647328,0.0071199708108484975,0.0010646509996722305,-8.969143268376041e-05,4.3500000000000005
0.00760905794853086,0.0006549335671692435,9.889762110887087,-0.012345055365349257,0.016377022143231258,-0.012256285705672325,4.36
0.0697584448670947,-0.07022294239218856,9.901499827274518,0.0114683992157981,0.01732991722177516,-0.006406851708984783,4.37
0.1147363930910646,-0.11082596406347818,9.734780166364514,-0.009316488511388448,0.013716940739731384,-0.0008528895268218139,4.38
-0.05400689098930692,-0.12446824860089073,9.833998872705221,-0.0021408522836920607,-0.013086175607765552,0.010874235506499465,4.39
0.02270758457261559,-0.05784710664470819,9.846242761228629,-0.01597076254311074,-0.0075529942156214395,0.003601612794053348,4.4
-0.04849801665998701,-0.061164710484334986,9.76925612819104,0.02027898795589482,0.00468415861184466,-0.02706637862690836,4.41
0.040704111813391404,0.08208003644339862,9.703437494525398,-0.0042270261487001425,0.0041310560528655975,-0.0015051611458593752,4.42
-0.008136983814661202,0.017216972172130748,9.789749213038782,0.0030586266746551274,-0.003120838618729975,-0.0046495406184268355,4.43
-0.03820049523330295,0.10321048752852094,9.841683908481325,0.003068666109381692,0.01095793154274696,-0.014119534408799263,4.44
0.016520562068587184,0.05586998630415967,9.904141213611448,-0.003576677057057074,0.006122460999688458,0.0113835660606679,4.45
0.026749861148059353,-0.11794686424657277,9.95625366976917,0.01430254794407794,0.01686641562310533,0.00703303362302342,4.46
-0.14662848775371923,-0.029478153087475856,9.707572632869239,-0.0010615611282730677,-0.00885985925394934,-0.0036009196334609098,4.47
0.14339423629209566,0.03620908386978201,9.66099610579629,0.0026778075834465558,-0.0008315429923783848,-0.012677047211218134,4.48
-0.039529469682837014,-0.03355404409640415,9.924413900375397,0.017467494679282245,-0.0001515413780282731,0.009054057364377784,4.49
0.007504466963623071,0.11234303028035204,9.894402465416574,0.026641864924168823,0.00396079852657694,-0.012644957617504704,4.5
-0.1208627491374083,0.10761339923476612,9.683073270513193,0.003123693551962857,0.0060788259963209445,-0.005144780641982625,4.51
0.11536273034316996,0.026010156838439432,9.79285712963485,-0.010746454810036127,0.004691028064119133,0.00565295125627084,4.5200000000000005
-0.05273618556792307,-0.20493676709705697,9.761002649220007,0.00764019206396783,0.01581841374655022,-0.013045452920931596,4.53
-0.1555442441802831,0.039062039692693395,9.811895640413507,-0.004208159685055286,-0.00969101593575105,0.01662998867495584,4.54
-0.015299745548460822,0.024935313304721086,9.859629908988124,-0.013970075530555742,-0.009400938008385193,-0.002938109234108621,4.55
0.028265413821671755,-0.22431962468287484,9.929326949059483,0.014905732011448994,0.004144303058545356,-0.0008552240675766969,4.5600000000000005
-0.11944723989272954,-0.09811772294431068,9.90867576907029,-0.012341523383907815,0.009487072701209312,-0.01006036985722151,4.57
-0.07835686755658114,0.12984786994223255,9.877408091347649,-0.002563034042020546,0.000146362936661478,-0.01632816474844186,4.58
0.06604069719927118,-0.13535935627829912,9.774535752118851,0.019640221905294103,0.0019008603347738227,0.008728817681523626,4.59
0.08368512140942747,-0.14084952416685767,9.755203200096703,0.0065385780319149305,0.006606520004844404,-0.0024235724553613577,4.6000000000000005
0.14897147289756837,0.058157507375032974,9.818885254131635,0.018391130430864086,-0.013317030700600946,0.0035237650399786574,4.61
-0.09161852667686456,0.14260058297915967,9.839239367216265,-0.023827922109110822,-0.01682633163265115,-0.02089717110204926,4.62
-0.05268081921094536,-0.05404804317151879,9.894487999597978,0.007862288619570675,0.027076199258910517,0.01812944891424626,4.63
-0.06425460457341504,-0.011838745199178987,9.770708497100264,0.012903915458498876,0.005446420060022126,-0.007248825280979995,4.64
0.17340597082895798,0.03433307504343938,9.91663494156079,-0.005341808007515647,-0.002631123042101988,-0.013269071835627384,4.65
-0.03906186961731967,0.16506656258934976,9.719101531006013,0.006946542079387337,0.008081538726204368,-0.007776102171270409,4.66
-0.10687466099849541,0.026111822013124203,10.079573334530512,-0.008065648366495195,0.0044723238549113095,0.008840342174000908,4.67
0.0664714759876912,-0.10408284218020702,9.782670317258821,-0.0072315203971539425,-0.004378149144108888,0.010430569825827874,4.68
-0.0005638575431904432,-0.05590322456380129,9.88451698126374,0.011250172073499829,0.0040363603714383975,0.0015221627548046895,4.69
-0.23154729141637534,-0.02641501382599631,9.645717090198936,0.010260573328230983,-0.004044529664613358,0.0018010048255379981,4.7
0.12636892567814642,-0.010567869740935211,9.750263797400748,0.0037648136892290845,-0.026241931437351835,0.015434858126655087,4.71
0.057369790677123646,0.1838299081043666,9.724802163378603,-0.006698622250668799,0.00017525259850683674,0.011933683921165483,4.72
-0.15859822440040852,-0.008747383695873755,9.807649475089415,0.0024571145280996207,-0.00470263910606197,0.0027882598122543237,4.73
0.004988205523727831,-0.1704462105966421,9.805024267364523,0.011758964170102033,-0.0016753048088420175,0.016960281583798625,4.74
0.15650675154369476,0.045596006575762,9.79681650162398,0.0293654329965486,0.0033114372348782804,-0.007147742256412573,4.75
-0.05210437654206848,0.1484540164181717,9.790143704023528,0.0004970507669079781,-0.020323075770668112,0.003865198009690904,4.76
0.07632383862055098,-0.02464381179766581,9.824973748427775,0.015125748605184041,0.008647936875874014,-0.0003284847046688586,4.7700000000000005
-0.010116772920469268,0.07948143516028315,9.941930292075657,0.00812686709440467,0.001973833816936901,0.00932433960833302,4.78
-0.01669153234780144,-0.047341524126905773,9.869803811940644,0.0020373542342156407,-0.0038855233765049176,-0.006041502104281191,4.79
-0.12274317912499522,0.02972955256436682,9.676886273457754,0.003396634266880991,-0.001845169319760582,-0.009186468838031226,4.8
-0.17138388077740555,-0.0403990752915239,9.80080407017331,-0.007326647941940612,0.011434411623780607,0.007894576366506425,4.8100000000000005
-0.1373915394301861,-0.14315798047871794,9.857949450732919,-0.0011745156994277866,-0.002141949583879905,0.020225930402380778,4.82
0.10020153928618214,-0.0553326993257087,9.704599081826515,-0.0009838717661742433,0.007458871959251667,-0.001497296021360686,4.83
0.22215234703912168,-0.06078911779023576,9.683465473327924,0.007289661411043313,0.019231057984737288,0.003387147308534372,4.84
0.05034644204054185,-0.11764641786563138,9.928263071026748,-0.004090760269665048,-0.005920636508826613,0.0006906647250623587,4.8500000000000005
0.24797327094886154,0.03678294343266549,9.63702455925799,0.006033829859097187,0.00027531857610547966,0.002381651061467827,4.86
-0.10383966533918608,0.0714561359999351,9.750231578531013,0.007151425164718131,0.0030435536624442133,-0.012546340528269962,4.87
-0.06013499420029403,0.031002194487089754,9.728429410255814,0.01806386931411637,-0.004821735084266688,-0.0024081255048712664,4.88
-0.00742811731699712,-0.12604739310938004,9.723529812377862,-0.015817368199494475,-0.007005050916295801,0.006212553582749885,4.89
-0.08617646186517926,-0.02090270605135182,9.718087117695106,0.017654561295562005,0.005544814505071057,-0.0021052507703634904,4.9
-0.013684761612633567,-0.06709695239934008,9.834917162522414,0.00021112586811689756,0.004881131612122633,0.0007116407791888359,4.91
0.05046603154777475,0.07199371551372973,9.915203636091613,0.008994584813725092,0.01583116312004506,-0.007603353453047381,4.92
-0.040159593000164605,-0.14512600396927727,9.917070801792534,-0.00796243653959824,0.0067068861110868225,-0.005659054103673678,4.93
-0.13452101083781232,-0.07054153579369857,9.787002921208531,-0.002889967056156,0.019513702108020593,0.003681968645693376,4.94
-0.16573604243371381,0.037551810995548524,9.692103251033057,-0.005000658997287453,-0.004510988508028456,-0.00770751013197101,4.95
-0.18506512628774133,-0.056343849111170144,9.707372310372248,0.011587576418890792,0.0003263775723598852,-0.0015742378708517894,4.96
0.049744664634960134,-0.03180748771717183,9.80071890589435,-0.015573587746463448,-0.0005058528455527953,0.009109080021195827,4.97
-0.0625837868708664,0.0871089348334051,9.875590577223088,0.013186905805718033,0.007144983278802653,0.001160029412874013,4.98
-0.09529688630075739,-0.09166761854531894,9.800217025068426,0.0142280065178272,-0.004240154171903841,-0.001098653718088741,4.99
-0.10680310282287048,0.14024794657164502,9.743804134595473,-0.01404084989950062,0.0022733183568809656,-0.008448361399414381,5.0
0.054425120420615675,-0.0919348021340206,9.750577204441768,0.011092703893300821,0.01005216859685446,-0.015228848327121196,5.01
-0.022051652898699488,0.04502478155169867,9.872012451896362,0.00013281093528345469,0.005315328112625033,-0.021634449172640582,5.0200000000000005
-0.05162900939941262,-0.04213699507256889,9.692810330420942,0.0023000662569415712,-0.015428492628402833,-0.006117394053832864,5.03
0.11501277371330138,0.03692853295396197,10.002864925898567,-0.005598960095215191,0.010658369034892763,-0.00753009507102918,5.04
-0.15881510392200837,0.09356237569010085,9.831528306508849,-0.008088579624084274,0.007103509589586907,0.018122633706428276,5.05
0.0779554901084657,-0.017473721236179657,9.8573353967404,-0.0035517452476592866,0.005832061615995019,-0.0008648664575170491,5.0600000000000005
-0.1348198024024364,-0.11069794758943496,9.76126977203642,-0.0031726756774424604,0.00642534558561731,0.005214849081175628,5.07
0.028798544050189258,-0.15323936546833006,9.86884497769649,-0.006473989633501808,-0.012906600403981146,-0.0024511117423672633,5.08
0.17631723188893367,0.0821506603880335,9.936449734858192,-0.006892544408540321,0.002052460980001496,-0.0008672440901813032,5.09
-0.25890216703177976,-0.04649371739150701,9.826771078799581,0.017728332177047192,0.009359513158749255,0.0005618241165217223,5.1000000000000005
0.03998445216156191,0.11848760631866584,9.676439649675864,-0.007910416426735558,0.019972986528998937,-0.016307179314263977,5.11
-0.04889677531436931,-0.01736246747588589,9.816268091150459,-0.008565700428076922,-0.004536762636059275,-0.0082473978112552,5.12
-0.011460043540833437,0.03642040125816206,9.81802529223731,-0.007960087565824506,-0.013922847893093898,0.013192402001012654,5.13
0.03973229030700884,-0.055979405364676396,9.664088723651453,0.004553115562913618,0.0004148045811055407,0.006867958878649883,5.14
-0.09070135982195547,-0.021373514995332382,9.851581627677184,-0.0030444209212781683,-0.0019355627759849495,0.010841019182573262,5.15
0.021383557097561574,-0.017454565294291704,9.888187906644601,-0.005356236125343649,0.018588882377434623,0.011079338721753589,5.16
0.10167117325477192,0.11983527462525848,9.867165850996855,0.008778460369392723,0.005647914809351696,-0.012394157543568476,5.17
0.1449194703609527,-0.18164261166060247,9.962971485015121,-0.014417211029571131,-0.0060256741572667,-0.014646709220347075,5.18
-0.0057452350895431225,0.0426422870054043,9.854163937055114,0.008276120738176667,0.017657380418130628,0.010683804774207908,5.19
-0.006966688266865858,-0.029768032520110056,9.789227540652648,-0.020454618220242037,0.0034276044164387514,0.002296794460441049,5.2
0.13138200851386816,0.024573254808056725,9.750417530499648,-0.01511907441984446,-0.0060550805307855405,-0.0005085742800065502,5.21
-0.10112563022989546,0.19142126158513204,9.704233115132881,0.02038972616352516,-0.0070916804114742275,-0.0050436314177825575,5.22
0.03794075946330804,-0.020608372946764923,9.75934568774278,-0.0172851009906596,-0.004450446715931153,-0.01256601699789724,5.23
-0.024404110902664294,0.024638330940104553,9.964325890643902,0.003928631087373022,-0.0015278337198587838,0.004101836085437432,5.24
-0.08943289117674903,-0.06604268771632768,9.866417550574571,0.02144299855984718,-0.010814901665140231,-0.01400727293422428,5.25
0.03048924177186926,-0.018135246681105898,9.983415413933677,0.023745335143021108,0.004018464027815933,6.965041789107741e-05,5.26
0.06838039599104877,-0.1466228603073664,9.7408027558653,-0.018982572175584772,-0.0018610401199852702,-0.002407590886934256,5.2700000000000005
0.23968918268093795,0.12857969330265467,9.824345868034886,-0.009247307718549374,0.00826606483752162,-0.014055834424761018,5.28
0.15124227787599595,-0.27707818954688873,9.798234184615568,0.006012145914141457,0.001000361384608176,0.006002146142769586,5.29
-0.0170996949606018,0.09123792423509056,9.850917530594565,0.006023708459384868,-0.006656192383134104,0.01222066134725752,5.3
0.016497077619705734,-0.0697919888810453,9.715500045845635,-0.0006239589720262177,0.009653028115198926,0.001406814239205513,5.3100000000000005
0.066923249978594,-0.08597948786249315,9.98608379298856,0.00689720533968891,0.0034536535041195743,0.00628810985272969,5.32
0.0759352636252188,-0.11619142441498141,9.758165216474504,0.015463403159385014,0.012603574698803625,0.006130611154034432,5.33
-0.07466313556626755,-0.09918632623470178,9.847233512797427,-0.0049787191566436255,-0.01499825020104624,-0.015285082716872156,5.34
-0.13193868442786963,-0.03860949489954157,9.72808464687349,0.016252715783427713,0.0017432218988477118,0.0043883018373283515,5.3500000000000005
0.16291878804099685,0.015726618161166897,9.752363618350348,-0.0016862408557281135,-0.011399958302755815,0.020290073592155858,5.36
-0.034091649916741275,-0.08412380192524858,9.82560166678998,0.012131473309646734,-0.007390579794801672,0.01311701276081205,5.37
0.02925102316169964,0.08140175958595225,9.920038566121118,-0.005440418223375095,-0.0030332679095092636,0.00953424400916412,5.38
0.07361718209162098,0.11065726803910131,9.700185890650861,0.02462213220674528,0.0030695994758922224,0.005275887109221159,5.39
-0.07628791247347161,0.13943615203452864,9.916340035573498,-0.005109293178757508,-0.005241536159617353,-0.004200153237849886,5.4
-0.1995517580474846,-0.07560421125403793,9.71702739420592,-0.012660285121183642,0.007231784095947882,0.01167231982306648,5.41
0.17389113083326277,0.08161286382349883,9.584910294301732,-0.02127374306617668,0.00477521882520792,0.008296494520716683,5.42
0.03308872905183329,-0.20811822588310364,9.778845845495214,-0.01602917607379277,0.0018319506826217507,0.006954978381611573,5.43
-0.05061362034158051,0.12996230332933795,9.681595734919517,-0.020066429476302154,0.0006724431348829532,0.0008108464111250263,5.44
-0.15153981820926857,0.1269594232591409,9.719911490345563,0.015311794208700373,-0.010336005281553672,-0.00025042150398665375,5.45
-0.10721061224701312,0.012872029752024306,9.851846502774958,0.0130857743609559,0.001967399240616223,0.014109267434724617,5.46
-0.03146426420095002,-0.06561937751423068,9.853079036815844,-0.0034244498972328236,-0.027278178874167912,-0.010429856064808427,5.47
0.057727510082276924,-0.11178924524375296,9.905231491981464,0.014672116544599679,-0.0045466110612181485,-0.011767447679124495,5.48
-0.034962675235233935,-0.027374671375481607,9.815675932691647,-0.008847791167591323,0.0008756616579796682,0.0058657557055783295,5.49
-0.036537266954177965,-0.06474096260225819,9.893898049309225,0.0066532030362322385,0.0037640503961621488,-0.0013482978758889658,5.5
0.19649591764933105,0.03381125045301782,9.775313169877414,-0.0029330570961824233,0.005619651752848013,-0.00041210147049214427,5.51
0.0160886721479571,0.02707707826928953,9.709462434957345,-0.0037087395827638,0.0012320387387753343,0.00029938146509658655,5.5200000000000005
-0.09526586046182155,-0.0035706632556954214,9.795498389340933,-0.0023961375077117303,-0.0006165006469914419,0.0024866702281900184,5.53
-0.07376940541549502,-0.07908240014902324,9.693006047659223,0.011044786944881889,-0.0065215172597885675,0.011124030071229656,5.54
0.04350251811061276,-0.03939524067326217,9.74277801569388,0.016515742441808978,-0.021712237235029352,0.005716972802613548,5.55
0.04347602922879709,0.17436280271778673,9.947440815408104,-0.007633987015892505,0.022244006446684783,-0.0024112991802420804,5.5600000000000005
-0.02901270323215471,0.1100785351046756,9.987882480252221,0.00368876122979554,-0.006242892517201159,0.00942755637367665,5.57
-0.09363797380106598,0.012909330284885709,9.873827939745542,-0.0005822663585228008,-0.024421654029476048,-0.015959467231814836,5.58
0.0314264841536623,0.08554749446555943,9.825291361736769,0.0054787138315911255,0.008385890991892365,0.02116574974177624,5.59
-0.09472621747402832,-0.17403367353046895,9.93360414299816,0.009068604679352001,0.004668309972985877,-0.00789514780968135,5.6000000000000005
-0.025395933818572587,0.042699907117313064,9.997047817640674,0.008702271184104458,0.0007427165722798926,-0.010693544423119539,5.61
-0.04584127752428969,0.026028174790729178,9.746449230194017,-0.015846580647137266,0.011596645397486187,-0.025266222829235782,5.62
0.026003212551871505,-0.030612771340616126,9.755973285310745,-0.003735490302812096,0.007077125509455523,-0.0027569687072879706,5.63
-0.06540632380551352,-0.16767601369390317,9.863965679810315,-0.005767015353977334,-0.023845467249792706,0.007581083128020345,5.64
-0.12485513815716556,0.006668546308446087,9.780866887097627,0.009910973298454886,0.00730180492727714,-0.025473519178662182,5.65
0.045364873188964094,-0.04756029591052339,9.942865474359465,0.005859963738210305,0.015885788381445644,-0.0033227377877023054,5.66
0.03397355355926953,0.1843591385044168,9.82539214462667,0.010082198624527687,0.000564371435205173,-0.018010606342273357,5.67
0.014045155400183954,-0.05203163715591594,9.861548195692144,-0.0009513633954140674,-0.00656561189005742,0.0022067748644309542,5.68
-0.02542058436030006,-0.07152333306174488,9.66917364868669,-0.015024159149367087,0.015856449473553996,-0.011637429816557203,5.69
-0.16439413766831115,-0.16412588717617685,9.87789590995559,0.0009980668733430144,0.011304797421219773,-0.009796171241962278,5.7
0.01069712843582103,0.03696867030845493,10.115313555761645,-0.005560030863373045,-0.007997682621259305,0.012290220697699106,5.71
-0.0058721966608746255,-0.14622603522722974,9.784192462016813,0.007994983498156088,0.004654687294944847,0.0002972158822699569,5.72
-0.018418824045547236,0.07692769423614036,9.86760394145523,0.007667231814352105,-0.011277797458424008,-0.012116808675523422,5.73
-0.11755139937014221,0.009783581010729774,9.723601555608086,-0.001118811365348801,-0.008804593593734396,-0.014114686996652253,5.74
0.05648125383870794,0.06580470859726627,9.807712631313459,-0.0015987745639458124,0.008407380507532326,-0.0053382173887750765,5.75
0.049939631097712794,-0.13339678828442111,9.919189769787096,-0.014375188620862749,-0.004522911483406338,0.0011311959236472453,5.76
0.04904796794179153,-0.016899070020614474,9.782738081004116,0.0029850456769597708,-0.0017233213509112361,-0.008832316668978475,5.7700000000000005
0.04334349894362111,-0.02572824186247313,9.821646190959912,-0.0073374264131860645,0.016157582038321777,-0.01428090021020976,5.78
-0.019191234900098306,0.10270901771329195,9.840286170714919,0.0020833327369790154,0.001229546455295875,0.007942102942918076,5.79
0.0394628409690713,0.14566581286557104,9.867075243603034,0.0043218647890208226,-0.010449870427396845,-0.006980272958614507,5.8
-0.000839054964159198,-0.19021280400593665,9.738328058819913,-0.004540088654046567,-0.006718639239858178,-0.004797310159985359,5.8100000000000005
0.09300783781363138,0.0432382620758185,9.721121430106342,0.010338948951842149,-0.005709971072906018,-0.016591593952762346,5.82
-0.06981832908914319,-0.23765427922793864,9.817804719958927,-0.008520552796938738,0.012432911466771874,-0.01512197695788808,5.83
0.0063743778715166545,0.021886785803834033,10.017822017159883,-0.004039006796793598,-0.014306410545179898,0.011034773440371957,5.84
-0.002236081809841935,0.07440983875804154,9.736302615676106,0.013125031479156363,0.003127422622280594,0.03261911256846481,5.8500000000000005
0.08507763187822504,-0.058273490387229177,9.815925055271025,0.0018461283538308228,0.0012978746231430338,-0.007641034654320529,5.86
-0.060831630315790974,0.09376605126552173,9.679510842830076,-0.006163222326296336,0.0004903592202868778,0.007838136479940024,5.87
0.11100498900874452,0.05434331956020238,9.745553565858723,-0.00031786829157217934,0.0037576690749056606,-0.007738073345104693,5.88
-0.036411977364018945,-0.016000182168757256,9.748775962762268,-0.015463345148636532,-0.014161882013934285,-0.00260367123962025,5.89
0.0759402340956653,0.24864110806713302,9.813953674645854,0.005567130083659245,0.014568098185610459,0.0008144077062568759,5.9
0.02656231882539621,-0.03939664260891321,9.872088648230436,-0.007548860247557762,0.01864842602923937,-0.0059128717569697075,5.91
-0.007503391190478105,-0.01586632305853699,9.779297024056936,-0.013655014024014676,0.009648332202143393,0.0012363859432479522,5.92
0.08450183993399188,-0.009166029860329902,9.826755374598383,-0.005711560206708031,-0.016700238693785462,-0.0026211423746313007,5.93
-0.14318990478602442,-0.12438744946736989,9.712889940239524,0.0036867178631465524,-0.007932822045539894,0.00692789728548812,5.94
-0.11522960823045461,0.17713702199286596,9.78617354253762,-0.012871683047572722,0.006389840084969407,-0.00692453477243394,5.95
0.023621655910980355,0.03617203961430878,9.814914780038858,0.010400476033025949,-0.009803255429010465,-0.005824778352241261,5.96
-0.17219149231293204,0.10321414150509774,9.64547487212959,0.00814559882491998,-0.00338163587825206,0.0032572176439096944,5.97
-0.024940885318667193,0.015129075113678942,9.953214495842545,0.01812805896325834,0.016233931289192628,0.018302306748797636,5.98
0.046769698577317075,0.027147061499089666,9.74978823370556,0.0020944550349723187,-0.0003490380944828621,-0.0020931959371220557,5.99
-0.12037814666746689,0.012872878841754054,9.89725633804484,-0.0010357202287381514,-0.004003450199276339,-0.007759138907151326,6.0
0.04009131332945107,0.049211637632360965,9.65371697071293,0.0003029342444573977,0.0011226221296486408,0.004237442882755866,6.01
0.21407342628422665,-0.08220913534509963,9.775670346679147,0.010791378982057323,0.010536444392982847,0.006690564208153666,6.0200000000000005
0.05717450607711341,0.042423433274100475,10.03673942084726,-0.011507262647304157,-0.0012507737775276195,-0.004623071305186104,6.03
0.12518291388015967,0.041880836512610785,9.89249771492672,-0.0036851593743186407,-0.0020815797864421086,0.006734957732297367,6.04
0.03435671421071519,0.08447772265745232,9.784245221011671,-0.007272355459416179,-0.00902217002225006,-0.0004167650357881993,6.05
-0.027902220626226028,-0.019263981917151368,9.708616107526513,0.0013409927933537855,0.004501065258180316,-8.170868400625823e-05,6.0600000000000005
-0.21402455281105193,-0.08259860798918484,9.683289355947183,-0.0004815414063410506,0.019671689057271756,0.007987304294042355,6.07
0.1239325983405538,-0.0025673882873147856,9.80434951238516,-0.00643185260458711,-0.0036394595279283974,-0.002401535004057506,6.08
0.051438054152858716,-0.08049885946358076,9.650346146134602,0.012401466954549807,0.010953162038338052,0.0014667384599481807,6.09
-0.09516504922871209,0.05455935709328209,9.78666919345329,0.004160253507059446,0.0068119279384010155,-0.00719258568928772,6.1000000000000005
0.007530150686656363,0.023433995678788996,9.73561190814498,-0.012400106893319452,-0.01956212336889876,0.008881701125435473,6.11
0.07524004404203194,-0.09642572934577054,9.90983020207754,-0.009165253445399845,0.009740304224969578,0.013899018194327657,6.12
-0.08439446650451411,0.07916952166240387,9.92433523265058,0.005289582902238448,0.015189987502568034,-0.0068163135793586835,6.13
-0.042660138661517626,0.19070929055508035,9.982440336335417,-0.0015884049252022133,0.004390004501313331,-0.01994722862493264,6.140000000000001
0.05138394376022,-0.06173158642983208,9.68770414859417,-0.0023712665229933577,0.0077801734039178875,-0.0016466300468996953,6.15
0.03486998219663129,0.004766161841049901,10.034280804995051,-0.0008224625479140891,0.0018377902611922553,0.021263721655744795,6.16
-0.08509379880066191,0.199157011030653,9.64006197561047,0.004878914252253211,0.015265938850703974,0.016532988491902073,6.17
-0.043944138631691554,-0.01145761302385116,9.906048786588958,-0.0011110536422208866,0.01095655317947359,-0.011183479684795147,6.18
-0.035193241285131925,0.039866998023063954,9.845812974017951,-0.004847963832263008,0.011903696163876806,0.0008155034922807709,6.19
0.011634906557739742,0.09178985595553156,9.670118835252875,0.009715754658862373,-0.006513029277271636,-0.012118722433720868,6.2
0.12929637552386494,0.053139880353823145,9.710940741201945,0.00029269645976814365,-0.017133150926188882,0.0010757662242606668,6.21
0.08663681835055398,0.13490397019262662,9.727091048448823,-0.00665212199681086,0.000835970927110094,0.0008911107215873772,6.22
0.09674782882833288,0.04870897770602414,9.712359238324101,-0.007079124519947616,-0.01926355290504063,0.011649813383028229,6.23
0.076145947033077,-0.17531120231258604,9.79760847895873,-0.003920322778429625,0.00797544639085848,-0.009451463682809079,6.24
0.13861784174143416,-0.04977995323939971,9.886385772089108,0.007504791488042173,-0.017514661140216225,0.0011641344324398774,6.25
-0.06036564920373887,0.01847204661589284,9.84049442928928,-0.016764906733497797,-0.002760521730849569,-0.000982148356279643,6.26
0.05228202954165565,0.06088060468148229,9.716277829534246,0.012515203059396542,-0.007036018407954886,0.006232471549753739,6.2700000000000005
-0.09978907904474627,0.23195837296105715,9.786311493223161,0.010637873015810744,0.0008826676162654032,-0.003484595638044445,6.28
-0.10423900475458348,-0.02475101458163463,9.711975870217346,0.0059307420561235955,-0.00667043307914335,0.002001432048068739,6.29
-0.10304988683907489,0.09458011513739623,9.751153772202187,-0.00451125239859855,-0.018603371604211966,0.001284199391540831,6.3
0.10785201011330288,0.05547925294046896,9.765885710309407,0.004775416097223371,0.004029202026120123,0.010853012125217021,6.3100000000000005
0.02942092552105033,0.05409981563965604,9.846761955130901,0.005006575105789945,-0.00290637592735224,0.0051221446680822305,6.32
0.10508685872007928,-0.05966847150589508,9.791761386949531,0.011632551283689096,0.006037433815554187,0.0044808421975032035,6.33
-0.076084301672298,-0.04723753461662722,9.843856294187582,0.0011634101106162953,-0.020533075251800998,0.0004499555842590973,6.34
-0.1896313389953455,0.018509580312809724,9.848948615278877,-0.00403335347697272,-0.007024500033303453,-0.0036586982766705287,6.3500000000000005
0.07621131560072862,-0.06928102500723775,9.84158663525327,0.00948179939657486,-0.008006955020950956,0.001758525916133222,6.36
-0.06897097050131389,0.07782158186702261,9.676279975357433,-0.010928554433022826,-0.007753816944851652,0.0077403692123085175,6.37
0.09045478100676473,0.1295530087858988,9.868557432246966,0.0042366740911993165,-0.013767472469536489,0.013440373326316516,6.38
0.004072234764651928,0.0604259067037021,9.814622866968296,-0.011630753559993087,0.0008985451901209513,0.0020681325796597194,6.390000000000001
0.034366002297224994,0.06058418659009306,9.801982900103136,-0.007999393893500106,0.012016649686985188,0.017262238038775555,6.4
-0.1359968383095906,0.07430941771549796,9.702936270975979,0.0029043069259378023,0.0026245656724648275,0.012268907431934086,6.41
0.1723012735953846,0.05429603576409708,9.887138727736207,0.007146440048514957,0.00860347875658207,-0.00876028903267386,6.42
0.03935194496926833,0.011868398521314088,9.83235704634276,-0.004143475211679051,0.005253790711942802,-0.007104622849041203,6.43
0.08243141960038104,0.031239891676221168,9.777653238124028,-4.785775277357779e-05,0.005303467148316045,0.012598646449228009,6.44
-0.0009624265827706829,-0.07220799275642768,9.833714563384868,0.014508000858206242,-2.6974192507864304e-05,-0.0048346200400722975,6.45
-0.01378153676579102,-0.05688373012155469,9.80057075750534,-0.020381861207944104,0.012887830303613138,0.007974064469448663,6.46
0.021328360613534103,0.07328694291218836,9.894981709889205,0.001249883935144841,-0.014470735172882741,0.0019339697619504626,6.47
-0.013438436350332275,-0.004450016884514604,9.717095218584731,0.00822507062006841,-0.005362512383916663,-0.012548863596047634,6.48
-0.025130882602765754,0.032280871833914364,9.655569905955227,0.008435449833632444,-0.009032518430720279,0.0013879212741162534,6.49
0.025435057041241667,-0.053699037783185966,9.611219519910964,0.0067744022321673805,-0.01825740441780644,-0.012803625479773465,6.5
0.23875575733551432,0.12224047022319123,9.735280304355122,0.004126426469691693,0.007240445550390197,0.0003011684665756307,6.51
0.01715404000178556,-0.03677171186006153,9.850097062546006,0.012650883209556887,0.0224140396972832,0.006374304178726799,6.5200000000000005
-0.1534866163344383,-0.019218073738676376,9.935695863847531,0.0032713639744946406,0.010885695556349575,-0.0010498511618211915,6.53
0.14466890484667838,-0.1111074426597716,9.742129906475748,-0.004676066809616912,0.011403682339713785,0.005332736141798121,6.54
0.05780832005888958,0.021349746462191305,9.989653581750163,0.0017718529391316886,0.017487169109231097,0.0036940462536408196,6.55
-0.0800807637474996,0.019420485270741306,9.733357343664832,0.009350182015225405,-0.016895369603596118,0.0033099855480973306,6.5600000000000005
-0.005456549362108281,0.012475870524860018,9.830451401314884,0.008559362353270811,-0.006657575926574083,-0.012400306177635653,6.57
0.016404873428415564,0.11117818560460682,9.855923745297178,-0.003442189290897241,-0.014861742856636608,0.001084004874247203,6.58
-0.05596673750107561,0.01930407638159834,9.732894093983893,0.000745337625982048,-0.01358361470650292,0.0030283352852345903,6.59
8.974419379818217e-05,0.010279916993815176,9.782179702658674,-0.007516710530863347,0.00413723722178349,0.002186464678405459,6.6000000000000005
-0.0975452097006342,-0.005312989283522226,9.729070493038876,-0.012862594051911891,-0.01859389946196024,-0.008791785636097917,6.61
-0.014112811630946034,0.22620028408289417,9.868054747387271,-0.005427370155257932,0.016615963593585113,0.0019337091776024532,6.62
-0.11315076040629933,-0.13050007167342828,9.793296483082477,-0.010187738335769681,-0.010620954791322006,0.006335283882250874,6.63
0.07932932994733821,-0.11118499597090757,9.73473034163035,0.01436022319728447,-0.012977270853782823,-0.005909888607560893,6.640000000000001
0.03761941852221241,-0.08875964524968015,9.575283963318233,0.0008964127372138302,0.0014756655824427146,0.00012746368592019634,6.65
-0.023867761313880062,0.2325563852811886,9.897373577560064,0.011271813867629559,-0.012723344835875219,0.012314480363473965,6.66
-0.03192533538100622,0.13511178650769623,9.868599096226255,-0.0008065150507569425,-0.019576398290628762,-0.008860790325802842,6.67
-0.07972670020574596,-0.1026297489891698,9.782927505314019,0.00966513118002815,-0.004869809926716402,-0.005875136833075392,6.68
0.03926359648727219,0.0023243285629657327,9.75303395417438,0.008120373046947973,0.005687672330979435,-0.021684372256949427,6.69
0.07870758749445411,0.06302957618071664,9.964853825668664,-0.01265913870204672,-0.006355950081003049,0.001088860703324215,6.7
-0.08688681775322685,0.04935263517594191,9.773358403810816,-0.0021537485948841173,-0.00030128692810608824,-0.0014036892889566727,6.71
-0.03808094435406187,0.010902719862573906,9.793296833467835,0.010166433793328157,0.010415620179484568,0.006749049772839486,6.72
-0.09125901547652096,-0.08139470577470173,9.946078482726852,0.00538992622167636,-0.0011746706132150602,-0.002828516581255559,6.73
-0.07223374949556259,0.007169110044280344,9.760737748279004,0.010020668781842481,0.0025948470855300934,0.02029336916752551,6.74
-0.08478269894748178,-0.08271766302573301,9.835995161496731,-0.0016464473132090528,0.00029801738365785356,-0.002782124498278798,6.75
0.06269209649319102,-0.1450651495054505,9.642775139248666,-0.009480688669867886,0.0043695042111913445,0.01242258747076671,6.76
0.09231884406637507,0.162504886706498,9.993551716884504,0.009860272448296927,-0.0007922417011695962,0.001686217854517853,6.7700000000000005
0.025164328795851322,-0.024019867065964394,9.812766264868365,0.014697010584896234,-0.0036161822480713203,-0.019466872467139608,6.78
-0.09563589713260257,0.04283208096689429,9.785948249963207,-0.0023774606956092573,-0.0016154824553582861,0.002127562389889357,6.79
0.0011698985924714004,0.06359188031724997,9.783429138766317,0.007470920667886645,0.003599044956067103,0.010887103288464357,6.8
0.03592830023648911,0.05194280333635807,9.732240406143971,-0.0038052555131408605,0.004668638408850549,0.013379671324586312,6.8100000000000005
-0.11352825654518701,0.23191460600774938,9.711108466538244,-0.0028585101948969,-0.025405790881348284,0.01186137631638844,6.82
0.10235733237662901,0.1258702540205338,9.86957074250611,0.010134197278762198,0.01003780451306727,-0.004595638348598072,6.83
-0.05827110316689163,0.12528303374821217,9.947234687145048,-0.008715903517376162,-0.009397039379205132,0.013614704439321633,6.84
-0.06190464472310067,-0.040442465774842756,9.822834274073866,-0.011410866043567279,0.007685706296653966,0.001375092284884651,6.8500000000000005
-0.035163915628698604,0.24418164283430543,9.855990528129066,-0.009189009525220759,0.004782049327107116,0.0018223949982443242,6.86
-0.07225551264750195,0.04861951278948799,9.884675762764266,-0.012620984693015513,-0.010442716271450768,0.004665401841900812,6.87
0.0646483278398805,0.07679874345857476,9.86218312854185,0.010687695781839923,0.03155803330481655,0.002305923846685794,6.88
0.08138955837739566,0.12073142824972612,9.68293384513795,0.0021047305024928928,-0.008734664574133374,0.0049669343838714105,6.890000000000001
-0.14492959511005654,-0.047621428067127235,9.587685599013014,-0.0012287540266645368,0.012890851594633131,-0.0026581701241972424,6.9
0.039302621152194135,0.05922523100281532,9.877555246539306,-0.0031974365543988676,-0.010025595813410934,-0.0007680104640099563,6.91
0.046382368219405466,-0.00029034331677516744,9.81902135836321,0.012821022553121965,0.0016540216152238863,-0.0026945454027147687,6.92
0.07331228717116493,0.23027467183358832,9.795612353100344,-0.011605842421357662,0.0012755330244812685,-0.02310131001750952,6.93
0.010169587583026891,0.09134891023624285,9.713196470208802,-0.016442885166270918,0.003422435523837032,0.004350402977186041,6.94
0.1367852084762247,0.08826471151665301,9.962259479627027,0.007190716714332186,0.022206690521455675,-0.011788466008633574,6.95
-0.15261538007405578,0.09671918476773088,9.934617671611383,0.0019836955944743163,-0.003558759604489737,-0.01919379793189668,6.96
0.017968183739580236,-0.18224600116292272,9.713172939240255,-0.015543321961060761,-0.022748608110554635,-0.020503015491750147,6.97
-0.014872181697502394,0.10295799105533021,9.96678813549261,0.004714001362386196,0.001072010966523637,0.011610492976634157,6.98
-0.15722327706618144,-0.11560207377849373,9.682413846880888,-0.009534769840545552,-0.013115091335860536,0.024414136717203966,6.99
0.0474645887503333,-0.15480421076873252,10.010112332259535,0.019917686624023347,-0.0071434194227651395,-0.0005868040486456696,7.0
-0.08942608119140966,-0.07277599768605508,9.69421255273016,-0.00181083796101344,0.014815378886653805,-0.004358154463520689,7.01
0.20355827779930344,-0.025119920955282694,9.775986999273416,0.012993226280554295,-0.005047023237698745,0.0069832355457640554,7.0200000000000005
-0.1221504283038603,0.03319106825605363,9.610249044125137,-0.004411516969498554,0.0016265816423112073,0.004692574462708182,7.03
0.06013570445483864,0.1524990373356019,9.816575418449196,-0.00022165603026417613,0.012709935304165115,0.022683980949125073,7.04
-0.11044169585478479,0.12759848747217428,9.772261061567292,-0.0074578339873631015,0.01972791385026232,-0.0049774969167338855,7.05
-0.04497232251944719,-0.01950653786076879,10.010825121279517,-0.002063402408452377,-0.013959604567556912,-0.009619490051956572,7.0600000000000005
0.06429849075126363,0.13821619453734207,9.82556329562602,0.0030625106980745227,0.0004778483651444853,-0.013663666543528262,7.07
-0.15943458287898923,-0.08329917834858286,9.858074410376407,0.0075040966980513156,-0.006803071966849915,-0.008407167605232434,7.08
-0.009505887619231811,0.10779229540017338,9.75509974533919,0.005431669429867557,-0.014689486020248964,0.009881126610846894,7.09
-0.039664482945825696,0.03648954604549309,9.677443665372271,-0.0017782005316400913,0.007599249505387079,0.003047584949211331,7.1000000000000005
0.12083772032189787,0.01155604424585254,9.762695805798764,0.010998701310761532,-0.006111741445626929,0.0015245974542032726,7.11
0.07490851571081746,-0.023088705350344716,9.806032364497307,0.00970654472246179,0.016807512103744066,0.008167060903280956,7.12
-0.11222920000815473,0.031000067685638896,9.754616189900263,0.013713558679391237,0.010281023552108401,0.0006509690347972068,7.13
0.0541610658118124,-0.08440816850604847,9.907069587323848,0.0038021054879395244,0.007940990535587668,0.008208180324672106,7.140000000000001
-0.13843017149752096,0.027544746602490722,9.828745200133165,0.0035223535989514026,-0.0006692405765374526,-0.006794351206356246,7.15
-0.18202856612235194,-0.10893377743522661,9.799838949030372,-0.00920626863353705,0.00632971047575275,-0.014045584183536916,7.16
-0.006619037616447703,0.06410032812684273,9.979768438959534,0.01054233727766862,0.021889892361001428,0.013628752212213937,7.17
-0.2369013123659346,0.05037978027575324,9.7886439589589,-0.009718738017002692,-0.0006117375971005207,0.006054351442038606,7.18
-0.1146382257823465,0.17327348464901304,9.993063871428383,0.026707431981065843,-0.011310274339999014,-0.00026635646265615637,7.19
0.10560249437922448,-0.02864937805493953,9.847214153209178,-0.010473325692288494,-0.005412782643059766,0.00111288729539705,7.2
-0.017829718399809662,-0.03144898311258421,9.669103321299968,-0.0014470894976759258,-0.007933192716621677,0.018645698985152694,7.21
0.06587786050452624,0.14598844684697115,9.856091945171489,0.002660344662692767,-0.0005659616724723582,0.007789719686891168,7.22
-0.23882924703356223,-0.08528024825603452,9.752175473797859,-0.005180922569128295,-0.023072435196289123,-0.0002924858116461908,7.23
-0.0815535581442759,-0.0005077661512949827,9.836123768114877,-0.004080078429438717,-0.011357536493423245,0.0001991366569856751,7.24
-0.17391916074193575,0.02846312735039779,9.870898210738554,0.010448582514441323,0.0033598598468946974,-0.00211675726971743,7.25
-0.05353515042761669,0.12865510450836778,9.800053808963424,-0.0009326117148600798,0.00457531522268719,0.012242976871313217,7.26
0.006197053339385745,-0.08698893757488695,9.815749144534667,0.012935364432160874,-0.009820667531275182,-0.007427680514992147,7.2700000000000005
0.07885958007122512,0.048100011712508176,9.810658721416786,0.0012467452774533485,0.005499842203862052,0.002641104774392127,7.28
0.06052654407944811,-0.056136459970879064,9.705748988364812,0.0013363813150009695,0.025145267386202177,0.019244045019933334,7.29
-0.21241667842654383,-0.016248095520293656,9.895595786916342,0.012340923991680481,-0.0022325264138588685,0.005289295376695996,7.3
-0.0069316502847950046,0.13883042420874359,9.941355784581436,0.005860336403582571,-0.00730727533519553,0.016732904490549493,7.3100000000000005
-0.10785089866687377,-0.10391827617865075,9.772848932564653,0.006369034419534978,-0.00019961149700290661,-0.0032485194814339717,7.32
0.023113465255958702,0.12947548970211561,9.722801147685406,-0.018666536351952933,0.004802162488655324,-0.01223172781224603,7.33
-0.05483452434069609,0.0633134425044581,9.821100478984043,0.02247587568843173,-0.004885748297319587,-0.004526084225564688,7.34
-0.06827122459377488,-0.014360230057975008,9.857494878909854,0.0017710267478787051,-0.001770930043997024,-0.003313533463808856,7.3500000000000005
-0.0735208335922728,0.163201970206044,9.948718392922482,0.019959341568745362,0.005842460183306574,-0.005962860955047159,7.36
0.006035132636592436,0.08927552754910431,9.815613027513923,0.010078468617938064,-0.0059704124236889455,0.001980063705999329,7.37
0.00362973469119666,0.050653862595893696,9.680422251057479,0.010916051428559885,-0.012917557026442887,-0.013154476763017522,7.38
-0.05400059366737238,0.0012324767264310236,9.896113088766365,-0.0014766430169058321,-0.009763558396793241,0.0006446637680341534,7.390000000000001
0.061884132734474774,-0.016867030442396142,9.822270460183079,0.009787267415808869,-0.00167197901156692,0.007101627225428456,7.4
-0.1754364295587106,-0.15723824983284257,9.9724598982932,0.00045881300007385057,-0.010022306089700391,0.003391640197177712,7.41
0.053896876322373145,0.07161507165881895,9.821157762475517,0.0007303827501536032,0.019151005217466446,0.009992005108635559,7.42
0.04629235715750353,-0.049889157331473116,9.803765302485136,-0.013041007017863853,-0.000607874809031041,0.005484186475947817,7.43
-0.10433875355458462,0.14081112110315716,9.763284093327437,-0.015700914155015473,0.0005422019677287538,0.0014379499154492936,7.44
0.04160277760348531,-0.09633733554033194,9.7112372503256,0.014651425520909804,-0.015596575854110228,0.0012830174694967603,7.45
0.11646688024517277,0.04943522120420943,9.749601693643454,0.011186256736126745,0.0062645085837285544,-0.004787965924447653,7.46
0.034277761172963626,-0.08962273948060878,9.860267367274895,-0.005418763851679344,-0.010878624462240052,0.010022035161424128,7.47
-0.10612937269059064,0.0012139022043682899,9.989865738047673,-0.010423868829561023,-0.0009990553359715058,-0.005200174614512169,7.48
0.09845092461646736,0.08234536396078072,9.798812756728616,0.00010687651721045664,0.01831581587931497,-0.011300595458858611,7.49
0.10577959350492228,0.09849815583521943,9.823758590265967,-0.007508027793353796,0.002217302034059048,0.005341636203506797,7.5
0.08539242532396611,0.009957762391282283,9.794160363520808,0.009051926881574513,-0.011741626637666949,-0.008893508171747763,7.51
-0.18950837026521666,-0.1428359275092614,9.873502156905099,0.005808536370617785,-0.01004697388533493,-0.0010009096280209938,7.5200000000000005
-0.058010443149507145,-0.06906617705620216,9.87494170123808,-0.008178939124294179,0.005065083755019596,0.0009862496360464592,7.53
-0.06862488171413382,0.09542018552258016,9.704590869089808,0.006336810102121433,0.008304809589933229,-0.00547667576000664,7.54
-0.1171649340557546,-0.06917078647806364,9.83265971020367,-0.010520495061370712,0.029368355855251216,0.011925466402304253,7.55
0.10123040482262369,0.09363227751518104,9.825707206037805,0.0012868681983769317,0.002805542854013402,0.027278603220093883,7.5600000000000005
0.10659326805227486,0.15215418877294318,9.91252681494911,-0.015837576524211444,-0.011049810884467244,0.0003373011475539949,7.57
0.08711708069651006,0.13792427573432778,9.736696980625213,0.006181851696546631,-0.012416107170849877,-0.0007373818423350649,7.58
-0.050324094966219694,0.13362100214603537,9.807179815444929,-0.00478570846568056,0.0007120878591559816,0.007261132129570142,7.59
0.10427611190822056,0.10332121323144457,9.848693098648361,0.007780329552805486,-0.0045087531771461275,0.011274418748557604,7.6000000000000005
-0.024643752926451386,0.008210012267982089,9.985411036630795,0.0018232211874059335,0.015130623076788275,0.007330712658417128,7.61
0.07350134915376501,0.14161537424333923,9.948958170627705,-0.0030014248309600438,-0.004361428822100904,0.0006463168061073602,7.62
-0.05376523656013537,-0.1717289348534709,9.739836441301541,-0.015445006385686444,-0.009680220203969301,-0.0066672777171558765,7.63
0.10782940740361674,0.06885854364578307,9.90002384405582,-0.018159653890553337,-0.007644921324203984,-0.00032462487893667076,7.640000000000001
0.0232689190139423,0.0138557407764254,9.83719070483422,0.006482168740893112,0.011722040855448495,0.0018304986155174602,7.65
-0.05037187051242103,0.08860647274077854,9.899883078681292,0.004839163979689094,-0.008662276539090396,0.006861191902281616,7.66
-0.019861384819817987,0.05676138083733789,9.929202105915566,0.004944661276858765,-0.01096807741146919,0.013522920325757122,7.67
0.09385427095512831,-0.09896841144643051,9.709305240167451,-0.01716806726277355,-0.009305750644351218,0.00954083369306068,7.68
-0.10169284601154022,-0.13957688606555077,9.890191549911993,-0.013930622185205289,-0.005464881264350256,0.01496935826264391,7.69
0.12562696979555105,0.07715057710070393,9.780426627656732,-0.0033882681625627387,0.008940238774997224,-0.006137616717383394,7.7
-0.11679531193782529,-0.05580517946923672,9.78870854167222,0.009390774721576843,-0.01255727692801065,-0.011734558878281093,7.71
0.15045188868421805,0.004896468244300865,9.963407911006051,0.0023934263263757703,-0.01586319659354107,0.0008583493606789967,7.72
-0.08859041602988926,-0.03866466771306245,9.876788488062644,-0.0020869675331967657,0.006072638277881144,-0.015382948821990617,7.73
0.028955196731426006,-0.07442995817430083,9.734688097663215,-0.009133701874145922,0.012194146573755353,-0.004498274660769343,7.74
-0.09326808627698172,-0.18469795738838468,9.982305632090105,0.010256629120541339,-0.007681666306739966,0.01408137587521194,7.75
0.06756954156940871,-0.16025864980658688,9.967090184927544,0.005903422228451525,-0.00391048856396939,0.00348479704157784,7.76
0.06862914634919773,0.056334303321614536,9.57757242018895,0.00304568118827053,0.006803566186329982,0.0027032650200582726,7.7700000000000005
0.013519557418796076,0.0800442980497764,9.800189620976882,0.018742043998684094,0.00967545674536026,0.00658896474810146,7.78
-0.048070434328785376,0.14955245001666292,9.798206052421316,-0.0031354871862684275,0.004064642698480574,-0.003271050991236824,7.79
-0.03319107557532851,-0.09470185402567266,9.734035427731529,0.004375919705469465,-0.011386874145710239,0.008795527765271156,7.8
0.05228226082556689,-0.044061018744779905,9.602589255222574,-0.010373183326576257,-0.0039261426449287975,0.0012151979186135796,7.8100000000000005
-0.08445196012512618,0.037076383919498905,9.741229045196937,0.0054318426584144455,-0.008428022265244762,-0.015921673762702683,7.82
-0.06366840677785367,0.0461671646786711,9.73336026096265,0.005627928260820743,-0.0033488055556337155,-0.01792174123620542,7.83
0.02829438759427034,-0.07446218599655206,9.843487722997665,0.010792670302571958,0.006408600530105833,-0.0033202978461819937,7.84
0.021727380917244674,-0.07838586201768694,9.800006577847062,-0.00029224675923572883,0.0003238251925457723,0.0344166003744421,7.8500000000000005
-0.028762677694111116,0.0409786747834031,9.605194106740207,0.007256601933689969,0.0033721375003534244,0.0027624641105439165,7.86
-0.20769442139435743,-0.11403109136786474,9.899663833735026,0.008722866803645504,0.003817731129499673,0.011535102194382196,7.87
-0.07213964549547533,-0.0024488923066962945,9.726683252206094,0.01273826920836912,0.009708517397462965,-0.01437259965459452,7.88
0.11974051940392268,0.11863717906841542,9.654544625030066,-0.017574769690791574,0.00409078661356228,0.007053101630037761,7.890000000000001
-0.24498322829289446,0.19729926719270746,9.955316035705469,0.019152409267665954,-0.008875166305789814,-0.000539797290634983,7.9
0.031227472704507236,0.020938711945434868,10.057543086737454,-0.009363403980919203,0.015200901120064279,0.00032227527486499997,7.91
-0.05636592970224812,0.018979403070928866,10.057292282497482,-0.002569865372204082,-0.019260417890037847,-0.008085976828090338,7.92
-0.13460948717589,-0.10140388925264054,9.85248444869108,0.006708464242986626,0.0006407316143499837,0.010706617991220272,7.930000000000001
-0.10858491944374504,-0.08721932020175777,9.802760369691795,0.005023541651603719,0.001149562593601459,-0.012578721646016046,7.94
0.036219177552418144,0.1641825018930444,9.823698493509001,0.012324185404292656,-0.012373368462350666,-0.011719724820479978,7.95
0.033090497324513767,-0.10841446585746924,9.874007243424302,-0.01064582219235277,-0.0033472254594955355,0.008141370416734843,7.96
0.12259157809749949,0.2604776702847082,9.667120259253165,0.006810225283303779,0.003704260978113795,0.012931905792275784,7.97
0.128762027171426,-0.06505921885907621,9.724001431980007,0.007699596068507899,0.0015630129341438113,0.006305657767769233,7.98
-0.05496249795128333,-0.05627385950564489,9.953538544713403,0.0068777482453996775,0.0030803528747168707,-0.004959445737461552,7.99
0.07371103922954517,-0.013027043629915067,9.678739304200498,-0.0009501522982919027,0.0053676340061907515,0.0030274762135246557,8.0
-0.05950499324415263,0.050923673760644994,9.933661619408785,0.0028496105436683467,-0.010962534922613162,-0.015494353252703683,8.01
-0.10640144501715339,-0.08044498922500695,9.989231773505658,0.0002816303406108025,0.002810605104984701,-0.00197122049309221,8.02
0.08983640471145182,0.0799201615280703,9.895903051683675,0.006337538095896808,0.010912567520867165,-0.003206764603753234,8.03
0.09233545028329682,-0.12371469249057264,9.809987628415227,-0.0099972525285176,-0.006266114785281261,-0.006050735690019499,8.040000000000001
-0.03179602877353456,-0.09054659334382306,9.957859204453264,-0.020879049803644502,0.007210002898196675,-0.00950016760610793,8.05
0.08180201819089525,0.2078947600673633,9.907422115846579,-0.020027666003211236,0.0041276172827644335,0.0043083876207072064,8.06
0.007988517796138893,-0.08128036223957931,9.76978444677615,0.016156590065294636,-0.017435940028827326,0.005493489394865246,8.07
-0.10171933497968173,-0.1027815756792412,9.932808107749135,0.012287450838094101,-0.0008373918842342664,0.009132042548032826,8.08
0.038335209000565834,0.008503109770379715,9.943178772908643,0.008476539649995691,0.005863017013326654,-0.00606866439879846,8.09
-0.13796726718842528,0.14518786257498703,9.678384436756769,-0.007813433696236253,-0.007729228383709552,0.0008575039646484721,8.1
-0.045812102697840244,0.10959542885847946,9.803264573638415,-0.009394066133846675,0.0030077903068014378,-0.004181456873183909,8.11
0.10417442653498471,0.14939403216912797,9.641109669041148,0.004378625264389522,0.013201518831260792,-0.0007082660853232431,8.120000000000001
0.2037707944886921,-0.1418493662084033,9.77893800321699,-0.004444593114071597,0.013123554410980008,0.003259271374109563,8.13
-0.07191888117426327,0.04792488172733281,9.766415257268344,-0.009880672777465216,0.005106603663253428,-0.02119033259561225,8.14
-0.057561459663633296,0.06800199352723686,9.911421975849347,0.0020636577247384815,0.012137194066267683,-0.017476559553714906,8.15
-0.04593159338817172,-0.027393807325843195,9.755322220521355,0.0054658584108764246,0.005471649466390224,-0.003955618781377211,8.16
-0.13749105349410132,-0.0058106779624224215,9.883548865471797,-0.0017464751246636999,-0.005158358200868806,0.009001800641295302,8.17
-0.07326298340813175,-0.09526131109550406,9.732414675327924,0.004928668426397846,0.01262174879278531,-0.0020426392366911373,8.18
0.013199552116584476,0.10525473741167435,9.769885471563759,0.004930396039863218,-0.0228786674709505,-0.006737658499946099,8.19
0.11413346631518467,0.009822895268780173,9.931735522056456,-0.007503445492354306,-0.01153299511971904,-0.006515597131526164,8.2
-0.05151427930243783,-0.11215399848123866,9.920255591638162,0.010778762063634609,-0.009978870039300945,0.008175889084281879,8.21
0.06731379906837334,0.18946971662614584,9.874338601077959,-0.014661178217806652,0.011775221544363342,-0.004040739313275511,8.22
0.034273708803293494,0.08363294413371974,9.757276277363946,-0.012448248728028848,0.0016511753320658116,0.014799958554995456,8.23
0.11253827004443473,0.1577943592197305,9.907875456743374,-0.0015935705536172446,0.00501781014591711,-0.008026335444765578,8.24
0.01332626973651453,-0.11062035744734554,10.00795732413061,0.013039881931693767,0.0009417415181416513,-0.0006598120715512957,8.25
-0.10175921560549384,-0.07687324121726748,9.928556465401815,-0.0050852668567545325,0.004563948368167397,-0.0319352488175053,8.26
0.1584861405990258,-0.045056313548798896,9.761868798132038,0.004836035861360028,0.000498946222891573,-0.016314804213199578,8.27
-0.0524677592133668,-0.02250871033118315,9.866436678539372,0.015473439889257977,-0.011540119682559285,0.0014677891131106818,8.28
0.06484087790840574,-0.020894730998546177,9.8671317254067,-0.010964224921423993,-0.012830276859773818,-0.01426491856869962,8.290000000000001
-0.04521040396868472,-0.06821074455214138,9.642554862341628,-0.0068676189216088784,0.002579705797980881,0.005643855180674045,8.3
-0.00359841492339401,0.09209215819488234,9.730766392632422,-0.0028064062963943414,-0.020651446840333248,-0.0002903643240014174,8.31
0.05368052008517388,0.024112931661046767,9.885978153136612,0.005549483641559901,0.002839646918173629,0.013055004447114445,8.32
0.030117029962341824,-0.1065372115903066,9.71331093277598,-0.005247615196861203,0.01658963447153124,0.0015044646649446309,8.33
0.04904923741768586,0.06086584563893182,9.770891421004434,0.005944117392771571,0.004615046055134831,0.008980548849165935,8.34
0.18682757997751867,0.010975658574166427,9.976061466460157,0.0016024324433985349,0.008480879218112351,0.00945841672667669,8.35
-0.04261915271274641,0.0612505011915498,9.908059980823056,0.007124642238952459,-0.009616099560592567,-0.011918282445292545,8.36
0.07490792921517529,0.018701672311608752,9.863259794906202,-0.002911439647538723,-0.0006399991166287181,0.009725978791108262,8.370000000000001
0.007491998218966321,-0.009184397662586441,9.763803209658125,-0.005831966691690552,0.009331085173109752,-0.0026176173360967824,8.38
0.0778348503917895,0.20266647526277115,9.922537874655728,0.006648316907455521,-0.018553237672149107,-0.007596037522287162,8.39
-0.12116886868924115,-0.06576375477996409,9.810269120934413,0.007307769007656367,-0.00742728380197037,0.005274420898713158,8.4
-0.11018146251404692,0.007244579452631468,9.942443997042501,-0.014841328813447099,-0.017522807478671864,-0.011487997571369361,8.41
-0.07078600560955699,-0.03308372527238799,9.766317158418445,0.005841548613252712,1.3747452159263379e-05,-0.0017409353333177292,8.42
-0.015816820631853648,-0.08561705047404057,9.606747484078964,0.004112292983229724,-0.016714015680494222,0.004227225046810291,8.43
-0.11116831338148014,-0.002800780022111506,9.883128674351369,-0.010595361125964915,0.0019762963326337216,-0.006906413137752806,8.44
-0.015968868744012158,-0.11180911300685173,9.93732926096589,0.007333501063539195,0.006232186976626071,0.02071179791393123,8.45
0.005983624170751713,0.03225930249145311,9.833165844394701,-0.00931979941140816,-0.00933699767328811,-0.01927040365731386,8.46
0.006866263805477463,0.047107220693249234,9.882220235326242,-0.0081564758215033,-0.009432339629287346,-0.007130388979892744,8.47
-0.08190756431848972,-0.11192511803945722,9.695160431796824,-0.004428751282542423,-0.0013668368847169527,-0.0003145248626900464,8.48
-0.06056277572986418,0.025781540189866555,10.010844968950272,-0.001098145577196379,-0.010861873636074222,0.008922295531612596,8.49
-0.2807030274530933,0.010421055928259601,9.831730219253531,-0.022867041207034432,-0.01505673346394674,0.002107073885741708,8.5
-0.07539999022521192,-0.15041408194699002,9.669186569212291,-0.0073308304023601365,-0.010429463282233558,0.0028591673031114107,8.51
0.015243605737758115,-0.10815478691889874,10.046839871749071,0.010593428751461879,-0.006594932770617134,0.015987910152338327,8.52
0.10551133607482013,-0.1663255660926804,9.823960523277629,0.008935713797949676,-0.017073540653373506,0.009382106530720484,8.53
-0.06765390137217249,-0.11784586906265643,9.732707869660807,-0.001182537552628744,-0.0067133217560552,-0.006200952313684166,8.540000000000001
0.06243336881468904,-0.09928448420423955,9.869117501238687,-0.00043710429305367525,-0.008069115675621033,-0.013863850763040362,8.55
-0.07101463439850901,-0.022192566273528447,9.727660748598256,-0.004313070353740835,-0.006717095992645967,-0.012084844830784461,8.56
-0.15725980461282307,-0.14495656400371817,9.799415965921076,-0.01536949855610504,-0.0045397937549278,0.005738430195286128,8.57
0.03995372551679069,0.008627665846178731,9.712474975630352,-4.014828320883556e-05,0.013702104884382633,0.00863651124190383,8.58
0.08001551941597189,0.04953383554152211,9.75352206325668,-0.00906299441097179,0.001081799876986898,0.012073263452312947,8.59
0.12695920356104634,-0.05704360990856584,9.951393471567778,0.013183975661443149,0.00319101757652819,-0.010707970126689722,8.6
-0.02695905474328837,-0.04883761350660432,10.041321739835078,-0.0016652731656097452,0.0009532999227701436,0.003208104046190251,8.61
0.05202627959683786,-0.07048329200817316,9.912071015841171,0.0015635009201889738,-0.003334597715085775,-0.005227736694019273,8.620000000000001
-0.08549043824066921,-0.152946892518261,9.859575427250423,-0.0013521095895107308,0.015808848111684034,0.00794935554695919,8.63
0.23573651061141174,0.010655488465398513,9.758989946361817,0.009852125565712973,0.013207483752773317,0.009075563472181815,8.64
0.05110573047876465,0.12172923925059842,9.896765594797927,-0.006081263673457352,-0.0038537362637441263,-0.01862289187545947,8.65
-0.0535304651291064,0.02873435460765422,9.813214578801942,-0.013179390689654416,0.014630509523014873,-0.009976497056198932,8.66
0.02333746591728494,0.25138204670701314,9.723031698522023,-0.007415970052177564,-0.018247871777701808,0.008290052266586714,8.67
0.1458316778193573,-0.28733275595303615,9.856801637502654,-0.006926229686023994,0.012186706655439854,0.006582309934326879,8.68
0.044673647499737436,0.05471033570461378,9.71104612284721,-0.012983944810024366,0.013846105157255895,0.00553548563916338,8.69
0.1664372855139776,-0.08218240781118417,9.98623218231887,-0.00010461913461686596,-0.0054684039815321725,0.014093513267833606,8.700000000000001
0.06170268188880205,-0.15379502718774757,9.805782552063008,-0.00381900837474404,-0.003166210908507314,0.0013902394133592489,8.71
-0.0945243181708712,-0.14049979235214585,10.023778206522696,0.007562381548203884,-0.00036698579540001317,0.0003385812806461594,8.72
0.1290585480572769,0.05381337362728068,9.920925499277912,0.00814628427988407,-0.011558399278125249,-0.004874908102695574,8.73
0.09941326091397827,0.02194719129701289,9.807217740804083,-0.006913656939555448,-0.006871363923132803,0.007784980224235622,8.74
-0.1293728250732507,-0.029344383929082837,9.63585552716548,0.00818996270642708,0.01207674520569744,0.00553542664855597,8.75
-0.13787182799986583,0.24951896158615644,9.897975101848685,-0.0025856394572526887,-0.01260426045135124,0.003069384150831502,8.76
0.01676984410690516,-0.04885876395100008,9.826288602736748,-0.0028297610550004483,-0.003921121941496072,-0.015772006365663213,8.77
0.056166605063685926,-0.17013018164600888,9.627220719943779,-0.015465377917487817,-0.0167111147508615,0.004461986892090576,8.78
-0.0216879330778465,0.06948423903142992,9.862598290016269,-0.0044497044613783475,-0.019538803506672198,0.014554205693085426,8.790000000000001
-0.06391953891180545,-0.007452371925430912,9.833166075898594,-6.1424095111903666e-06,0.009046869305241184,0.006609540775646607,8.8
0.08384430857481805,0.151374973807204,10.005411889025305,0.00730037673216103,0.005430335106029852,-0.0016105266627040235,8.81
0.09956655975085153,0.027998143115226033,9.81104596091384,0.0030466257271423393,0.010230171957325077,0.0018144760771710547,8.82
0.037593658844621375,-0.1101909072844463,9.824894563878555,-0.00418189002166531,0.007692558704485668,0.022255388277858345,8.83
0.07293636520110085,-0.07000809145669876,9.692111663612692,0.005429972091334282,0.004192254985708855,0.0020892489203534095,8.84
0.05209827409003265,0.037315879927741505,9.768280333304787,0.006899308339882508,0.01071952506627018,-0.008228643720920657,8.85
-0.14152231419720782,0.1155703897454325,9.871381627545981,-0.00021245578657582047,0.020274150973366236,-0.017932344784736924,8.86
0.029172049271769276,0.2422294438023278,9.800731838807309,-0.004110980384103909,-0.019749052205034357,-0.0003885631980111736,8.870000000000001
0.04728487826251968,0.07188299357106402,9.94781664770489,0.0055988923592154806,0.00638566249726041,-0.0013936518085149003,8.88
0.11789651914640163,0.0660251039091208,9.769107180130145,0.001599325649488535,-0.0065990696609139815,-0.014989448345339471,8.89
-0.08268741778629182,-0.24384957245198638,9.887450643417036,0.008135177945334852,-0.001297034823113447,0.02681587818834371,8.9
0.01209140565895609,-0.062245887587180596,9.86970949819683,-0.006050361993647719,-0.004816607744280764,-0.01658617773495484,8.91
-0.03326933499883889,-0.055745840096886025,9.895004971828465,0.014736655732611879,0.015427539380207238,-0.014295571278827334,8.92
-0.21385778241510686,0.09792520271768479,9.828382171848913,-0.015191277366103236,0.0008678333126999334,0.018900534280818296,8.93
-0.056525462263855644,-0.05471399936241338,9.762074421593011,0.010036252000687732,0.011352474598186335,0.016117948591614303,8.94
-0.12787353989182235,-0.18714594830648312,9.81277141799769,0.002481278293321608,-0.007598703292160045,0.008280317355244805,8.950000000000001
-0.017765546638331336,-0.00034983221500515605,9.879727027332908,0.021404818065954102,0.005800243268221527,-0.014723539208300836,8.96
-0.025962463065230652,0.03524195510628819,10.008482704314964,0.0017862666885472363,0.0024429252530754077,0.0071676516676864414,8.97
-0.05550850766060481,-0.22032995778673203,9.832702283115589,-0.005708972939241373,-0.036830418103232836,0.0017320375689686923,8.98
0.033809814233384014,0.12273011545159573,9.81233810125637,-0.009909988268661154,-0.004478417430083456,-0.0022067892998996,8.99
0.09378918813581774,0.012889709033432818,9.895661248452477,0.005857967226395612,0.0005150210468680959,-0.0010383312157916332,9.0
0.05845124937536951,0.1708707257478166,9.714070174444968,-0.0016088409101878958,0.0021709300929134987,0.0034984489483001653,9.01
0.12367982032527634,-0.07006500168399461,9.732227893496958,-0.008976003077606733,0.0016988615134514917,0.004743980836323012,9.02
-0.039211163651804465,0.012998391440704797,9.796323794291016,0.004735504290121654,-0.010096035779781546,0.006934497821699783,9.03
-0.028689878413987537,0.03448868210965043,9.721374524219561,-0.017264020724696263,0.01146921664716888,-0.0035536923762152974,9.040000000000001
0.07816237961274165,0.14939383988855381,9.708305481821089,-0.036619904870839555,0.0019236272759544798,0.0025348387891488155,9.05
-0.0395556010318175,0.05201259723508668,9.941308224237906,0.008350574480751443,-0.02416965265866859,-0.010802903476459562,9.06
0.023385914686615467,-0.009235263274708163,9.711246916122198,-0.008461189195807642,-0.0029369516514134424,0.011418847159278486,9.07
0.06718903111530504,0.04100046890442162,9.918283830241505,0.01881151757702912,0.003501491866286237,-0.003507106770145253,9.08
0.11613222878869976,0.024552175873459137,9.796821903207725,-0.0031267534928987096,-0.007667175109269533,-0.004482706130239515,9.09
-0.11343879650369755,0.04472859631825453,9.832005595647267,0.0025429916617251674,0.012030093736221726,0.0009170780303767096,9.1
-0.008559793812830471,0.025968104354268634,9.700270023816572,0.00046337128024361734,-0.0002214838731543969,-0.00596231846043368,9.11
0.13989034222449276,-0.18636139319945777,9.751271323422124,0.004627359431411758,0.0008589761781679243,-0.02570376609940932,9.120000000000001
-0.025536978802449786,-0.15130577589312727,10.006933577735895,-0.00964575019204919,0.003634885967874223,0.0093169963262911,9.13
0.017460351202155774,0.004983601864312987,9.741013880899853,0.016053101464875454,-0.011483663515300982,0.008873095436397053,9.14
0.19665072763139563,-0.029908910455116334,9.773932650899136,0.006090906819150108,0.001964608690861899,-0.0009102255241737352,9.15
-0.07571662209282799,-0.030372225594032673,9.755857216033013,0.005101513392420085,-0.008837239165016173,-0.004288651685679725,9.16
0.19824247841537423,-0.1784184207152846,9.848989185565534,-0.0007330767459556579,0.0006558591491281208,-2.0219430218461395e-05,9.17
