ax,ay,az,gx,gy,gz,timestamp
-0.2367710213587708,0.03385929384357291,9.762561014725131,-0.014318277256036405,0.012325740418952704,-0.001383275111592306,0.0
-0.11573158259581623,-0.13540728984557174,9.81520383879582,0.0014115730126545085,-0.003204207171909806,-0.000935934201192107,0.01
-0.011012752925651346,0.07227389581134784,9.965261755655419,0.014474367326787618,-0.01824055247767727,0.009939905520595628,0.02
-0.19634525474720374,0.11959703409116221,9.760122233595986,-0.019498672963236725,-0.007394472556176955,0.014769896834614332,0.03
0.019930525971052326,-0.018857327765096188,9.74844275170742,-0.0017273614031825014,-0.007622313357601837,0.007104368337356552,0.04
-0.08157727397829612,0.04416191429269012,9.948266706812278,-0.002220471300446552,-0.00076893474571853,0.010379409438787623,0.05
0.1703432898490388,-0.0034479612009488017,9.735873916561603,0.005761776530598915,0.013212744934866731,-0.0052620858851992755,0.06
-0.06239808685938408,0.14281260323972322,9.653342057057767,-0.007693655501567233,-0.0020553237687269323,0.0039459039905224425,0.07
-0.10894248060000794,-0.1230572703485917,9.871425495839128,0.009434133487282965,2.4173491038106325e-05,-0.0009945625139512106,0.08
-0.03531168546859609,-0.17789352298422986,9.73794307513673,-0.010727702833991149,0.02053296993470868,0.009939868305729389,0.09
0.223216359617621,0.0424693581352375,9.77623722680064,0.008387676110003723,0.0008279173229164777,0.0013520487793475986,0.1
0.13826566700166848,0.023849794101409607,9.867749131022917,0.0003009032007372096,-0.016950970965818508,0.005488998197904342,0.11
-0.002165000259740498,0.11656968990684434,9.63294419536447,-0.0121205217474061,0.005450211586873697,0.013915256956394085,0.12
0.039933626171132004,-0.041217748460537766,9.651565042837722,-0.000374335209932227,-0.002412880801894668,0.003958902314431595,0.13
-0.10939962803694425,-0.0023410730404176106,9.713570336531683,0.012444390978744177,0.005118468953072096,0.002336879350267382,0.14
0.12053688045211385,0.002274245991381443,9.835557789563028,-0.0030049118157229673,0.006707730488229819,-0.013331534384402932,0.15
0.07895507879036455,-0.0037486052299530144,9.746373346120453,0.008894677038583779,-0.007550928841134373,-0.0109205550470448,0.16
-0.04105625981787798,0.11074844318316579,9.823126034134514,-0.013240186139195934,0.0033855372247495177,0.006220776807142357,0.17
-0.002862614949223711,0.002005652422952991,9.772558722317118,-0.001111640328970082,0.0016817889976818079,0.0007730374723370991,0.18
-0.2300382361878116,-0.0789098375839595,9.958113596336224,-0.0030851770257132806,0.010676372457455488,0.011090205138694227,0.19
0.0863208941992065,-0.009360339113468594,9.77932314626172,0.010455429235392156,0.004920535874511668,-0.011315006980165784,0.2
0.1828274348829169,-0.038604228978354346,9.863387372414072,-0.0035187539766841913,0.012177556319508493,0.002132998338706418,0.21
-0.1375737374499842,-0.00228012647905959,9.998828026289466,-0.005985773044044763,-0.012549897181951535,-0.018868496748683572,0.22
0.08051284251475935,0.15094234498890785,9.821980900471333,-0.01227286569385709,0.002959649311920359,0.010874633404639556,0.23
0.08873465963318766,0.10449033953096468,9.959182172659013,-0.00928774710455525,0.020385149220351197,0.004653555846452708,0.24
0.02501981091528709,0.020548606387010657,9.775330965104358,-0.002351974457130096,-0.0172075408384854,0.0030540878842805004,0.25
0.17777279873528928,-0.03456109286426907,9.801649624910086,-0.014719571984916803,0.022738628855308966,0.010943271477601301,0.26
-0.052177567339382,-0.12292325728997822,9.789306858998449,0.01979609034798034,-0.023904509055716856,0.005602414587815229,0.27
-0.015705955828404804,-0.1552548967452883,9.579019450713833,0.0070483078926914,0.009125487759159214,0.013427157757041699,0.28
0.09405794885253532,-0.2085223050187832,9.884267486521638,-0.008398818721554168,-0.0016059117583270763,0.005523031854590414,0.29
0.11349948841972637,-0.08509596266363167,9.71453181104053,0.004888729879225681,0.0014960606271162528,0.0025444694554141068,0.3
-0.11988595419396751,-0.008593713805212053,9.687747362940057,0.004926281778736608,-0.00023383140796781184,0.008238850633472537,0.31
-0.05781118880939476,0.06277043414524168,9.724262842609667,-0.008100581726578491,0.016909675581047244,-0.0021429319810303614,0.32
0.004592692310887,0.056664006622856714,9.75275568396275,0.01324380849642309,0.0048022450910236375,6.425462832369483e-05,0.33
0.1108735856736939,0.18480669943637107,9.96492762789143,0.007437361519198744,0.010607097781495137,0.0023286314069506132,0.34
-0.19079528072890561,0.08213814638252949,9.84303705601329,0.005775630428411678,0.0004385598300745769,-0.012087392117452817,0.35000000000000003
-0.08441896557582788,0.0562055545404693,9.852577241606673,-0.0020205801161877488,-0.006175672158078722,-0.01308754036529199,0.36
0.2489434144513335,0.04743147088112225,9.780799793899003,0.0005172690564076518,-0.01506369339346118,-0.00954567648040673,0.37
0.08946702514372668,0.1451580041711726,9.961670537529836,0.0019255826981717586,-0.014229524158491014,-0.011147279847182438,0.38
0.0006550159010177286,0.045438298417602586,9.673488198703438,0.007591067387532159,-0.006234461109024951,0.006030730694470945,0.39
-0.202588607710259,0.07392476711308074,9.753413574655005,0.013417118452676536,-0.01418449404466842,-0.019904800182422848,0.4
-0.059907962564896555,-0.1731964867855656,9.761388355137449,-0.005296499487044549,0.00899001398881452,-0.023614055197651265,0.41000000000000003
0.03713083818286133,0.06864135588145154,10.03286663841508,-0.013463301103523836,0.002386497958055225,-0.006827736303544538,0.42
-0.0405966758708594,0.03173286921635609,9.907528647525458,-0.023580398402578077,0.00868674622114333,0.010578836117585285,0.43
0.00802778287539673,-0.057403563447595146,9.683727566466944,0.000899613296018269,0.015035731245754747,0.011516687903913605,0.44
-0.07227039858683823,-0.08444069287380233,9.895485709606003,-0.004253641932274948,-0.005898228913176321,-0.004355438296872379,0.45
0.07050186982873187,-0.041086593912386365,9.829202407106013,-0.004164450364884697,0.008622139051710111,-0.00021747343623293978,0.46
0.10615937326784385,-0.1001918440772867,9.734261047097036,-0.011606444648694881,0.011862321532665912,0.0074564278645786256,0.47000000000000003
0.15139942286684005,-0.15329480229350506,9.946444620000777,0.011051149135454777,-0.010756261511411307,0.009593007570793897,0.48
0.09751009010275097,-0.11094368144932938,9.672125862713866,0.007530533030582624,-0.004022148933250522,-0.005039053454524206,0.49
0.1290122779155418,0.012789851397130582,9.898707429111756,-0.008431084437592376,0.003500855955814536,0.016092864386120242,0.5
0.18694774836130934,0.023671523701223815,9.896648403257247,-0.0016561060720590931,0.005827020212105449,-0.007526036886185322,0.51
0.0049349993404500855,-0.06370298221947379,9.734324260160244,0.013088343592816683,0.007866628427264774,-0.01278217841550857,0.52
-0.06333689777887393,-0.07906300543659214,9.81344611245391,-0.014603594547435726,0.011875017398032086,0.005673499618522299,0.53
-0.007933243336993199,0.12079825199635681,9.726275053239199,0.011509401844858175,-0.009766675087884355,0.001492381479671176,0.54
-0.016484152479412637,-0.007309451576953956,9.82534463329111,0.007866813429350257,0.001459112321173241,-0.020611025152344583,0.55
-0.169975623171617,0.02950082883739913,9.916544865401614,0.0014320773564948106,-5.205530889230191e-05,0.015681087980407855,0.56
0.033184116872693264,0.012380489052953437,9.8066930556842,-0.0019417240692460173,0.017623432167445274,0.0279848808213147,0.5700000000000001
0.1332167389478461,-0.029267036645997252,9.912136285102633,-0.005356433051632773,0.01281178516623547,-0.0008240086907908428,0.58
-0.03821723206915224,-0.043573940952696344,9.960003547629887,-0.005557677122046193,0.003059103362149193,-0.007207369358094705,0.59
0.17785956067963418,0.06427952839359634,9.830686778763544,-0.01036423348649939,0.004385677252917412,0.004904058891280488,0.6
0.042648239230409335,-0.23824112039581047,9.645961338907927,-0.01404171846324229,0.004494202937313535,-0.011412481997828081,0.61
-0.14245105922441895,-0.1706015968253721,9.870414371213638,-0.009751933098088587,-0.007214090577825023,0.010403513986331573,0.62
0.04837756122162789,0.009972711520516979,9.73899498820547,-0.004467276969666782,0.010562122195238758,-0.004616674978615424,0.63
-0.05598040387549544,0.21886953691475386,9.784951948550463,0.0031664615425429816,0.02792016065696323,-0.005674786504254117,0.64
0.0420780379319137,-0.07366795622005139,9.702164578275724,-0.0014039393515524318,0.0016384863714259492,0.009857613302456993,0.65
-0.06259317992492762,-0.008017840775601384,9.846601152553063,0.004098691549027025,0.0023664197004167713,0.006240408719773838,0.66
-0.04476516448039667,-0.07109761989130092,9.813784469602306,-0.012214498825875083,0.002534411111186182,-0.0013415802975028494,0.67
-0.07738716319248246,-0.010313193876229292,9.846590007557355,-0.012009649423591796,0.003432314072639924,0.004646354305887353,0.68
0.07913356647858048,-0.1026186127475826,9.895011350279212,-0.00602246324021541,0.0004903466660699447,-0.0013018985576058958,0.6900000000000001
0.05337746934406883,-0.05262442108459802,9.70735531305505,0.013386316064576229,0.006095517365766183,-0.0023293329326293504,0.7000000000000001
0.12068810047489963,0.016942233372237474,9.792561730967991,-0.003261194903680098,-0.0021767423925914166,0.013807310534575453,0.71
-0.128464858373147,0.018434625057501115,9.945734504183493,-0.011690319721029059,-0.0015547184533721181,0.005791448113632823,0.72
-0.05212642048623392,-0.09976074600595543,9.73927315727895,-0.007629062766395668,-0.011150740070198555,-0.0019299418478885366,0.73
0.05200536613371633,-0.050827829049589116,9.745290986332533,0.006740206591360427,0.025488802792381884,0.0031905145466558965,0.74
-0.04789405501126259,0.254713797003669,9.73802442393541,0.005546212834933769,0.022100622800969503,-0.01083910251964932,0.75
0.07910095582959015,0.21790474588607625,9.822228751595093,-0.01988603458587818,-0.010343647599493674,0.011616579632648923,0.76
-0.05446156037859082,0.08174014178909089,9.78819228017078,0.009512305758872922,-0.0015296189867169087,0.023344063714195652,0.77
-0.06573629688428188,0.003999632200886965,10.01993135155097,0.01225737397874391,0.0071982410146360625,-0.003976930221715467,0.78
0.2707633959431079,-0.10111350614466082,9.888924358961244,-0.010617165181630694,-0.01303802891897532,-0.0028090230647414244,0.79
0.00788016002182787,0.11071145195194261,9.830035908952555,0.003363336130212205,-0.008719741314060132,-0.0008902849945872503,0.8
-0.00021512351674458994,0.031085490920972188,9.793266826315909,0.008526619842431204,0.0015542852228112131,0.0269184796640945,0.81
0.06494870131369194,0.009860811643451399,9.942721508339758,0.011574854465158324,0.013132872079476363,-0.008684894156696972,0.8200000000000001
0.06137629656919206,0.021041135547433896,9.839269428003238,-0.0018584064037808262,0.016952522854516802,0.004276083806663574,0.8300000000000001
0.060175973901307335,0.06093068597038537,9.803062982839903,0.009314832456406515,-0.00023866268592580338,-0.011049630422941627,0.84
-0.1670241728690759,-0.18067124279678287,9.914206989417428,0.01727224090583025,-0.0018648498100662905,-0.006656613914950787,0.85
-0.05268211194428275,-0.06276307641964236,9.705571524164684,0.003327660592330198,0.012050946861365753,-0.012934171046946712,0.86
0.18528991128889533,-0.05759020266836981,9.799374004203344,0.004436873235612442,0.01597111045071061,-0.03893146279948206,0.87
-0.025382596141416754,0.15494848656094853,9.96370493422717,0.005787177186954187,0.0035926654433303833,0.003994898123500828,0.88
-0.016960677427608203,0.11653410972627387,9.68718533964449,-0.0029992786573340637,-0.004101917146921133,0.007659440754102304,0.89
0.019122669246667945,-0.1648912656641318,9.916454529022968,-0.0071842516642336455,0.021887056775387794,0.0069430807607063485,0.9
0.16184361745561002,0.14065279586210364,9.826116092527762,-0.00937175936528227,0.0005785615316741978,0.009100935589473051,0.91
-0.09885843589386573,0.07310751585177515,9.807668810760887,-0.013900321829257078,0.010630382934306052,0.0002227748759086907,0.92
-0.10107380455508944,-0.002910862219089789,9.90216776011877,-0.001789771945175277,-0.012082361593356714,0.0017833276323216516,0.93
-0.07809562010401071,-0.1579414368521641,9.854961499387665,-0.011620878368129977,-0.013241344303633463,0.007362896225344658,0.9400000000000001
-0.05858367253189021,-0.07714702803293191,9.881317096347335,0.012129720562493392,0.007088052849295455,0.009703049496958,0.9500000000000001
-0.10837807366477681,0.08042656525759914,9.73507228067889,-0.016970084315203984,-0.001357797698981599,-0.00038573083866552053,0.96
0.16306989964954555,0.07966136559798806,9.897158372671532,0.0038724932861878294,0.007376468594360897,-0.005530350420029583,0.97
-0.1046439474324942,-0.16720896410963704,9.731500322932161,-0.0017211089644210687,-0.011558899925289232,0.0169050688850881,0.98
-0.18029115826087325,-0.06710001870135006,9.789711666473085,0.007786094985918878,0.0019438413800436625,-0.00818821420522976,0.99
-0.039921423076884774,-0.12399266972701739,9.835570949471643,0.0017256736334336675,-0.02153019011603426,0.0033844111624000855,1.0
-0.09875288127899401,-0.027049543018146507,9.909271649374585,-0.009053551129469267,0.0016796333529152311,0.0029942952588219583,1.01
-0.08962107303771671,-0.11565867550987126,9.87077315631917,-0.011022617826901546,-0.006081582261513946,0.008557660272547838,1.02
-0.09420713588851905,-0.08474368497275839,9.778512202445265,-0.01461856806737744,-0.007649508763234322,-0.010459037939360873,1.03
0.11039885827364725,0.011026215912112523,9.882331959720736,-0.011229597414286686,-0.0029892176084785993,-0.016453134385415014,1.04
0.03683490331784623,0.08454805228990261,9.719303094697068,-0.004571161308110095,-0.008635783822031963,0.010196332567716014,1.05
0.16013937114237156,0.011034633653570327,9.766736672619055,-0.0014815334915488153,-0.0010033454340548722,-0.008200217919186082,1.06
0.03983239360443185,0.1407453877702545,9.964534703730527,0.009546417974727099,-0.005688605891305189,-0.004533836852996263,1.07
-0.03310690688873665,-0.11391795015015696,9.887796291657635,-0.007720852534845567,-0.02025481725518308,0.014835088631056995,1.08
0.043680470107575795,0.09933322478714418,9.848017024377503,0.0051723915851350005,-0.005673483641276344,-0.011970016921451313,1.09
-0.09664432295556542,0.2040265775893611,9.68888426844078,-0.013168028511643868,-0.007287140784028291,0.011304566549529403,1.1
0.07614642826593077,-0.1528500258516415,9.770348021248807,-0.010976050396217397,0.0020723880504919323,-2.150602685662012e-05,1.11
0.03370291070970458,-0.148688230509438,9.865699248520972,-0.0021986677184273906,-0.0066043258193015965,0.027504510686393268,1.12
0.0715507612401535,0.04984500248086876,9.968731664081208,-0.014155472260130551,-0.005461681064943511,-0.007964246455294914,1.1300000000000001
0.0002623656482169608,-0.021965264704889652,9.899975064552958,0.005461253675321333,-0.014748778834298383,-0.006869207149610478,1.1400000000000001
0.12319952663370753,0.14538714109591191,9.765118261670528,0.003833192514780534,-0.014400858843499833,0.010986529590062194,1.1500000000000001
0.07602443384316013,0.04522992461141725,9.689225817203642,-0.005322296415423478,0.0025083543939039684,0.019501916550961344,1.16
-0.0217097342159552,0.09815298481811072,9.935738807404828,0.011484414076701411,0.017331035177317017,0.0007671123193004276,1.17
0.08304152267585893,-0.002071497352639084,9.792016392187577,-0.009719370577852673,-0.00014312559463219217,0.018194183109183068,1.18
-0.002245813312589675,0.03744656483574859,9.889485294817604,0.0007226539675944998,-0.00973287936344474,0.015060588655701113,1.19
-0.1081907917530781,-0.05584820894192636,9.812998388544345,-0.005406820553162204,-0.004685658528592012,0.007265508486202832,1.2
-0.04158707822990674,-0.09346998091187485,9.753450930914951,-0.005654795750633255,-0.0029214699845830304,0.002092552962439975,1.21
-0.07987129491562968,0.06869918088680103,9.738922474268756,0.016289160793990287,-0.0007652874418659845,-0.013831210771089444,1.22
0.1461395921659404,0.01196566293176475,9.799112928684458,-0.004168697857757741,-0.03322120852853144,-0.0010463110738034118,1.23
0.06569876710428511,-0.12835427857549947,9.950565203608615,-0.004534083960187399,-0.00015993302125823661,-0.0025595867100477927,1.24
0.11076917751189892,-0.05136707919521517,9.846271800358775,0.0008468791456607824,0.0024849451229389317,-0.011510590927060416,1.25
0.06737857018137758,0.014513781218774644,9.921669421479692,-0.004785922747015411,0.015650574778485585,0.00962651512588505,1.26
-0.10653824544050366,0.08794241954603244,9.839641048477812,0.003413974820534698,0.0026423657339368894,-0.013553378985254874,1.27
-0.11594675128323016,0.017006368570902885,9.704038126963992,0.02395897396977215,0.007033703117062608,0.00978128804113587,1.28
-0.14551501223612281,-0.08761670990123681,9.574401720903856,-0.0031918854076752744,0.025325872818199053,-0.011498424657577699,1.29
0.01563207737604924,0.15782516074529218,9.810807017100364,7.401652839070209e-05,0.002542467319806598,-0.0010255509210080073,1.3
-0.03332483435235535,0.1451017540042915,9.749631894852513,-0.0031052761608568826,0.0010813004368953468,-0.013038567635319636,1.31
0.0725202634008673,-0.04005263996332578,9.845759555743456,0.011620042361364593,-0.0107695046008253,0.0048510255755488734,1.32
0.08783682278154661,0.13369220660448083,9.849159998386297,0.008103397905510503,0.00564661494893966,0.007786380680790265,1.33
-0.1355689940651119,-0.26709114287585606,9.929733912739193,-0.003848975905846227,0.009123974159448529,-0.009858449727774523,1.34
-0.12588205708695072,-0.16790730268748127,9.68295397451493,-0.02671577632112885,0.012625401567405176,0.012587323002296005,1.35
0.012592479019494644,0.044464936910162116,9.737302399950003,0.018247593155747647,0.0186220739645718,0.0013467484507647934,1.36
0.17268544083108114,-0.06410142008289345,9.858339723263946,0.015344548671624015,0.005129373252355327,0.0012439198658242524,1.37
-0.09002981539085514,-0.06121628660774623,9.73628865033714,-0.01099898618269303,-0.0010723716727178846,-0.024930158541121954,1.3800000000000001
0.049838500643746564,-0.06187219062106473,9.923206690850954,-0.0072128855294970266,-0.00646714228337484,0.01529270426959223,1.3900000000000001
-0.1365624406189476,-0.07240044236482147,9.825472825259995,0.018054669736104086,-0.0013706230563959418,-0.017427810490328967,1.4000000000000001
-0.07876608088173301,-0.0005301575567423768,9.706323767165921,0.0018592041279347168,-0.009261941131124699,-0.014516822111214774,1.41
0.1734906878320198,0.17134046887259222,9.762239515294782,0.010415978225321018,0.0014237052119024127,-0.004226235474415952,1.42
-0.024396214876561635,-0.28981133246613927,9.674633476146187,-0.004368001747821128,-0.010843960560061244,0.01465354701425718,1.43
-0.12147361180468222,-0.044158700951194604,9.684843019759397,0.029155788108876615,-0.004949152235794545,0.012545081355126442,1.44
0.036761000245301316,-0.06474617961117562,9.818561391977324,0.0002586451794385002,-0.005503195924966175,-0.0040123628632827875,1.45
-0.19868210291071647,-0.059496265567725595,9.929423052437974,0.017452281503161676,0.008886018862200548,-0.022151260815222243,1.46
-0.0633088813935938,0.041445629688395644,9.758547449661648,0.004906764525702308,0.025286585429255992,-0.00443538626333374,1.47
0.06607633292100235,-0.0554876343535053,9.865989563290842,0.0017703161656800446,0.0014612832913954814,-0.002367511031587893,1.48
0.0655976260703018,-0.03724180551713325,9.656833088358757,0.01487400027477383,0.0032142730681759143,0.014559744113423357,1.49
0.2718928401885181,-0.0975370598758181,9.821792815830676,-0.007954251511025254,0.01678299236690495,0.0012238079466315723,1.5
0.015866555737889147,0.12626057919469916,9.770474830242126,0.006796357495977956,0.006379309384276126,-0.010497790631417387,1.51
-0.2120481682336247,0.04652596739933186,9.635229500782415,-0.018654402228493818,0.002184310165072646,0.012600066293876533,1.52
-0.08791552998299212,-0.14284527915169629,9.775182762901888,-0.008738739136454223,0.0011880555273952487,0.027216831329793207,1.53
0.0029904749354874634,0.07659241254125598,9.69415041297661,-0.007296973323128994,0.002759057648848173,-0.007302971681443525,1.54
-0.14454684342427684,-0.07105321973896121,9.841976469893794,-0.010622623217180677,-0.007214070696640333,0.004612208152778749,1.55
-0.022017387706935163,-0.02095412282748082,9.788749463218384,0.005817436610996137,0.012944603482649197,0.005823444433183304,1.56
0.07388916688340318,0.017528524363562132,9.873168463091146,0.008356585537538442,-0.0007935784085150886,0.002282196586404145,1.57
0.055304321180942806,0.12590486917795105,9.749674919172158,-0.00038831179829345577,-0.0024593441566724975,0.0008219191248413103,1.58
0.16744439339916714,0.0330171421193601,9.944527485885255,-0.0007707578883582988,-0.01055597201244536,-0.0072561844525487005,1.59
0.04245822241273897,0.012959696146951034,9.884248772785712,-0.0004029603889845293,0.006952885667566195,-0.010648084557264887,1.6
0.031002486493578892,-0.02907646924643853,9.624290654966218,0.0047951247315805145,-0.004281383148442157,0.005383190727450779,1.61
0.07912517728579538,0.034147064870211706,9.89724030784446,0.018348685154782666,0.015807548853215378,-0.006335339099364288,1.62
-0.14310396303570896,0.07351781985320041,9.692695938966452,-0.004578473256757487,0.008874346816763256,-0.011454307332175714,1.6300000000000001
-0.07715230120098404,-0.004557058122146252,9.8347840561113,0.0010992029841481296,0.002554287490844485,-0.003208524199555434,1.6400000000000001
0.059943985884015186,-0.05134214411320932,9.904095927915,0.0034066933134579446,0.01058671891412416,-0.004727355602499798,1.6500000000000001
0.025606107317278484,0.07202792974023578,9.898580735494818,0.006473926255966234,0.006571475160501283,-0.00014283996049338718,1.6600000000000001
0.05572698252041852,0.011191164659626609,9.847628486869533,-0.005818246018902145,-0.00028198273125934,-0.014415843153973037,1.67
-0.09075588858594728,0.009492825337173272,9.70852732626139,-0.011739647717149613,0.0077769808473457935,-0.005684322471733453,1.68
0.050741238736113206,-0.04393984329113035,9.898624243232724,0.007526985315503887,-0.0012935193788072253,0.004574434959712726,1.69
-0.0502133450401088,0.1758703054410213,9.813392621116096,-0.009194429585685787,-0.011013166631343876,0.011988888594594457,1.7
-0.08152888343726974,0.12868959437009672,9.612471462253108,-0.0030627023196409886,-0.0008632860163652913,0.004912381170303271,1.71
0.06570218943406136,-0.059401886250267114,9.643285893700499,-0.004920531987250608,-0.025542742833092286,0.0060502815007336475,1.72
-0.07719513485325928,0.21001441610519628,9.697409099738943,-0.0005233640786838558,0.0014820596450861596,-0.013607355368764028,1.73
0.018044526025513062,-0.06049505858086408,9.732777985561842,0.004227212704509036,0.005775706985698535,-0.003931644589497623,1.74
-0.07331637103411617,0.005085919660340065,9.726495069347687,0.026725315720718856,-0.007829148552587145,-0.0006565188484851771,1.75
-0.1362731880750336,-0.11341060740162662,9.776619326624054,0.003137112771366852,-0.007041922182520228,0.008607097346723132,1.76
0.059205104407435205,0.03698168470035248,9.790376030434697,0.018462428458184126,-0.013153930484659354,-0.007289787779685962,1.77
7.099941402928968e-05,0.014715821955449949,9.841843569275737,-0.0009356051179479229,-0.008502136814896331,0.0013778081313209221,1.78
-0.08314372874835065,0.09892478736343187,9.806171750198803,-0.013133465951416902,-0.010466713065429057,-0.0028099582116341603,1.79
-0.08429364422643168,-0.16060074185876053,9.795064404631683,-0.00209794221183126,0.008301571829521646,0.0072791849608580626,1.8
-0.031339444048432405,-0.04990237551660817,9.660919127862586,-0.001964877245960625,0.0027910161984080694,0.0029965817884503748,1.81
0.10952695116471795,-0.1654375274803667,9.95944428011997,-0.011148392716899576,0.010317466544396789,0.007487842714427432,1.82
-0.136141213811363,-0.058847994097941204,9.824562965337496,-0.004912308501029842,0.0010774224365278178,0.016616687584827886,1.83
-0.0669528603503488,0.12964943514653457,9.85516574361306,0.011085537136574631,-0.013160470530626852,-0.01858958208897596,1.84
-0.006049336103133164,-0.024854876153070835,9.73094670732604,0.017286069345853524,0.011882311879066533,-0.0138768788518047,1.85
-0.008515345723614171,0.0031902637720428273,9.640658996705387,0.004016438515840386,-0.003615151263476192,-0.0047205735529786165,1.86
-0.06250634389599012,-0.11062541954190559,9.66602387208436,-0.004358807699305488,-0.001911611814598705,-0.008997509532912128,1.87
-0.002793723298207616,0.10024173810536874,9.840595575075518,0.006019747399671225,-0.001626809983062115,0.0036808365171696346,1.8800000000000001
0.07745229404945997,-0.014816740556852406,9.946092108521553,0.026043076068593424,-0.011275296836364239,0.01073875730004736,1.8900000000000001
0.028850812351401356,0.016280857656573663,9.588444308658113,0.001245280508881695,-0.006818912636825502,0.00157478742158876,1.9000000000000001
-0.08810304400066366,0.03776472325497101,9.78641216229298,0.019872348730345005,-0.01112415010448592,-0.025894355840918527,1.9100000000000001
-0.018581953409347454,0.14994547555511836,9.709021254645366,0.0010388900858672822,-0.006999590021679847,0.028086039440850603,1.92
0.12949093524761662,0.02269232516281045,10.010029946681946,-0.008471039344667737,0.0029942646447439205,0.0008331592802251093,1.93
-0.0006661146189399251,0.007817608239269825,9.975825817751243,-0.012609047409323488,0.005678707209859461,0.013765311015191588,1.94
0.04620292645701718,-0.038437888688711654,9.83386884928178,0.0003611845545099824,0.020167761384420894,0.00925621399890458,1.95
-0.02356343476848613,0.08247115595985677,9.932740190462445,-0.0014553811563969895,-0.010887160176104195,-0.004025912298347297,1.96
0.13984821092746688,-0.018714417436892783,9.736935190954584,-0.015815492842152726,-0.004933289864821371,-0.010107923783181809,1.97
0.14190212754330456,0.005708374997375643,9.856883433183302,0.005634882554829654,-0.014608982786419715,-0.00017891102729128625,1.98
0.06869904849998432,-0.02847242829724808,9.71952007813827,0.011119264541299812,0.004307482023661973,0.001065669106313803,1.99
-0.0698970056828693,0.11036889890508512,9.915263331222913,-0.018151487792077686,0.0009211553836136932,0.0001944636814303024,2.0
-0.027551762601144836,-0.028679730817760908,9.741878099224845,-0.012487413386867294,-0.003355552119603929,0.000973324116282882,2.0100000000000002
-0.03827572086744898,0.015380336532422226,9.808663815940681,-0.009729828619996111,0.003779235173355014,0.012945900187629419,2.02
-0.055377659828973615,-0.025100180270867686,9.778047025256877,0.011875532121046148,6.220554064395108e-05,0.008617599876962588,2.0300000000000002
-0.13650021743782295,-0.11980515552764055,9.783215428763869,0.0015443086853836735,-0.01121221087149394,0.0016800260845925058,2.04
0.037565327815752635,0.033587272145398514,9.711190729642748,-0.0024530326647787364,0.011669597689063877,-0.01345153976140458,2.05
-0.008693127810946236,-0.10632152620113995,9.834377603060258,0.00026652403783739606,-0.016277720278616202,0.009121718336524321,2.06
0.06605900396019927,-0.009716235638306717,10.065638837742858,0.005797236483838152,0.008696787703596325,0.0036131918812566484,2.07
-0.13331722542981086,-0.09642219282949038,9.972825814251406,0.009903022135848148,0.01641569255228125,0.000714728863741344,2.08
-0.037486398023838595,0.005124945174046294,9.728443409883862,-0.0005408690459970377,0.01030486763843069,0.02041364731857818,2.09
-0.006709818221307175,0.14935624657355948,9.85175671733751,0.015338907626557206,-0.008498304674029924,-0.019837451503122792,2.1
-0.0810729219692925,-0.04547598466823308,9.883949943818989,-0.021788398516102,-0.01595739091494656,0.00014252487916896817,2.11
-0.01951723844216499,-0.23432224331689433,9.686502385819365,0.0023837113451868038,0.007104430475496196,0.015857413182779043,2.12
-0.05145522778129047,0.10658618457511045,9.736000679302355,-0.012355659448288543,0.005833892527427692,0.01128680258072135,2.13
-0.13292696726689787,-0.0817962729003643,9.706224556975762,-0.002698998637064643,0.005951475732591819,0.005619378115421537,2.14
-0.15297408397657386,0.1222016880711335,9.809434208552448,-0.0017188644016307311,0.006073339308282366,0.022853663617773804,2.15
-0.011012711978045153,-0.11700261209559432,9.769549128398573,-0.004751996683985029,0.005360139622367275,0.008797164473343479,2.16
0.09720007546076237,0.0602419804043588,9.950870365922686,0.009853778576368237,0.0006773353804994262,0.011861117754717052,2.17
0.19674990802531334,-0.08643603311187288,9.86532106531328,0.006370006463267234,0.0019872000374304773,-0.0058817818337735086,2.18
-0.01437525624498915,-0.12037999748079134,9.725015641661775,0.007800327346263447,-0.016751818040679343,-0.008768021860458369,2.19
-0.08657834699983669,0.08411296843282215,9.640952094521896,0.005606639586920515,0.018284287180612854,-0.02918041617470598,2.2
-0.014928478425855205,0.01127070582912534,9.618884072225308,0.000515500993711515,0.009054984837569965,-0.006225468028348465,2.21
0.18497712219582674,0.009309857460916109,9.699455044611751,0.008665621939856774,-0.014361825870104514,-0.0013371806459949384,2.22
0.06917139822251515,0.10676358965677245,9.838525409636416,-0.00252680752795125,-0.0028657086209372133,-0.016616889025226046,2.23
-0.08721254242378586,-0.012710773752596011,9.69401665991883,-0.014631145709563023,-0.0003504029037392787,-0.011064334181708069,2.24
0.10085528116839551,0.11746073943754494,9.812101405657728,0.008644357114149816,-0.001500362343212282,0.0045863913610843235,2.25
0.12159386887844281,-0.14284219858722705,9.857199176767718,-0.025142154686412482,-0.002745380070912838,0.02070819563885253,2.2600000000000002
-0.027292166349086013,0.010727530325628232,9.784222571084813,0.008407626365820191,-0.007757561117364494,0.001552389261231718,2.27
0.06407689518038301,-0.034010627683098156,9.887565244219337,-0.0068816543747230036,0.002450308849722559,-0.0031375949656737043,2.2800000000000002
0.13907731858277964,-0.07873309141450321,9.852788628180901,-0.003924190983333008,-0.0014485380309227816,-0.012598842619551427,2.29
0.13539526748109906,0.13649317811155623,9.824377464480035,-0.01089404060194344,0.0009691688764187267,0.009926260718911246,2.3000000000000003
0.0360440694861062,-0.0028432508829329423,9.83821577828663,-0.005218929714660032,-0.0009520751248164872,0.01463268911939792,2.31
0.09077606857791885,-0.11584151229444034,9.833617936352931,-0.006477271444127137,0.0009606232626242161,-0.006409648560671352,2.32
-0.014374482049321914,-0.03515310621459649,9.594431116582498,-0.005779563785391774,0.0037120374992290666,-0.00012887752306944776,2.33
0.056792766756180994,-0.11424920226686026,9.716123283961995,0.010412117168934929,-0.013944053753786125,-0.015599745893224912,2.34
0.14052895058794437,0.058325356038999666,9.763389255509754,0.0021212932415776826,0.0015767215392226842,0.0015801900172237441,2.35
0.028486755487743327,-0.018726966875196222,9.852978692304887,0.010500076639052596,0.010542999417532619,-0.005027339847030901,2.36
0.015399705586144119,-0.025302848202603995,9.948814459757271,-0.0020876911898630507,0.004105486470278117,0.01793416322374344,2.37
-0.052418551537751525,0.026484086228691313,9.818179570894381,0.00965632862770864,0.010189081938817594,-0.01953534839849116,2.38
-0.11214900944611919,0.07289236229402918,9.873477831211888,0.011325577993468741,0.014266159052617697,-0.00033391507048101274,2.39
-0.033329987358660655,0.060243936265988375,9.866095638215407,0.01796189899922457,-0.006202162498742735,-1.3826487515116948e-06,2.4
0.09825521733000762,0.08817627634999665,9.751337248614364,-0.004612824398771531,-0.006355441597794609,-0.014313665425926991,2.41
0.004247673037214929,0.0019079645268690164,9.721330571345236,-0.0021236405537049426,-0.0024731306522943167,0.0022580296953427456,2.42
-0.13316135511154145,-0.008255221860029622,9.627240411381633,0.004016590211232028,-0.006430959964441089,-0.007368010479467694,2.43
0.17941731685944598,-0.1351586571962985,9.757408222284614,0.01931788621187823,-0.0004740995123981547,0.01882495699041383,2.44
-0.14378630833458578,0.017706595283090494,9.71878862888672,-0.0052206150747612845,0.02318973863603852,-0.010831852222100395,2.45
-0.07420009441345242,0.1649539478613496,9.7666517250209,-0.004566504042125188,-0.006656397258117233,0.004089461617606545,2.46
-0.032774312215433185,0.05130647064429738,9.727390702283406,0.0018266146553989,-0.005801936928036885,-0.0004097354320591551,2.47
0.02084952945443867,0.04892588665321085,9.901577026812308,-0.014388443573089289,-0.001751266552856918,0.02192529704598523,2.48
0.18674018990473665,0.0561845092670691,9.896215013400539,-0.008290854487297763,0.014890504505040517,-0.005246362960337548,2.49
-0.25324821681644294,0.02693920840069223,9.90341140400435,-0.007028675724741354,0.009019837558821615,-0.0018402691999397922,2.5
0.15853069916257287,0.049799041292530266,9.801599530078152,0.005303071512215942,-0.00236420070408077,0.006812060799632851,2.5100000000000002
-0.02680378294534676,-0.015414488518219863,9.84011824867679,-0.004542208609138968,0.0012890379896598311,0.00082506540247121,2.52
0.11045938378414588,0.09832348834535748,9.73678407066412,-0.012283206420789939,-0.004789895251096297,-0.005379578803858437,2.5300000000000002
-0.18418160774742476,0.032779715406925695,9.969106403696752,0.0008732277040398612,0.013723455451318546,0.010211909823713767,2.54
-0.09995848070083826,-0.1464473055331855,9.688135965229302,0.03473311605519318,0.001063704404232331,0.011359404902158433,2.5500000000000003
0.0049093520103419205,-0.09137985673179855,9.808089059143207,-0.004159791035168085,0.023155221395710867,0.009798423070347968,2.56
-0.11455726683997752,0.19696547264970643,9.885201683405132,0.014564443188187632,0.0044467047913415055,-0.018494861855598614,2.57
-0.17223668760745545,0.05684111584749324,9.774488077043468,-0.0188511529257676,0.011159141290299006,-0.006878638670478196,2.58
-0.04920367773299326,-0.05366940636643898,9.737172867965072,0.003825585655749954,-0.006767163369250463,0.012931606379827952,2.59
0.057722865658298234,0.0008101351011099328,9.862979664768757,-0.006604341682324867,0.010318259771395031,-0.005271525114159138,2.6
-0.06757151916180924,-0.023040596545736692,9.76541290627263,-0.008978042095387861,0.003877954074309599,-0.013288922284749908,2.61
0.3315489577438333,0.002616447194693323,9.874521322645966,-0.0030207843569472832,0.00539517599979229,-0.005110656999458248,2.62
-0.004485311683223091,-0.1637740360311583,9.7890338061838,-0.013290736641314528,0.006820099828743034,-0.009596127691855196,2.63
0.03913424837792776,0.017360720722414,9.619107359752602,0.00972933179484847,0.0034936513438953215,0.010288303214906185,2.64
0.05463587219441773,-0.09096054280270582,9.909133497978733,0.0004400937970867417,-0.0010904245308913287,-0.0006900013572935407,2.65
0.13169261665472773,-0.015651605810176075,9.765096781471941,-0.009261696582867957,-0.011934455870131125,0.007634557530329899,2.66
-0.10743664533767679,0.04977412555863262,9.763471348188046,-0.003171184558636955,0.0044185144868612485,0.016124889535006234,2.67
-0.14254767482930114,0.10450091430050792,9.740292633416251,0.005021043982261,-0.003877035647711611,-0.007028853808978274,2.68
-0.012240171309608949,-0.10150040549124179,9.888875330399323,-0.012635615432996137,0.011304926959291035,-0.013674974196857764,2.69
-0.10074977210277003,0.019300004310252236,9.919203973843473,-0.0047574596004405344,-0.004147107021923003,0.007953285632663808,2.7
-0.1923423316567625,0.1005355182459413,9.717995565376862,0.002545964821814753,0.0073524209288233725,-0.009066740800090187,2.71
0.1221869011522842,-0.14148328657431977,9.735891856885475,0.0004479077937873931,-0.004501356201639655,-0.014926404670090869,2.72
0.05002731096016947,-0.024433197975728942,9.74792727594863,0.013068531352499314,0.005892267331590324,0.006761884530436401,2.73
0.041734949368891994,-0.035580934868627116,9.91833465481058,-0.006431568221161844,-0.009909002305519088,-0.0018992287983007248,2.74
-0.09082316885185546,0.04174291541698433,9.829515736465506,0.004484769391026338,-0.0038951888176068155,0.015957248118868526,2.75
0.01069509215985505,0.009546813451489299,9.842675455219085,0.01425375251506759,0.007238870481760635,-0.001331444646320135,2.7600000000000002
0.05142133562233209,0.1973273929495676,9.885103608609386,0.0019689472601616582,0.00809090125267761,0.0046757551419831,2.77
0.04289962255222782,0.11103910325979847,9.582980321328472,0.011397079067398874,0.0004974787770839298,0.0024629555084078854,2.7800000000000002
-0.024425192650450702,-0.15591960912493116,9.792729420102317,0.004865703539388423,0.010737338236984691,0.014657018329616895,2.79
-0.1698090890523658,0.00958931080036688,9.81886025491178,0.01479592670654437,0.0034511680501842067,0.006872378972512101,2.8000000000000003
-0.011601013244772224,-0.0956921047203541,9.848622996181373,-0.0008266903418328487,-0.001822757357808954,0.0022958386642800525,2.81
-0.048267678955158155,0.04149898448096164,9.794940113212848,0.005286738452071154,-0.005644596275277377,0.013645925931222398,2.82
0.08065299642575025,0.1466994794298384,9.871538771018296,9.743668205714863e-05,-0.0023585389470965673,0.00873830887690082,2.83
0.0635808436802491,-0.03986433726863155,9.871561517194005,-0.010923856764169921,0.012756338198156992,-0.007294427619564292,2.84
0.17524337841466575,0.09570611917475481,9.636530238168595,0.0024103069311994713,-0.00332470576299764,-0.00031685214854425134,2.85
0.04113788702056497,-0.03407098255824691,9.77917367875506,0.008965200396176874,0.0032783054698121467,0.003364326361876193,2.86
-0.004721827041122323,-0.06864679728495725,9.850559208940576,-0.001891860849021843,0.0012502775199930147,0.0009221594475538647,2.87
-0.052060626662742554,-0.002333233685571787,9.881009715071905,0.015339954829142953,-0.005559304508833804,0.001390166970094343,2.88
0.07164186585008428,0.0351855170813619,9.766943086323677,0.005174479574687187,-0.001916901817477568,-0.00787280275049897,2.89
0.08890387525857685,-0.05125303169767603,9.749690115023746,-0.006359379322704203,0.002765622422907451,-0.008334120804445181,2.9
0.008545796179810375,0.06929852512500093,9.91722544791936,0.0028625849989541343,0.006072822643844475,-0.01455911739657532,2.91
0.02209384558745025,-0.0005287795155631062,9.708028060901139,-0.00041016670298034354,0.0043786847557768386,-0.004168580952014188,2.92
-0.02628251479732376,-0.18117649486174203,9.75014214599026,0.017348174048625195,0.023643627881444022,-0.00210762527672252,2.93
-0.11694636173596047,0.19152073643988676,9.79503260060613,-0.012306192202593038,0.009069075398740217,0.0016262163105348645,2.94
0.09002694564635433,0.005539581372859651,9.649986317010141,0.010315091757487753,0.004322427353995875,-0.004554065787851703,2.95
0.06637792279589803,-0.009452680049814234,9.769630691047466,0.008635689188214184,-0.005743003528578463,-0.003443346097075444,2.96
0.07163083402512593,-0.04966051583769637,9.793991056676022,0.009796405710080273,-0.0032110207518041057,-0.006969629271556269,2.97
-0.10057019670099594,0.01692955306601323,9.746447332141774,0.0012498819615818276,0.01366702780863055,0.004064227492656658,2.98
0.13100944667196288,-0.072684545900176,9.879933864772003,0.01017416642212478,0.006766795328008896,0.0011734847644077277,2.99
0.10145251705042124,0.00038157712565211883,9.793869719075516,-0.0010812687174893488,-0.014329886719189127,0.007456946128506989,3.0
-0.03348110450344696,-0.14042709426063338,9.872346291696616,-0.0014456539755960513,-0.0035079146053045053,-0.006357743961858464,3.0100000000000002
0.023670176228251728,-0.12531447241020321,9.794752772692773,0.0035681997698803303,0.0019652401315815556,-0.007886618646656272,3.02
0.10514111479959998,-0.0685970325434379,9.72749260883892,0.0035600782373896556,0.0031933114377208677,-0.00581323135690796,3.0300000000000002
0.09730928343620723,-0.005400698970686392,9.69845557615567,-0.013423856415042002,0.0007756971170596559,0.005912839990025525,3.04
0.06181473675337234,-0.026787329955346686,9.707137376641288,0.00020395313568347473,0.013091751956142747,0.016013230631436354,3.0500000000000003
-0.08150843975521543,-0.13689108271821138,9.727945963733742,0.01303924846685719,-0.014301719831492412,0.006012631614621558,3.06
-0.027831559602736144,-0.09290142055314782,9.743303289698376,0.010160661581449603,0.017914338933593923,-0.002590483778948309,3.0700000000000003
-0.0555540657615807,-0.01147290514486067,9.764136469033515,-0.0085659149000352,0.004636512608182135,0.016630781665553433,3.08
0.025544290042143147,-0.08934343827770047,9.698733038300357,0.008204109664572978,0.008170544188445776,0.006454194122974895,3.09
0.22099425874393305,0.14794845345898225,9.91215876902806,-0.0029898043005142268,-0.0031207811651049345,-0.0022282802972577206,3.1
-0.1380450956433835,0.11372892503324024,9.854266376041151,0.002877772540240302,0.005474909418096734,0.01972533218558405,3.11
0.08604056365181084,0.1124800792071896,9.775111171085278,0.010447255717653219,-0.018165236383058562,0.012681873472280975,3.12
-0.11389046629977524,0.013639877430576652,9.913893462512545,0.0032470348997804105,0.005864797096430884,-0.018647596553166848,3.13
0.04108719034637026,-0.13767450357952335,10.082585422551428,0.003874166453980333,0.006796058967483881,-0.001061365864071657,3.14
0.052049101079542096,-0.1547055685071119,9.66570633467535,0.0017066931971637881,-0.015969217577298852,-0.007098320850748359,3.15
-0.1988588730403769,0.06426772074219761,9.906625425035408,0.012511632911352733,0.008157219285456315,0.006556950691094021,3.16
-0.08832385925442826,-0.14054629789738607,9.667578058896044,-0.0028739147627059296,0.010790666053259351,0.0019620238319319454,3.17
0.1108225789269419,-0.007287682290006363,9.714582124702337,0.011451772533943827,0.006568568014462741,-0.0035441777776167144,3.18
0.008549919613453192,0.11279988309414873,10.021249802380494,-0.010524169453363577,0.015096673414330564,-0.00268640494778564,3.19
0.06340239004958355,0.07286606859688888,9.823882750577473,-0.002655249900629436,-0.006353422908660401,0.005558863792519023,3.2
-0.041509102200081374,-0.09210989064657564,9.839568429751875,0.017923441696288154,-0.008410261057784184,0.009325198543275175,3.21
-0.06095348019031848,0.11632888237671955,9.805587124451403,0.003944382020160531,0.008113243443183036,-0.020331957912822506,3.22
0.016123361017591306,0.14238220063022408,9.780627050582249,-0.005828493284677981,-0.01116288744619757,0.006524416025342931,3.23
0.0074758210969804815,-0.012678514353644647,9.888584777978798,0.0017065170051658095,-0.006472576718974279,-0.004949281768173185,3.24
0.24580732168759375,0.052854523283192435,9.793235762965455,0.021282746698039284,0.01398353728592485,0.011932768439301791,3.25
0.08645183942929867,-0.07726807989304861,9.970452245621436,0.00695578283061273,-0.006544467165020857,0.003579247577006432,3.2600000000000002
0.018635104847546793,-0.017999713346539842,9.839366448467027,-0.0049295806824817615,0.001284844316817983,-0.0014032905113721245,3.27
0.10960915633735857,0.008053625727806874,9.938110206715667,-0.01825409185392101,0.005328646474300773,-0.0070134377326890405,3.2800000000000002
-0.21768685214975592,0.011955089999579902,9.834654291001224,0.0009405261499276155,-0.0003080727352516901,-0.01114228236575289,3.29
0.1261364903142708,0.07725143863661593,9.966503490633851,0.004053688407520239,-0.015417574156776888,-0.004785895847700898,3.3000000000000003
0.015229293899052952,-0.0817902698372658,9.764765204203488,0.008961322343118604,0.011373449817044646,-0.004624487266386574,3.31
0.09411675843375487,-0.12295500530508306,9.68357210742494,0.008591195695605344,0.005905715193484392,0.008770298676034207,3.3200000000000003
0.1693522641565699,0.04668589358518946,9.780599028857598,-0.0007348663082505439,0.010220262446579215,-0.0052658240279816375,3.33
0.09258452736473449,-0.18636314946106566,9.788844115121876,0.0046395213246905155,0.007176708628436334,-0.0030907204613799567,3.34
0.06046432966288329,0.01937925329803522,9.682270224858515,-0.0005175267243242785,0.007946771140766808,-0.007125639698736473,3.35
0.07555251996222062,0.008786909332806033,9.841696638588367,0.0012300218863557327,-0.016117278750485,-0.006145231960106839,3.36
-0.05035062614140107,0.0002623392926515402,9.858193693991739,0.010963315525372557,-0.005259741111992051,-0.02677326497605053,3.37
-0.1118381608978813,0.1551473908087161,9.696843809198679,-0.0035791078117774857,0.010605670590233724,0.002943040601586693,3.38
0.11276773449509321,0.06162510056140013,9.670280508970837,-0.004426497898441234,-0.007185528680957485,0.00785889845027268,3.39
-0.08988830521171938,-0.028704959150742816,9.832185164299792,-0.0029006323786435724,0.0008230263798304136,0.007232170887357361,3.4
0.005591950115520362,-0.033679851862590864,9.785070597446612,-0.02020394609217821,0.014115445077883204,0.011706276225991012,3.41
0.09706528939584294,-0.14724003751125597,9.873528294681792,0.0061505308631211765,0.003172830727323726,-0.009076280606370852,3.42
-0.14399222150857902,-0.100068141561215,9.931848157782795,-0.02039011700365398,0.009418532206642046,0.003044157764945916,3.43
-0.018493200594095534,-0.04047220666343445,9.78154595421498,0.0035279596582336913,-0.0030197473515576113,-0.00963628082082116,3.44
0.04304443515968931,0.021231413063746356,9.731550438958644,0.00762870887259017,0.006345941088667761,0.007977406472850085,3.45
0.0023243345655915375,-0.027987915437902196,9.684337726823193,-0.005345036826485806,-0.004024308969553952,0.0049820790163324635,3.46
-0.12659642074842523,-0.03120905154273526,9.663639819341608,0.0025193628748430685,0.008093280497876708,-0.021065638778751068,3.47
0.001932538856710115,0.07269189972994304,9.964733441183903,0.006973968995788389,-0.014755861878750056,0.01463593460654449,3.48
0.08907194863402645,-0.1826397553490201,9.885745552097218,0.012788875562731172,-0.014475208404844928,-0.021112883062718687,3.49
-0.03375982899405205,-0.00205631845599717,9.831286960020936,-0.0020686147326861564,-0.015570776477514146,-0.005244057138699836,3.5
0.06934268797639564,-0.035552749207719385,9.954152888818943,-0.0038635407935435663,-0.0021217872467651257,6.134862500877426e-05,3.5100000000000002
0.05229592617992963,0.1142375716923315,9.823503089013203,-0.005831099494266456,0.0030184327960654928,-0.019333372275356114,3.52
-0.11491845788150955,0.13872104953356004,9.81817066067579,-0.028019102618256832,-0.0008965499121873755,-0.0047073142519790875,3.5300000000000002
-0.0011383079571314146,0.10584428615838447,9.764401579493612,-0.010252846587435168,0.023446790391794283,-0.004930501001717171,3.54
0.06463275036976103,-0.13139358614641192,9.941676838495257,-0.005817619224299749,-0.0025181622154797144,-0.001336937224546913,3.5500000000000003
0.07139183431118476,-0.20189139561072894,9.737496691421756,0.010661487339605001,0.0046023700486912626,-0.005550056362096236,3.56
-0.008051950662658774,-0.006001296167267889,9.876704013191603,-0.01995410951849259,-0.011079887811000857,-0.004628649109608513,3.5700000000000003
0.14327940980651763,0.016457175589107847,9.895002986221906,-0.002776011661421523,-0.008468496914075028,-0.0035575350860471795,3.58
0.16863935517533107,0.1188558457640102,9.691995261044228,0.002769778569196097,0.006213932940385504,-0.005137201994153437,3.59
-0.09947959865760066,0.018273300947413036,9.72771511394815,-0.0013675772578817336,0.004905933852825258,0.0053653377382153885,3.6
0.11508780342971721,0.07296187560285966,9.740761266104766,-0.019436849554410267,0.0029689964936299522,-0.0121418635071755,3.61
-0.009556222955940009,-0.05577705519099207,9.695041336277049,-0.002049213289947054,-0.014502788720271869,0.00663626759696173,3.62
0.08614032222014265,-0.0894868316924381,9.706425819972317,0.01123076599653547,0.002640913137685482,0.006822620386651961,3.63
-0.15024203166227176,-0.016551676962544438,9.914536737519175,-0.019890863648158136,-0.012362191628178044,0.0181341583619273,3.64
-0.19224294614460957,0.018219221827458942,9.719882999378575,-0.008010444765582166,0.006569407303976707,0.0010370926763009598,3.65
0.04399057045246341,0.0029021620104733355,10.01108249089396,0.009063858973053576,0.000978129585475445,0.011303327412351809,3.66
0.07359475152441843,0.02911680434010219,9.825580754315869,-0.010531981913087353,-0.0027857360132224297,-0.007299005164410713,3.67
0.01696404255772492,-0.0542846825027066,9.994993735673159,0.008016081178264682,-0.00361124517914397,0.0035335152938216793,3.68
-0.020412606231354474,-0.14321817762973868,9.7682123569574,-0.007843733247421172,0.010062428069812817,-0.006695634328183292,3.69
-0.04918323789925959,0.15065438879703247,9.870350574637069,-0.0014600036028239655,0.008301784150214266,0.017968364912883783,3.7
0.15592443107557585,-0.034166146018028025,9.884718992005606,-0.0034612660279275034,0.015246895623248378,-0.006757156477117493,3.71
0.07452655222095972,0.057870929736828614,9.792019773320554,-0.01532620934194843,0.001630626285267947,-0.011582258293812923,3.72
-0.07050534528979077,0.07225234682524685,9.870437157525943,0.00794882373090691,-0.004100121756010494,0.007775712365350254,3.73
-0.18749020300483876,-0.03606010177932875,9.70460913566954,0.018303821044743027,0.0049550848214106056,-0.019266385792398463,3.74
-0.1311598435940985,0.11539017679358188,9.743548097390608,-0.0005563688087891378,-0.009511151579005887,-0.005840012240158006,3.75
0.2042868863706244,-0.04368102698037677,9.738198628371551,-0.004944604744857242,0.004905023339066665,-0.0031935617136866017,3.7600000000000002
-0.0339266499500927,0.12220932704659751,9.679222160678897,-0.012030431848960353,0.014861905634901298,0.024048989763817603,3.77
-0.14947609838640427,-0.10285085854852938,9.848482968749748,0.009089773612124596,-0.0009653035085168362,-0.015445525528458227,3.7800000000000002
-0.06716370089049231,0.061154020782381496,9.71223015604537,-0.007316723362058113,-0.005470226698858375,-0.008572487103955804,3.79
0.02240078559834533,-0.08784813666990733,9.755172905685239,-0.00793791895486158,0.0016558517355789717,-0.01810460991799079,3.8000000000000003
0.03317361441769546,-0.024736428529392927,9.945836487611952,0.007200152912863347,-0.01593683731421074,-0.006212437904214608,3.81
0.01028159286703111,-0.04012875885292843,9.663227031922421,0.011653174182035054,-0.012645821805330755,-0.02004087950750287,3.8200000000000003
-0.06899336227851448,-0.03512466400113713,9.685843310454734,-0.006291101377957566,-0.016006579163686512,0.005583433760285741,3.83
-0.039012305214665116,0.012045015898984957,9.87541174857597,-0.009695188979801738,0.01084341007780109,0.0005626719379697659,3.84
0.033019262572043344,0.0428246238284632,9.80966735826238,-0.009637780704684613,0.0121680907714425,-0.0030784370131119905,3.85
-0.017606275392157113,0.004743982146439281,9.787747083334656,-0.013856635428877925,-0.002786667274588124,-0.0004305046946928133,3.86
0.04886461211139281,0.17710098071544345,9.897839939232616,-0.004946168230011302,-0.012168206541829846,0.006671581631865973,3.87
-0.03470660566934062,0.11768021320381816,9.784345101062344,0.004874294169898554,0.014020929975861364,0.021337851847942662,3.88
-0.0148219214308912,0.007428429152562466,9.744753956003875,-0.0074705898193048225,0.000363752018177169,-0.0025291321694028606,3.89
-0.062227721010292,-0.06420015138191898,9.722148231432492,-0.020790658556321718,0.008356665887613862,-0.008713666206485324,3.9
-0.1880389631184286,-0.07089035369381261,9.675164633698735,-0.011147738567230024,0.014308299215601623,-0.005116319173113333,3.91
0.03964381156917618,-0.10063996663952289,9.74211077701633,-0.008786381250572734,0.012038523512080781,-0.008519762016384328,3.92
0.10015794739612381,0.032444001439045966,9.836983770593289,-0.002099731946546334,-0.009521889236963935,-0.0019690538285967655,3.93
-0.01007690187208982,0.0734213245269623,9.843017602145393,0.012910352202013437,0.0016212130054937095,0.002300430455556694,3.94
0.02410505620098521,-0.05623307882983905,9.846153682897048,0.0053626014112238265,0.0016540204905956266,-0.002055681680624278,3.95
0.07303551530303742,-0.07834259245763392,9.936852359378793,0.004287975031660689,-0.018221434001602324,-0.0055525097925091015,3.96
-0.01748284204006059,0.06731337994569235,9.871320891261488,0.01808740410143168,0.0010715235500358934,-0.00016024365726268491,3.97
0.07750051044216288,-0.026353651554943708,9.890080943177287,-0.017610430268637497,-0.0028488308686807646,0.004932867143666898,3.98
0.020077845543333375,-0.06123519344799464,10.086718895988088,-0.006631418796157297,0.027081617116312164,0.00775578936729799,3.99
-0.19208896646702694,0.034713254230877136,9.778138394896951,-0.00016010226450732993,0.00030511532511529087,-0.01376563928816065,4.0
0.021381867567783024,-0.1399580389270491,9.982906011173418,-0.006211435180955776,-0.0028598137224741756,0.013886606684077428,4.01
-0.04736011299130448,0.13339696245341748,9.871912511188455,-0.0009856595193114162,0.012250808528861781,0.008464483615790322,4.0200000000000005
0.05511662509487604,0.006794187712861862,9.878453932349066,-0.002183803043345051,0.01149913251805045,-0.009713261835009725,4.03
0.20026097339216165,-0.04311395437966166,9.790178968115173,-0.005487564730575615,-0.005433946934879437,0.017151063641619186,4.04
-0.1097271249299988,-0.2536056775963555,9.914867055589955,0.024013103181494532,-0.012788737948348197,0.00034132022506199366,4.05
0.061849222660395636,0.08893716633532749,9.856097345029866,0.018917655227241696,0.01655403063449208,-0.0015642892665078496,4.0600000000000005
-0.012304648681765867,-0.16249490591160853,9.715126188835676,-0.01685672414437314,-0.0036992036823714335,-0.0021690646578767913,4.07
-0.12714159598377595,0.05663134053623107,9.639135728842334,-0.0029793561695998483,0.006142280012228024,0.009446918700385427,4.08
0.09205353554995051,0.026156021634037865,9.730446450290774,-0.0072587874689647195,-0.006217651277800169,-0.0008640950518145279,4.09
-0.18649685563874085,-0.03460753999399443,9.8540634546453,0.0051922125983662,0.006384410664257845,0.015293752543977844,4.1
-0.05147469784419193,-0.043858979479828974,9.702713187847824,0.0070724194447913695,0.006215684053412782,0.010501341144360425,4.11
-0.04052100752763199,0.096047314403644,9.808937958554589,-0.002684507409875254,-0.0009840429981770207,-0.0013766023341988101,4.12
0.04638888750433647,-0.016728233900606734,9.931911190131295,0.016253210042207856,0.015256662321004475,-0.01603166488531584,4.13
0.0015695219835332814,-0.02895089997914785,9.764470791075063,0.005781054344610891,0.021396708467717473,0.004590815323109768,4.14
0.02362455224296874,-0.07353612358933406,9.787628839677556,-0.010115428634603019,-0.0021455196813584196,0.002126307702104898,4.15
0.16815265728300557,-0.10284559349289522,9.859347469936528,0.010679459466665622,0.0020231889532195636,0.0017773872400319,4.16
-0.15543761919869725,-0.0008623315465000234,9.904744139219407,-0.002892572169545738,0.004599109913878314,0.012317808259967328,4.17
-0.17698053988308343,0.061531699562283104,9.762959732385669,0.007954110695173006,-0.003049591981277726,-0.002295161562916639,4.18
0.10513140172048518,-0.025316231153022468,9.908544248198055,-0.018888714950344745,0.013427603288731244,0.031074461698383033,4.19
0.1618341533275457,0.0815138022541408,9.850791396561661,0.009960615275984628,-0.007407698190079854,-0.0034675217101886066,4.2
-0.0421700683039123,0.11480468887650651,9.899425048757667,0.002990192396977784,-0.014053021140399224,0.006889833119741283,4.21
-0.034751117783597456,0.12883791437638126,9.932650434346398,0.012067203934131035,0.0091843023662355,-0.0034274710099362997,4.22
-0.08563544405222241,0.009124069973128921,9.899083853393844,-0.004213496157135771,0.00031811237575608554,-0.011955456520010213,4.23
-0.061713784142209155,-0.058220994257035474,9.784462847876478,0.006478264628409672,0.00788545862666804,0.0023141792882289186,4.24
0.04427654976156493,0.11752702993908003,9.84853105290416,-0.006709225341409535,0.001728347822055156,-0.01154942150448311,4.25
-0.02398116155849889,-0.0005142095812775355,9.87084642475132,-0.011774013800251731,-0.0033794864710274043,-0.0028832322117144085,4.26
-0.05033213185547203,-0.07084934893202498,9.91590620847616,-0.0020176172492433514,-0.024842103852270838,-0.005387080197101497,4.2700000000000005
0.10587496397926797,-0.07012347859348354,9.691230605900298,-0.01491907726850297,0.012722199751485934,-0.0029207214166292366,4.28
-0.1484512038965696,-0.13815842271774562,9.693645159476226,-0.0018569094099468537,-0.011726876068821961,-0.002063289708636396,4.29
-0.11700648789915853,-0.0748131723605234,9.708776686138343,0.005935666743854269,0.00783987056535376,-0.020371630526135484,4.3
0.09095352874684676,-0.08840621859462841,9.9193771133151,0.015775430097848625,0.0013789437252107373,0.020947387276435792,4.3100000000000005
0.07144227048248433,-0.1643188832520955,9.968685232897945,0.003806892904073403,-0.008374439995823364,0.0008027410151516013,4.32
0.11547919625091124,-0.007102587471302302,10.042092040414147,-0.003216704362195653,0.0016925684859388419,-0.007185477942564336,4.33
0.0865710295903878,0.040515289196814464,9.825684741149255,-0.012897911704261404,0.0029339065288112656,-0.0034628731881060065,4.34
-0.26492853295475993,-0.1269092140858127,9.972238758696077,-0.002880180334597152,0.004823359929828083,-0.008938710799641354,4.3500000000000005
0.013148862122346852,0.012849538719184782,9.833574122506398,-0.008612505862373198,0.001092601940648145,-0.004867606897757481,4.36
-0.026409485719285492,0.10858766519312457,9.631372772826472,-0.007263311948601004,0.000779643963138671,0.007809647528359997,4.37
-0.07897760359151641,0.11446465140847349,9.685377899150113,-0.010897861102052217,-0.013765159682565281,-0.01586263667796703,4.38
0.1336445713044779,-0.04215917948541493,9.975656220541026,-0.003512118793931024,-0.006847214358569854,-0.0026329390004578286,4.39
-0.04606155949292549,-0.11184060452523184,9.925531136612454,0.0009340370249522956,0.008323303770315562,-0.010321155840134922,4.4
-0.018441932287001202,-0.020527251219206333,9.752566664962396,-0.007128991607564179,-0.00736450215150159,0.012813063331110276,4.41
0.03915377906525008,0.23495909442953608,9.816921941277382,0.002428917666786629,-0.002057690948130938,0.01518245510456273,4.42
0.0686622466748835,-0.028428324530649543,9.75186345419884,-0.005421090052235353,0.005246933724398022,-0.015371130600325283,4.43
-0.01975926492705353,-0.02705382439087551,9.827529036521033,-0.0025300678033692028,0.0221237457560803,0.008605380480118538,4.44
0.006380745456721452,0.04501617497331379,9.824772684572377,-0.024589623224493644,0.02023047693125798,-0.01205917181835868,4.45
-0.07460025825199655,-0.19647566933675858,9.809830243133542,0.0029857237684735383,-0.013019774278096289,0.022812069522684834,4.46
0.05886188811767138,-0.020567742418371088,9.798983111051674,-0.0006011341424557647,0.0008233875696742094,-0.020916637355086563,4.47
-0.08491229321037297,-0.05873621715741456,9.738334918230029,0.006508668479981656,-0.0022986866090416746,-0.008276168652519632,4.48
0.014052863445734882,-0.014928391678540896,9.946568361451913,-0.011125982925119706,-0.01360996554408047,0.010802150855664876,4.49
-0.08492360159863052,0.005225014065785019,9.853057429002837,-0.0030480168644311145,-0.005558064210547426,0.017881364312991376,4.5
0.08311012603207517,-0.06753691461792177,9.864160301262578,0.002351951123964928,-0.008474978297670712,0.010588096731685379,4.51
-0.026669701602601927,0.0019065667422358602,9.707044180223498,-0.005333900217011983,0.001204823804866209,0.0051533501296668165,4.5200000000000005
0.004732442955114768,-0.04535000182819077,9.715521071031134,0.008608615081425505,-0.017101961893735352,0.0019009557270168369,4.53
-0.15212137695213984,-0.05858526596567465,10.052912742685773,0.006727615818249384,0.007513157967531127,0.00512125238353934,4.54
0.0627452662246807,-0.11884096781629996,9.964007030134987,-0.008445629372361502,-0.008565189359362072,-0.021679614581508477,4.55
0.00119479381719433,0.05263368798787641,9.862320318740826,0.0060739112135337805,-0.00106167811396551,0.0029378565275839734,4.5600000000000005
-0.00859977547118809,-0.025203332904415593,9.791140268883936,-0.0053096008304506625,-0.0010755834429399362,0.002932614808100086,4.57
-0.16908276814909207,-0.01194513043501587,9.777578898045105,-0.010834777434047036,0.009863938398664734,-0.005100028872782003,4.58
0.028646919774232796,0.17186256484247095,9.89947878791423,-0.012561875275399568,0.001270346040903294,-0.008700801490697095,4.59
0.018177086480606886,0.04460352321083018,9.864101581139908,0.005798757977330072,-0.0030993493333304613,0.016086039677153257,4.6000000000000005
0.01709704719548899,-0.049786546224385025,9.96276347042335,-0.0073096451550782,0.005973642177340547,-0.00038829293169893853,4.61
-0.08267079648481795,0.08256342945395492,9.878814542343813,0.0022886692959731116,-0.0022313792126896245,-0.010334697765952415,4.62
0.030146724042697904,0.04848513516716746,9.882182450909596,-0.007728884192253093,0.0019037287252909694,0.006084685148968485,4.63
0.1008528801243658,-0.01376106503108193,9.890005697174507,-0.013533234375399793,-0.006517934660986711,0.006064425074647876,4.64
0.0317755844532632,0.034480689362178005,9.772944398997602,-0.003769866992121593,0.00108664308369753,-0.009475727317951125,4.65
-0.013867459339792955,-0.07905527954620485,9.857057415052486,0.015940590654424075,0.016801518056451935,0.01335604235806213,4.66
-0.09096077444204911,0.018437744870711176,9.712973501574663,-0.013908091281364,-0.005004618496314195,0.009783949863022863,4.67
-0.08224691716012349,0.008633576634490046,9.771015433108774,-0.01140822642085121,-0.0023709886738681922,-0.0023089715922196214,4.68
-0.1880646365321208,0.06784822923196736,9.839814169328857,0.0013181700665874105,-0.007634306417224483,-0.005599207350234527,4.69
-0.05962176712553962,0.06749500206549335,9.791368544777933,-0.011032269552553717,-0.011561621047059014,-0.008151482569754436,4.7
0.00824612773291277,-0.046254656312170524,9.640210109920544,-0.005965305958598537,-0.011375799805394831,0.0023804471752206366,4.71
0.0736954943802284,0.21135830209662185,9.618996596217023,0.005283400909957291,0.0034063791007658533,-0.003329571795087905,4.72
-0.06512996012239179,0.1607604057758414,9.871245361473521,-0.006051275123477519,0.005359293919325821,0.010800323128948157,4.73
-0.10571675859649142,0.14200968337466366,9.751296561857696,0.0025747338362743463,0.010597877421185358,0.01418202693949689,4.74
-0.060626399539403734,0.04685986821131213,9.75347471422339,-0.014902270350673872,-0.0019408048530720754,0.015032318807198224,4.75
0.07324083453035776,0.06206217260195179,9.913146394076641,0.002338909227795581,-0.00047947445257536593,-0.0115638081557023,4.76
-0.1518386234946952,0.11997465052430566,9.791598843951597,0.00018270359235446625,-0.011367436946200633,0.0002116513988257687,4.7700000000000005
-0.06548870712272231,0.012811268977787258,9.862277559266946,-0.004524279887026262,0.009548942651797527,-0.018046564374593347,4.78
0.01573309310456755,-0.06939342843629116,9.785786937913521,0.0053813600472363545,-0.0001589355077417821,0.018011435370216062,4.79
0.020601783088751914,0.07919001995143017,9.984934906186787,-0.0005830961054994977,-0.015487167454859957,0.014916407468912811,4.8
-0.014505684431224065,-0.07740590339946984,9.864701325637284,0.008965848877269872,-0.0011377595241574125,0.006459619973491101,4.8100000000000005
-0.03798137555430682,0.0016860713248314447,9.638367080780897,-0.015144912241611507,0.0007372954573213454,0.014779830871759016,4.82
0.043609455659506455,0.01669491974921697,9.767564367177691,-0.0024827212772276174,0.007880993368124138,0.015336190111289187,4.83
-0.09616585012140866,0.13300737898652312,9.692252487129652,-0.0004491223581750944,-0.011130469203086054,0.004124352681558766,4.84
0.059458945273976355,0.03805730250082362,9.667286527704242,-0.01379735638027535,-0.001777281781861248,0.003135118945703749,4.8500000000000005
-0.10092780003683244,-0.08358161516276541,9.922767743450517,0.012770086272887672,-0.004428765417511125,-0.014904639610906677,4.86
0.15448859829212438,-0.15624734394184683,9.962656898686145,0.0058001386935711465,-0.0048105804337800475,0.0006495019904732716,4.87
-0.006760607008186487,-0.04913505169894443,9.838307724410944,0.01158997040816797,-0.011864898603498856,0.022175668838077315,4.88
-0.1285362579039943,-0.191368860460753,9.76126149832918,-0.0029509234448927796,-0.008134422035727533,-0.007764223552586119,4.89
-0.012669133977570194,-0.15241150350920193,9.758984909167411,0.003861301870079281,0.0061678540836266876,-0.013798312199831127,4.9
-0.18156912836068698,0.017457704180680753,9.81355635445368,0.011216798541497215,-0.014846297099875606,-0.020452544054192723,4.91
0.1920209762299709,-0.04602611204708762,9.615887697523055,-0.008813036580062923,0.008885593276365926,0.003904055118041495,4.92
-0.18201438718260865,0.05426756040976982,9.848727008753308,-0.007075836720358206,0.01392010353856757,-0.007543318141624709,4.93
-0.16565495044587658,-0.12210471360019588,9.831101418569398,0.013816859836032739,-0.018185376850783207,-0.004608502351882716,4.94
0.04957644947688703,0.18018974506968521,9.853783609424942,0.0017059599967226727,-0.004676515979952263,-0.0035354437191725246,4.95
0.02928349244104978,0.09506882154845309,9.855324919234652,-0.007213737313441257,0.0063222393364621675,0.003024547946634485,4.96
-0.011596682208616996,-0.010845430115082485,9.983174695155714,0.005639176571318337,-0.016095683915749705,-0.004309572428031343,4.97
0.07294654790547883,0.14398363486270285,9.919426523906774,0.007134640048932022,0.009939109572242297,0.01615087750601626,4.98
0.22800597207225093,-0.1450109340488183,10.180483505657634,-0.010560245711754197,0.002776528654842515,-0.0010518799018746873,4.99
-0.11406221490427136,-0.14724915076314332,9.765423294352829,-0.0036998876189011987,0.01054697485196718,0.00125625558985915,5.0
0.0038336874708626567,0.12247870313275343,9.75739140320258,-0.012657200591985907,-0.010250253387410676,-0.013309918306251244,5.01
-0.18861623169168712,0.0701487218179188,9.756217614599192,-0.0033617078277824396,0.003593469226649036,-0.0019800837639258008,5.0200000000000005
-0.04589838873195104,-0.08911987963142291,9.7182321272431,0.015990473634081896,-0.003546449208810052,-0.00898781596964014,5.03
-0.019678557280120433,-0.13477700876692625,9.775250532620424,-0.014016315321918165,-0.00762816114366199,0.00029006000627065036,5.04
0.08157749424159938,0.19501086445869145,9.674569414701244,0.004851594450326516,-0.004195308422707852,0.009917852238698765,5.05
0.0022842052715127347,0.19434141400669463,9.799497591746245,0.0077892040205158,-0.011369568760319559,-0.030476075836541387,5.0600000000000005
-0.053491843664582955,-0.08646002067969268,9.59283873030415,-0.0026000491560474594,-0.014185576050087651,0.003121055123754657,5.07
-0.16994315137577112,0.02516070077193633,9.826637558419149,0.008642776841944472,0.019081451096645583,-0.008806718786436019,5.08
0.09036937976255473,-0.030075454443998353,9.587681661921224,0.011218675763891831,0.008482611238913543,0.00665954352944836,5.09
-0.002095795991180148,0.1376527672156247,9.675041859500622,-0.0062247625397259376,-0.019314634354012702,-0.001659852308101936,5.1000000000000005
-0.027572007139796337,0.0920778215784823,9.652550226460185,0.008198250221570568,-0.006686742810249462,-0.0009390447308275196,5.11
0.15603631902985246,0.04761446126076457,9.73470064505762,-0.0056759606783740495,-0.007441901595479703,0.008298367819376644,5.12
-0.0503551335027347,-0.16545225325323598,9.71237086092216,0.005543991995647852,-0.003026364267358526,-0.004170685969629882,5.13
0.2779960288872786,0.2562698254376031,9.790345481210174,0.006148188047123283,0.006849955838194037,0.006972345826777965,5.14
0.0017909705865316412,0.265306784004098,9.940410858519401,-0.00928606079089555,0.015405408703320399,0.02039888915008922,5.15
-0.0033148668704917486,0.0012828982409058241,9.697164858362674,-0.008533325143992864,0.0025312687255990085,0.0047957630579954355,5.16
-0.050606499265976046,0.09141967814381936,9.739475599494522,0.01085101312889927,0.010748781858310692,0.006279933465800011,5.17
-0.05419201826635424,-0.05739403818215244,9.82911307892518,-0.0027307661585546793,-0.0067591141424869,-0.006069150183977499,5.18
-0.04939047886053393,0.0013475496517134763,9.805244108538748,0.008417036261932633,-0.014212223065959826,0.01417107198106302,5.19
-0.11224594726461308,0.0037745418301964265,9.868637105218866,0.02234895502104847,0.0018188896565468626,-0.006671334129184858,5.2
0.059554550260336236,0.21057881233280573,9.917590864582646,0.001684729442437515,-0.00894813493023132,-0.001625213651272521,5.21
0.14536633326968373,0.20204882634702048,10.12349244827459,0.006186333408045436,0.008582881052479731,-0.009810354791449635,5.22
-0.1561746506974795,0.08039497285309394,9.741175429112305,0.004983335377162136,-0.0008006011629500218,-0.007670521622577332,5.23
-0.07037352435172711,0.1046306357101241,9.669321108463594,0.01066129331000512,0.0017897035651496486,-0.012021595448595102,5.24
0.020412023032174015,0.09556134243470182,9.861689086479554,0.014158829087619132,0.0010566026015640286,-0.011678212875414672,5.25
-0.21569374676631564,-0.11240184730106235,9.783781955890804,-0.00021486286516307726,0.0003692745702974661,0.017165109623482184,5.26
0.010650969912518057,-0.038331952806412016,9.906117123836854,0.0014844763494322197,0.002590135873068478,0.00021537699010847885,5.2700000000000005
0.00595497096588812,0.16781039965429065,9.865749894488024,0.014547083374498114,-0.005843792051401761,0.009357352578951242,5.28
0.11273334297018281,-0.015663953552239585,9.703837892703723,0.004350244587616901,0.0065234910076633484,-0.004349396032285766,5.29
0.001748711378199944,-0.0026864188267127394,9.917488626446856,-0.007982276198883448,0.010560020460134543,-0.005564341874317405,5.3
-0.19838623287969148,0.13143974908597478,9.632561806993495,-0.008140295376322588,-0.0014027533551898542,0.003683905311724287,5.3100000000000005
-0.19582974443477252,-0.01211643108245588,9.958916922890964,-0.0042372937512459696,0.005905119907869151,-0.010351143731781543,5.32
-0.024170993550994058,0.013540207910454544,9.748621450380693,-0.008189049026133549,-0.0112356268748393,-0.008663011432638923,5.33
0.08777426851486238,-0.06599547918934806,9.760573749718622,-0.003870108017867537,-0.016114451517327783,-6.188272279565102e-05,5.34
0.0948605288852364,0.042668053982762896,9.83531632647773,-0.008783784196398544,0.009529468358371053,-0.014970248991346222,5.3500000000000005
-0.08475154822947968,0.00701327536558975,9.95804191792487,-0.0026940732369107497,0.0037542597953725493,0.0014313867064182854,5.36
-0.13177850435765565,-0.07295083876945092,9.859010597707002,-0.005899087746123076,-0.010685001867381872,0.003448093906847473,5.37
-0.032375556500213204,-0.013669592684464755,9.749830351191587,0.00093445974298134,-0.00523176746046416,0.004366961242334207,5.38
0.1789997728727545,-0.007963920799600963,10.060913705517548,-0.007082090959195988,-0.009123498365939444,0.0045287507269425415,5.39
0.07052793054241432,-0.06995037353091936,9.857647292831118,-0.0035140563759848975,0.01471162997848011,0.011555877638787517,5.4
-0.08695750363232357,0.02668798234861415,9.627893391132048,-0.005000118585387344,0.015499957225259701,0.005615431487538783,5.41
0.04873979205327125,0.07854836441100682,9.88837627254077,-0.009940629741755342,0.010737767800360213,-0.00458894110703304,5.42
-0.11973562938333285,0.04770555692620444,9.82426908404466,-0.005223186141698993,-0.01220714518574427,0.001296122939748227,5.43
-0.19407976402474483,-0.17779936554860098,9.901843107723266,0.007027437846263351,0.001014310650333972,0.006640287865318757,5.44
0.10170081110502947,-0.03254915960382206,9.853830670399637,-0.003154837485819771,-0.00852447379141232,-0.00019684053146638042,5.45
0.12090333197544034,0.0007625833853584393,9.794139400171892,-0.0011962702293304905,-0.0092114209966719,0.0008387684296485275,5.46
-0.1015591442009848,-0.04892899828050822,9.729738725191014,0.01162694181714093,0.002321322106127757,0.012015592781866377,5.47
0.08364573585749259,-0.06741549451581753,9.608822462674205,-0.01758401966894043,0.00859422765122576,0.016363578200387176,5.48
-0.09278250742400679,-0.13875743494740914,9.79738363165814,-0.00748577199673278,-0.0020019369196489687,-0.007110986142791898,5.49
-0.11124505184208003,0.1028275477557418,9.860937876618861,-0.010751845514531901,0.004972220954422305,-0.01099189171952868,5.5
-0.043293592754859625,0.0008950566152392408,9.831994447940083,0.011541400712584427,0.005014876995446416,-0.010944906392769274,5.51
0.036898626370249425,0.06200687734509941,9.830891641751634,-0.014159105522222349,-0.010868022556208699,-0.003529040767788477,5.5200000000000005
0.13835652586446637,-0.1262054031889394,9.882339869270972,0.008718292698080771,0.00964138494417104,-0.003062942011184038,5.53
-0.06040801038360012,-0.10976685346107651,9.75836718916142,0.008917183200299484,-0.011338546967136667,-0.008667929532543734,5.54
0.14576135737563095,0.1332480160569898,9.742915807224103,-0.012040371309628425,0.007978571003851458,-0.008584358062382497,5.55
0.007935929797487811,-0.14047682710924833,9.670542089155038,0.006318056364050192,0.0008945940570315784,0.010893650400683812,5.5600000000000005
-0.06699763720034983,-0.0011732871724043229,9.706000439526735,-0.01654451383421136,-0.006799414435678868,-7.273262538676113e-06,5.57
0.15476578660724427,0.009737470758015877,9.70513634316624,0.011553882910841898,0.003094574034802598,0.011797480274396047,5.58
-0.03782150973712599,-0.025469351572188006,9.632633268986686,-0.00564369613672289,-0.008063486546013495,-0.004265262404911249,5.59
0.060426438728762105,-0.10510080452913564,9.825132816375772,-0.004715761561589801,0.0004529107757718223,-0.03230473032088673,5.6000000000000005
0.05450510017213581,0.11355782507238113,9.731002655692834,-1.2148191975429773e-05,-0.0037332162126645393,0.025813534533594886,5.61
0.04943348553635052,0.009042788022395335,9.802105561620245,0.012899517714947982,-0.019672450325983006,-0.011019092566263456,5.62
0.02653614769470605,0.08240736668605658,9.731104082453893,0.01232950339145008,-0.005523447171817499,0.0072534212647807385,5.63
-0.15114246508730944,0.009319611441169077,9.821573476882758,0.00030654559541846006,0.02077185877688233,0.0005682963344674148,5.64
-0.07507694552716582,-0.1417780031575425,9.909083659650062,0.010416803619494208,-0.001199035452192171,0.015480746112152804,5.65
0.04488413965693975,0.017526366801485418,9.89712714996976,-0.0033894797420871924,-0.011318276930844605,0.019822439335758536,5.66
0.19252160652312394,-0.15295567007579966,9.81920752765487,-0.014485487957628924,0.007053077828317126,0.011473812108992832,5.67
-0.09720651155257576,-0.014975217972934147,9.745153139413832,0.004062560596963113,0.0019634487885939592,-0.009792903580472245,5.68
0.041625995714456285,-0.19599731871685866,9.838067022992036,-0.016844389648993353,0.004080799942519658,0.007019250590205797,5.69
0.09423166053913247,0.011858160377976485,10.010531716290103,-0.005830973996339007,-0.012915951970566487,0.003903022037802853,5.7
-0.015893238627805853,0.14281431875833348,9.825495248022824,-0.002613809036914277,-0.0025858803637717077,0.00665617960762428,5.71
-0.059755905054487926,0.16628095088801198,9.747063637956508,0.010576034030465958,-0.010852960657504424,-0.0045940173282429525,5.72
-0.26751647370170983,0.004047607453224604,9.89191269401521,-0.007543483188388579,0.004537851769515473,0.013512570948694081,5.73
-0.030987605763525612,0.030637235423524256,9.786156253426988,0.006690396568180562,0.006588150377340387,-0.0009721364392158391,5.74
0.023153642521542492,-0.09619937990519561,9.853767787919288,-0.022038433199717104,-0.005934049626527723,0.00032086991894243044,5.75
0.021363365720743842,-0.1294237042552793,9.91552610330858,-0.006438837880615136,-0.002792579178162309,-0.0013326341310612153,5.76
0.03603868982280896,-0.04117545841210396,9.577362225120593,0.0013841132234719436,0.004729580127063758,0.0037527122161689283,5.7700000000000005
0.0383243657887807,-0.03931674619886493,9.925522624104708,-0.009749190921068218,-0.000777352566579512,0.0010486570708686483,5.78
0.05923567766768324,0.11009610244546997,9.949832571015895,0.008863645933137774,0.01247295988283457,-0.008254102983668693,5.79
0.01846330522688674,-0.08741636602760451,9.648097242094076,-0.009977311615492913,0.005010363312842912,-0.01847827249987031,5.8
-0.1384261249792055,0.08198505596848081,9.841757839103618,0.0004866417941987228,0.0038507611431821145,-0.008419321706059558,5.8100000000000005
0.07891976473751511,0.029060751109994898,9.799786937412096,0.014359860388503372,-0.017132957492219554,-0.0029111081805622964,5.82
0.1088201927544315,0.0857897415424662,9.771916005860595,0.0024502978002364883,0.0054685578720018325,-0.0068132996333179745,5.83
0.08115898764514448,0.006473489256024304,9.726214181503142,-0.020083436094664144,0.0008346668612026886,-0.007928684922418655,5.84
0.06865485204733245,0.013516541901098059,9.897173951079877,-0.0023270569226840516,0.0018055694474311585,0.003552324522179023,5.8500000000000005
-0.05064354092230903,-0.10572340994482815,9.837858916496542,0.008890732269361816,0.01388038471660612,-0.006717868927921073,5.86
0.0854335316002765,0.0035812024699629235,9.710372781552817,-0.008544759929022021,0.006653951469320355,0.011354766564722167,5.87
-0.15346090395575288,-0.006655474812559505,10.06820052143372,-0.003701403111411951,-0.01083918010984788,0.0017357983382056109,5.88
-0.05735722598615925,0.21106884707615478,9.67065467611297,-0.0013254893881140132,-0.0061989713319489485,0.009173448743360927,5.89
0.018131055831871943,0.047961153445639816,9.728511090672377,0.005014588344833423,0.025691455341564293,0.011141765101917974,5.9
-0.07858934994917445,-0.09782568150662276,9.717455461231845,0.0009089135524718249,0.007650508193585394,0.009191060856984741,5.91
-0.02890277189526277,-0.10538237079353163,9.754669348644423,0.004729239182086212,-0.011524268750169882,0.0036723497514491686,5.92
0.024284139632799042,-0.1973898398978064,9.855665849907394,-0.01327745628916845,0.005707179314005265,0.0005791515689028763,5.93
0.11403110296819884,-0.14968465986582105,9.815731872034895,0.018592601584531746,-9.699566295579022e-05,0.001121698790394354,5.94
0.03379100831636471,-0.06661521926871554,9.868648053787776,-0.006825811951841669,0.0034440266689916826,0.010864182775540653,5.95
0.14514443145302433,-0.04408765942703328,9.684500606375904,0.004177629827041385,-0.006963610306621599,-0.01219230460907611,5.96
0.025376641390451638,0.004376397554622277,9.614578168517168,-0.0070472861340391555,-0.01153333203724277,-0.005108808716855775,5.97
-0.04029291683379304,0.03063289729454992,9.963302875038016,-0.004506063572561846,-0.003094141004311145,-0.005616693200226085,5.98
-0.08789440520426972,0.11710831897924466,9.668798962925106,-0.005677848107793353,-0.023653057049012244,-0.0045100212623195935,5.99
-0.0535048581938202,-0.12419317906689845,9.857135314160715,0.005495807748926892,0.006191952469955886,-0.0031897673795355692,6.0
-0.10239350463108993,-0.015378974452054286,9.733623494111423,-0.00316275237047938,-0.001080976327501745,0.015960775998529592,6.01
0.0002341066485979722,0.17829661685861276,9.77944223434567,0.007198647904677758,0.014480200391222478,-0.006257887881575295,6.0200000000000005
0.06263003726363257,-0.1521039605109594,9.83706502376484,0.005329186753049238,0.0017973190453955264,0.002208183243994343,6.03
-0.018858779556800015,0.04203911139006944,9.803165773718565,0.0077133409498854125,-0.003653290211076637,0.002046275155040336,6.04
-0.07019758990736576,-0.06570700557263227,9.897583939754112,-0.003924030063030768,-0.0016092375536798011,0.013598358015025867,6.05
0.23362199587265167,0.03771301623153081,9.684347205856254,0.014477972266660871,0.0123579959062811,-0.017544430034556885,6.0600000000000005
0.06392746419178451,0.09162479061269446,9.957223318162784,-0.011920536951152477,0.006634727113669151,-0.008345446177554958,6.07
-0.020571478473772185,0.048609487677422264,9.938084071123546,0.004134525195230162,0.0027190710393375944,-0.0033491908225360533,6.08
-0.13531814263446382,0.06858264281797839,9.907284014239817,-0.006023399786781891,-0.010577509277652943,0.004423324770838917,6.09
-0.08967874106946994,-0.13006188945070907,9.9980734197487,0.004573570110216213,-0.030828498173240508,-0.0015070661610090178,6.1000000000000005
-0.0939561489101927,-0.03513376197087236,9.842362449741684,0.013964296688168055,-0.010728415629806457,0.009495149064949795,6.11
0.1305860726161696,0.0920711085850123,9.88249566303251,-0.0017457064010172505,0.00021834297626407292,-0.017302074833544064,6.12
0.08337235855042431,-0.12173003310567312,9.830221775888544,-0.0035964528676127494,-0.004125050849918431,-0.009114695000388145,6.13
-0.06895488627987695,-0.11253912287777124,9.827565140934668,0.004803111749063545,-0.004431891072674265,-0.012960849945295512,6.140000000000001
0.053131302567453645,0.06786564755050625,9.778108028231749,-0.0060626132415962765,0.016380805659854426,-0.00906611826747194,6.15
0.012782648219405592,-0.07067965585589522,9.711919441186346,0.0031054583232160895,-0.003735944510877468,0.017573630367791835,6.16
0.03645754962533856,-0.15038427996740442,9.86671523775533,0.005343290293262061,-0.013294733758969059,0.017263104977993757,6.17
-0.10765446433438937,0.021285935180646007,9.92292492696786,0.0028718056330744217,-0.005717044405495485,0.009195851341721876,6.18
0.052947779468728556,-0.03161774579461482,9.76988004897332,0.006548596304021722,0.007114251858151708,-0.006985849837836716,6.19
-0.10284627378741891,0.14520142270299266,9.858899712859152,0.0024842724154155583,0.009248862919715708,0.00866103394743698,6.2
0.07994484600715118,0.11352645092734799,9.852575422591544,0.010050896065470794,0.020336058566603206,0.007602200073519813,6.21
-0.09369665021622028,-0.08164627492010786,9.856717012199281,-0.011466111231223155,-0.007320436544219527,-0.011402033563456721,6.22
-0.04014606872524179,0.003290365147193228,9.784605227645413,-0.02915768423729866,0.023095213949608895,-0.0035573452161488483,6.23
0.051694604544932576,0.17557926232298904,9.696641650511495,-0.004984317554255444,0.00013802181597518428,-0.012784816035027773,6.24
0.008065835687426654,-0.2198043549834271,9.711866668856116,0.009241221677444735,0.00920549633541367,-0.013613112744795954,6.25
0.03863864953016,0.016052554077425205,9.83965471495103,0.008530141572354719,0.0024573918334376715,0.001569152023794225,6.26
0.10811836110396365,-0.23328314434175745,9.768445535135715,0.004143929761821942,0.0008350016974003661,-0.0007688006870582635,6.2700000000000005
0.014479492769899918,-0.005623338903431737,9.728778074851586,-0.007764584861748366,0.022418550125854492,0.0008228142153698866,6.28
0.053833640341853076,0.06771008948082842,9.753821717293093,-0.010104115688872801,0.011951668924683894,-0.011381064465043517,6.29
-0.08533951943000025,0.006786570487359856,9.96090709139191,-0.01010272338326709,0.005417954240170232,0.012310243729034576,6.3
-0.036925076870365094,-0.25752324807895566,9.74597468843017,0.004007935661449587,0.00366258975548872,-0.005990243069202426,6.3100000000000005
0.1121669427119882,-0.008030716527018398,9.807953142527223,0.013367615758927722,0.012195445429927482,-0.014207366163484263,6.32
0.055394315872340255,0.18546989383721896,9.89776397322708,0.01546687107048365,-0.0012839529429534704,-0.0029828440177836193,6.33
-0.039751211524037856,0.0011796697715401412,9.678220482210843,-0.001328505596705305,-0.011473079792443244,-0.0026767776545999823,6.34
0.04752729200039655,-0.07817163604626726,9.870334703117182,0.010015882986104655,0.00539730700154805,-0.005156539258903417,6.3500000000000005
0.16656271411858858,0.08709755221569165,9.903123085559322,-0.002552590480549681,0.015283202081836884,0.014319522732898427,6.36
0.1267728399735478,0.24679665989563807,9.724163629019108,-0.011569623628329353,0.016869863508452758,0.025763440528364576,6.37
-0.05919063004274136,-0.08977360636313048,9.825145680909113,-0.0043429603532546554,-0.003872472551687959,0.0026443430886978294,6.38
-0.017114154374030268,0.11672098533593847,9.81910481469494,-0.012536336792430856,0.016626168578376503,0.006614221950453678,6.390000000000001
0.11201332648962999,0.09340100265928808,9.801348032270141,-0.008401913093092593,-0.0078081142242977155,0.011675772899822901,6.4
0.04918880478816789,-0.05627605127515285,9.732405363594639,0.010292538252778585,-0.025416125788841195,0.00933727547974218,6.41
0.10162171343461646,-0.0115947795906076,9.65795973422334,-0.03639305889287654,0.003330779816641276,0.006840802140769003,6.42
0.07144925042548071,-0.1160284056807224,9.873313486682354,0.007558547881878133,-0.012742001527047723,0.013010309583210573,6.43
-0.030092165755372907,-0.085255239157424,9.606158077679932,-0.015401343101243626,-0.0015699847052964714,-0.009211792996766782,6.44
-0.034094623647541754,-0.07866953037485241,9.849654023635335,0.012199042380848688,0.0029337550700080667,-0.003387724706350007,6.45
-0.012351288924300149,-0.05999173781484085,9.746905007219256,0.010657726914564885,0.0009266717538283031,-0.0007814311134533718,6.46
-0.06312592829311084,0.09840225975475775,9.795688657343623,0.01632535739085663,0.0024429101468312394,-0.0001281310654619017,6.47
-0.04735347894817776,-0.13028911352771974,9.999485062192738,-0.003291472757536162,-0.004024490632236745,-0.009343591345143355,6.48
-0.050398225651457386,0.15767452456262532,9.748152028829356,0.021165408854958278,-0.0013040385797898726,0.010717372437804334,6.49
-0.07523683461420964,0.04488332922117113,9.796422127719215,0.013736536775382438,0.0010135115973740954,-0.0016121352665882144,6.5
0.012856495124633533,0.02672797906787069,9.775403943732549,0.0022052743409920667,-0.005570904224533815,-0.012125502734942697,6.51
-0.08579114536796417,-0.0453726913871636,9.765462673819094,-0.0031685870633969167,0.01598255246459998,0.004753723883760215,6.5200000000000005
0.056230869015228516,-0.2939827296378371,9.977873171577277,-0.0060055269565504246,-0.004696944480490363,0.017647138720520882,6.53
0.14420766137443933,0.21411313636108004,9.696692688271128,0.001431436939463612,-0.005117398207052251,-0.017209889222894563,6.54
0.020661311279179886,-0.023210959762958436,9.633720285616542,0.0013425096396213467,-0.005605736867206618,-0.004951618534309888,6.55
-0.12370342320223655,0.12266030743313641,9.772968036060163,-0.003309244924535908,-0.01137548655153124,0.011257469823107262,6.5600000000000005
0.0716370846811383,-0.08558614623592,9.75768637647032,0.032771091058309595,0.00835454840413386,-0.001642401042968458,6.57
0.1746456563940293,-0.12253479993654195,9.717942954595804,-0.015712237443645707,-0.014862802006488277,0.0013440417322818758,6.58
-0.11384311641455572,-0.1737874951961886,9.792060518000712,0.002887087737793753,-0.009006251668927313,-0.006767665971806342,6.59
-0.0022182396996232533,0.002036633481181273,9.987088606797329,-0.0019295816907036417,0.008707595988046478,-0.009941268000645438,6.6000000000000005
-0.3097707825427677,-0.0021999045334031176,9.840192803932142,0.015522601829634306,0.001103948339959845,-0.004638618373959054,6.61
-0.04029282695895264,-0.10036527077071206,9.915009791184211,0.00458671775158639,-0.013132157827889212,-0.012080761066864993,6.62
0.0946053032777439,-0.09501148571959693,9.698433606848889,0.004970063082926366,0.015477201758225244,-0.009760876331312136,6.63
-0.01916752095604242,-0.004187112806872191,9.854992857856844,-0.005375717435353096,-0.01918413592289463,0.0009006976360412211,6.640000000000001
-0.05291319797173419,-0.11039072742968888,9.694252869630368,0.014812057067619146,-0.00030960697960915755,-0.0012353604021501127,6.65
0.009348907542383177,0.0853053623498115,9.778276523203292,-0.0014620884992894176,-0.012535006369260266,-0.0038981377771340406,6.66
0.12954185666280807,0.09962185037516154,9.862231353056051,0.01485372738254471,0.010140622582013573,0.009433603517972565,6.67
-0.1281631453820562,0.05819525034358339,9.582032601952033,-0.0009530368507209207,-0.006257250046926983,0.006450189143026624,6.68
0.06238940428857223,-0.056651917377434094,9.831426696183215,-0.004261114871814741,0.006266703152768023,-0.00634863632061284,6.69
0.13458147922162966,0.0692443039806081,9.934937773611141,0.002937188266530684,0.001139064622508586,0.0020771960969756696,6.7
0.011331574079696314,-0.20217372603069705,9.853046588899309,-0.01418179227457206,-0.027105184927892725,0.0059700515804615144,6.71
-0.018227000310507425,-0.07926860203512082,9.752426449002584,0.004109148173120206,0.009597547630125032,-0.014711743291379593,6.72
0.03841337908810002,0.1606446809411064,9.736625964046121,0.005229934588931342,0.012096589238896662,-0.017253446085172132,6.73
0.011184966743877563,0.19275418640769068,9.72705624600707,-0.01154615004204321,-0.002310645598517669,0.0030658036472754747,6.74
-0.20609984618741298,0.03908733459314903,9.706978649528915,-0.0004833093649670293,0.004345698489496187,0.013165287389461367,6.75
-0.10195378019138597,-0.04998409638836278,9.879988994941955,0.0017233833940865143,0.009415413424665968,0.003115735040458957,6.76
0.0010407873467515618,0.28419131782266155,9.912245645488769,-0.015868899716170278,-0.006164638700335368,-0.0020558691260261987,6.7700000000000005
0.09101875350605647,0.08934904656171296,9.859305588834015,0.02056788205778005,-0.007586265887479161,0.010441094456829243,6.78
-0.006385678116988307,0.10921697155069371,9.928314572528564,-0.010650879712610329,-0.0010812022281115393,-0.0034571831732971145,6.79
-0.11291061643472311,0.03413685579319575,9.973284594770977,-0.003512322069526488,-0.007207674950263893,-0.0009017336496497387,6.8
0.07715517234508368,-0.04979060545659394,9.725653437889024,0.00024884795553321517,-0.004654490101330746,0.006528318001158832,6.8100000000000005
0.0026253318403311778,0.20100149461435832,9.852498223305961,-0.02167396837565075,0.015411751288331313,-0.0016791607833195033,6.82
0.0035217410978754457,0.09644731353771475,9.796618315422444,0.0064986332173399865,0.005032570917727636,0.009248652249185566,6.83
0.23577153189633993,0.04358434551225619,9.8264923468667,0.003943622233883129,0.0014704714953050835,0.004018004041206304,6.84
0.015903888369901375,0.057009522966024254,9.90360712803532,-0.0063123121488835475,-0.016030008134741515,0.006409506062406737,6.8500000000000005
0.07195570673896769,0.13596558632161942,9.715231783769216,0.012188795732330442,-0.015392287288599354,-0.008851665745940143,6.86
-0.16667144381386848,0.16377022145853215,9.698752536024788,-0.0034995960861241744,0.014796086829249152,0.00694143743882376,6.87
0.007330641003720034,-0.11834790591832026,9.602194078146619,-0.0026058743344992696,0.003992551125787822,0.016324508769343844,6.88
0.08611366711978839,0.0762104433644031,9.821027213211108,0.008899467667099424,-0.018449137589276167,0.003341034018053363,6.890000000000001
-0.02317101170295446,-0.1186025641681962,9.922470030691107,-0.005622761859685732,-0.010583946736133332,-0.007494205005320494,6.9
-0.17191415374104146,-0.03852532099929632,9.870386262321487,0.025929649831264057,0.02165477132095211,0.0076232824013796885,6.91
-0.05842553521577464,0.0402723163192223,9.68695120701638,0.006105910505947172,-0.009400661294367278,0.004050208754239551,6.92
0.04521708610468066,-0.022050700264751685,9.736524901456432,0.005772424792619424,-0.006097844759297722,0.002345584881296493,6.93
0.024380656352616673,0.1534287481656147,9.867868511213143,-0.018802984362094974,-0.013282594761530667,-0.007634187803248371,6.94
-0.10641239671757713,0.03294780897097429,9.989899918793268,0.0005080928987342683,-0.009422430417737116,0.004255983139326132,6.95
0.18374910076970297,-0.1390506105880502,9.914871863697826,-0.01059947154519636,0.0005739439267662778,-0.004772196682280689,6.96
0.0034411607305396713,0.070605083039371,9.77274386792219,0.0005009758524232432,-0.00893762509635114,-0.01219786790976625,6.97
-0.08540070106598849,-0.17659770447454382,9.964984696103665,0.012488979697790543,-0.0026281656546037996,0.01149859541339058,6.98
-0.033188429003338786,-0.04589168926936529,9.777630862862598,0.030275536862894893,-0.0058457210729301245,0.001213103145442353,6.99
-0.145158096604223,0.025510386577350636,9.844051267640236,-0.021633426740880323,0.01139747613567398,0.006112769259705407,7.0
0.13951243928944188,-0.010503448082199204,9.791373684251754,0.001402926694961587,0.006320274676034914,-0.007210675732353323,7.01
-0.057894552350936934,0.16930621517564137,9.828624362765607,0.0044797061378454755,0.004739705005925069,0.011419431517605334,7.0200000000000005
-0.005209158793596639,-0.12114628141282405,9.990737172270372,-0.007729349684052106,0.013437379402280743,0.002284876950159413,7.03
-0.06390234656429979,0.2710067768413406,9.79196597587117,-0.00015073371563129514,-0.004538344611727364,-0.01538316329283045,7.04
-0.015181579178466353,-0.03739051489812801,9.745592589678743,0.0026226049241518945,-0.0006794980802550676,0.01689038300251977,7.05
-0.06912503099524903,-0.19969381724785482,9.676626274071813,-0.0017170116180029646,0.0006576700710509914,-0.005371995569389555,7.0600000000000005
-0.05370419866947815,-0.00751089386013706,9.754072152212599,-0.013945356486265919,-0.003444140612592874,0.007725429334322142,7.07
-0.07096429782915713,0.19618799832187916,9.817626700350047,0.017270108401873836,-0.0011488776921018654,0.011276800389263408,7.08
0.2128043542491505,-0.031213528071300036,9.796632922826836,-0.0014198013597669279,0.01350808608037688,0.0033651931110837826,7.09
0.027559459497962187,0.04481755517694689,9.916127566634398,0.0035964625150192854,-0.0018016763534146457,0.005894338785722242,7.1000000000000005
-0.11258024386745345,-0.12541183980214213,9.84312765632788,-0.0009830674708538004,0.005844190342547496,-0.015990346780218562,7.11
-0.09680266548213202,0.03578477706714746,9.850946630975871,-0.014723764184799867,-0.012424592294096592,0.01010244025914143,7.12
0.08706361752902209,0.13054198024677158,9.978799968256581,0.0030844120277982506,0.009211821738177682,-0.00892645696475649,7.13
-0.019989351734575,-0.015626533048092483,9.82730578638262,0.00404762655372633,-0.012987629274899113,-0.0029115768355664623,7.140000000000001
0.11946516676881738,-0.2177432414103076,9.830224993652653,-0.014013644389458152,0.010801914021424906,0.009336219146300048,7.15
-0.08838111802665705,-0.0026557932268692877,10.006025739013868,0.015506931780650123,-0.0053538877373133275,-0.006100570590587106,7.16
-0.02809939349827772,0.0672365291787596,9.813709803436028,0.00628991916538318,0.0051348628112688225,-0.008378304711569105,7.17
0.021989702622234954,-0.07667110265789835,9.88336367181713,-0.013056150053891205,-0.008781610730562566,-0.0050536804449567195,7.18
-0.04479567236994537,0.15161862311360497,9.992100297032598,0.006368997930161205,0.012810481865081727,-0.006846103266091566,7.19
-0.1663696464828417,0.20923766296810353,9.721796644637907,-0.007297406126160162,0.00663288783308234,-0.007424529311529307,7.2
0.1096157513205842,0.08718787552637951,9.7234353434041,-0.008153991418714979,0.027105386547939102,-0.03612347768336363,7.21
0.07602042851646296,-0.10008299806033212,9.775042075812935,0.005171572654971543,-0.013204108101733694,0.011852475628295276,7.22
0.005488060493840276,0.17767712330239324,9.7551781862626,0.002781929744182814,0.0026397656268220605,-0.0029929433658565908,7.23
0.09403831572869069,0.11267847375341396,9.854383232629395,-0.00017062614981504392,-0.003413722751186056,-0.011556964539555981,7.24
-0.12463549970293895,0.025673005147514208,9.819354293535566,-0.004628685643836777,-0.0015807825799385655,0.0022034444705989332,7.25
-0.0877711902744015,-0.02910329447583783,9.629670407034403,-0.0044766197959330645,0.002048818516204092,0.008025568268692444,7.26
-0.025636543134256385,0.17623097404841553,9.816638937700802,-0.01832313199976288,0.01702005888869728,-0.012904609269485862,7.2700000000000005
0.20373344019016632,-0.10215992516825728,9.815703781048096,-0.0010268427747567263,0.005633179753036004,0.0026668803758057025,7.28
0.06313434748370521,-0.1454126789101847,9.817690251942818,-0.015997202492692632,-0.021250718481097993,0.0015449652847800209,7.29
0.007725870108589485,0.001453593794851479,9.734148550562864,-0.010443980403835216,-8.89241256618417e-05,0.0042023963635547,7.3
0.17367898484450375,0.04441061243838963,9.791243740175343,-0.0012390364407073066,0.01917691120315927,0.014271581780631893,7.3100000000000005
-0.041825986059932235,-0.031024320488210078,9.65719489531018,0.0038185228877805036,0.004037199487295278,0.020953415493251647,7.32
0.05141055493298794,0.04230716755803643,9.84756059489808,-0.005495597016518897,0.004986084182542962,0.002679936589559367,7.33
0.0684995046344705,-0.12325047796326272,9.606339761643412,-0.0021470815224325303,-0.004386298245701726,0.014786787579885044,7.34
0.18427854862967796,0.009765905556613977,9.705791286409976,-0.007204194451519297,-0.017209105482691996,-0.004495726270020431,7.3500000000000005
-0.081924482696069,0.08801559696288996,9.743255666527057,0.0021225083079055383,0.0035655083671336293,0.0014470036619016378,7.36
-0.012679776467617435,-0.154211014439621,9.755799648362816,-0.011225542079360487,0.002906882609027953,0.008782084365898219,7.37
0.0026432500956999807,-0.09739276693210375,9.857807012581976,0.01089521390154322,-0.006859131742885279,-0.014953981047245258,7.38
-0.025364414950273553,-0.03971855324414139,9.863217292195712,0.0007249020223463362,-0.0028415330696228832,0.013566168425640051,7.390000000000001
-0.004625279574589403,-0.1757793769270367,9.852797800793265,-0.004404528978203904,-0.007336300854817193,0.011210984496384755,7.4
-0.010631510655683135,0.09653350848072258,9.825121379004432,0.00364945578065644,0.015098018706606039,-0.00894372867515229,7.41
0.1275303026551709,0.12426133732530922,9.725087623860695,-0.016373128137738585,-0.004081653018702202,0.006780333731198032,7.42
0.028924894479034874,-0.10114453032039217,9.813194066314052,0.008520986992494206,0.003238148133921785,-0.012679438420298573,7.43
0.021475662132351043,0.023101360413216546,9.852246231109593,9.93965212481492e-05,-0.006513014219485,0.013788417037241143,7.44
0.032837730414224074,0.10101387326661987,9.809953911729753,0.005612416321546503,0.009003165359704697,0.024054951466262714,7.45
0.14825263610118167,0.0756835250684368,9.700292334689557,-0.011520239635836383,0.010852027321612839,-0.017340201536400996,7.46
0.07532189573994966,0.026948222616143894,9.73692800176492,0.003802724999084539,-0.01560283091721723,-0.007168787360410073,7.47
0.07103322832206266,-0.1371396806428196,9.870787436606442,0.014977579210887368,0.006512603636245343,0.007563208312005151,7.48
0.1353269619563917,0.026542593652967506,9.669441797114057,-0.005216984176902579,-0.0016226209972442338,0.01206953240000514,7.49
-0.19708378539330862,0.08596389953979988,9.802794486539618,0.004734877903455611,0.0007066811920662555,0.010135859635081885,7.5
-0.18190254902139416,0.06552623002091956,9.85680494643593,0.011236966759248025,-0.008484853957391068,0.0008268474144428044,7.51
0.01579875316351181,0.010761308969630158,9.796202991094205,0.015210017635517242,-0.0019343227710589452,-0.0007208516850509176,7.5200000000000005
-0.07105695571012037,-0.16877063358222327,9.775324407236491,0.0017997308608321862,0.0021010848499053224,-0.01908112476699817,7.53
-0.016583589021976992,0.13713408224125076,9.974281059893029,-0.007937449529877542,0.003998943902151219,-0.016698412073323964,7.54
0.2362129454428922,-0.16656138422563335,9.710581767163253,-0.008128410378000755,-0.0004180145317299581,0.011403010065193193,7.55
0.10734170114112984,-0.05637566373970592,9.588566971823512,-0.005537566480820973,-0.003786990770245594,-0.007673219601784822,7.5600000000000005
0.00015785542818431462,0.07347272433426426,9.892098961796753,0.003610212008449885,0.02489372555812245,0.006294091599415665,7.57
0.06242793664526493,0.020612403311127903,9.771965026428798,-0.01091926808021075,0.006453271261839161,0.004260657157466915,7.58
0.04449697612174342,-0.06330693721915406,9.828288127681011,-0.015029181543231065,-0.0061414744289658915,-0.0017162432823788756,7.59
-0.11365247348555296,0.024090033265674545,10.027829627139187,-0.013603282198354978,0.008601333397115924,0.002828648046690036,7.6000000000000005
0.1516815500598023,0.12705553853386028,9.709464436229126,-0.012690165853859443,-0.013924473293629863,-0.00048295425746002987,7.61
0.06689145100437568,-0.046331412857348216,9.930676623800677,-0.00519211707690551,-0.0008564564768290389,-0.017921259608277198,7.62
0.19439032522906885,0.03593814736893674,9.865542953668,0.009684251388796207,-0.0018764314817440973,0.0019640049934884648,7.63
-0.08399828314827083,0.059716727206088574,9.76047002302302,0.008695221786151421,0.006142361704012516,-0.018649958892978793,7.640000000000001
-0.04581986727413461,-0.20773164693486812,9.7275202412945,0.0001898586408090935,0.0007275269256295369,0.004778551081075519,7.65
0.16170758585556627,-0.08079663369522672,9.808996637998815,-0.01971756684324477,0.007299479863730817,-0.00746284878510198,7.66
-0.15302007790358163,0.050669769551417415,9.748449107094286,-0.0007620525859985574,-0.0024519141725049217,-0.0011604529225635988,7.67
0.007553474445607969,0.1829890623337629,9.968595554885589,0.006106267387775586,0.009271464185658641,0.009118793025663072,7.68
-0.07345782249144656,-0.048066556647649195,9.9264256254941,0.012123111141759018,-0.008388933018011507,-0.00634431029766235,7.69
0.01731978004764392,0.0109346108279718,9.73729834530498,-0.002217736142401063,0.003317007965981522,0.0017188188984674957,7.7
-0.1439081723501304,0.13280090389370278,9.98767503519937,-0.005699824005461892,-0.004994913835048392,0.000800303748105985,7.71
0.009792554086197463,-0.0076639954905477195,9.901011684488768,0.00383398467865586,-0.01182959137349243,-0.014807991390282776,7.72
-0.09092414233931945,-0.0711025780901221,9.850399190472883,0.0013725830631630836,0.0034171380106699087,0.003210022058262373,7.73
-0.02135626664031511,-0.029356407889703562,9.909361628332077,-0.00024419751796688654,0.0012529891958842202,0.0012501116551025728,7.74
-0.019657838777950923,-0.0009626149160452566,9.851181116141765,0.004029963899700958,-0.011108781411353727,-0.00467151586628484,7.75
-0.20618989696916223,-0.029972226759485812,9.703104849197842,-0.008080703579156008,-0.013736961928084162,0.004020142614795979,7.76
-0.11688619394559059,0.09361365178254674,9.865244711683685,0.007865194828000308,0.008104713249542523,-0.008590228630173155,7.7700000000000005
0.14184691181502554,0.026727579930389836,9.79442773506334,0.003914600926767757,0.0185442923696744,-0.009946876937093629,7.78
-0.11789718355123767,-0.011750585618640504,9.775360715424819,0.01550824424399209,-0.004810639556560167,0.0033257112744280617,7.79
0.039032358586799536,-0.2028166374474335,9.741565781665054,-0.007459653737608697,0.013898158031890684,0.00947081682109841,7.8
0.11568254936570493,0.10572310183870466,9.911659582269893,0.009520088584504406,-0.007430724062480111,0.008904357293745689,7.8100000000000005
0.12836939237858144,-0.03584780132804221,9.865737838873605,0.011201279156301678,0.016380167002452352,-0.0024036761898790005,7.82
0.01453365971501945,-0.023527794942168,9.874786773501576,-0.009703169314230693,3.266229548571882e-05,-0.01884885930047049,7.83
0.1140306255629302,0.11903306694506631,9.920493902584461,-0.004829475626705932,-0.01069538913082458,0.005205289978359946,7.84
0.08574162889223746,-0.03646912790762593,9.824333525141409,-0.00014266308533930988,0.000581533574321798,0.016542605925890432,7.8500000000000005
0.08410607221938635,-0.14040343923211138,9.891117983570743,0.029759106525130374,0.0023709369811564197,0.0019438523322259343,7.86
0.09447119540392183,0.058390853575950113,9.82952969072333,0.009238995507221499,0.00011546153166808861,0.0038691659331976523,7.87
-0.12045022955120205,-0.13810153326497399,9.798711432035864,0.0015605398706899593,0.005042482612173227,-0.004830254234696502,7.88
-0.1371313597581307,-0.08434036207937923,9.833550137864618,-0.003584960712029806,0.010392709576803787,0.004919232405123145,7.890000000000001
-0.02630122603797145,-0.106750962856569,9.798724244699704,-0.007117208982444591,0.003508718482081039,-0.012579631192595607,7.9
0.1728588577183542,0.04270508008259207,9.741281065590401,0.003263496452712562,-0.0029561782780134853,-0.008280083892174708,7.91
-0.08648775971254981,-0.24180422096127985,9.59621716154621,-0.016342337586630274,0.004845385543543099,-0.013770241494540932,7.92
-0.020446338095887813,-0.0040472876156541935,9.969104510984755,0.007595849704857637,-0.014944689904520934,-0.008436719296953938,7.930000000000001
0.024957362362905272,0.1279501784009915,9.742336123641836,-0.007925660440712676,0.0015905329299266036,-0.0017552039290551513,7.94
-0.013281196167822074,-0.006124700270163501,9.850164671946475,0.034675324934436945,-0.008403236576767724,-0.0019686016363863346,7.95
0.11412085130180204,-0.011141476403350925,9.568739313397582,0.0004874564158608759,-0.005197915288931169,0.0021621234152499995,7.96
0.15052391924143965,0.004097040877571267,9.668487552243501,0.007519619198530755,0.009951868085932241,-0.0007250764249123431,7.97
-0.0820936563470252,0.039412534127741816,9.67188799200838,-0.0019154146591661375,-0.010151285630251113,-0.004878677422464763,7.98
0.11341476745067514,-0.022040758932722337,9.781291126871187,0.005454770183182942,0.010217377811028803,-0.009034546207715695,7.99
-0.09166851657808162,-0.12964853210712868,9.869889075231114,0.00026003566270787234,0.01115624691201618,-0.007796761809757319,8.0
-0.1246234951697936,0.1260972308507204,9.77587086201048,0.018962370630400772,0.0014970535194792098,-0.010629446696402884,8.01
-0.09480741262309553,0.13940607972072747,9.882384441472766,-0.002551968429419636,-0.017053856108339375,-0.004638924265786329,8.02
0.017614566549195524,-0.10314463917000767,9.628241450086676,-0.0019751427331531294,0.004776568404847844,0.017114113460485792,8.03
-0.06341540618627266,0.2099074823593893,9.848357526148016,0.010703477813426924,0.0094823512900311,0.018527609241419715,8.040000000000001
0.062148853983031306,-0.004180132586326555,9.703720565599486,-0.0023907849648507956,0.011828263049353135,-0.004165571569655989,8.05
0.015098975592350886,-0.03928008396762411,9.84023270235934,-0.012899880382809124,0.009598255645955366,0.008850292419115354,8.06
0.12362830787051093,0.019740027115468642,9.716941045066037,0.005767372585246927,-0.005638888111903271,-0.010322911910257708,8.07
0.0837049986030508,0.08709314713614856,9.852536014202755,-0.0016268833685197967,-0.012826071772757987,0.0031294118040622117,8.08
0.15203871913113784,-0.0828179635978573,9.742727601130879,-0.006113727994015913,0.005316918379936042,-0.008151432779447687,8.09
0.11434850437664655,0.009191816896223124,9.890244551570081,-0.011576405038870275,-0.0031610673841364722,-0.005283627940718404,8.1
-0.12745005426157396,0.01929864227644753,9.949363254284803,-0.002624451090477558,0.006190311491767546,0.015555796765723596,8.11
-0.12528634422605994,-0.04781053890341037,9.75558686963216,0.003253335349724679,-0.0033634401340023406,-0.007691788958839103,8.120000000000001
0.027221572608900974,0.007033953368325648,9.807953621545941,0.0072952963311984234,0.011134498674409868,-0.00021069051612785256,8.13
0.10919376720996675,-0.06316265034492079,9.886255639934534,0.0018976331918886633,-0.004810560186649884,0.005626978911568488,8.14
0.04554200448843959,-0.08643723934805872,9.807976547632501,-0.0019078851755569648,-0.013271352728088128,0.0016095133171796173,8.15
-0.08004478226563988,0.028435701690112915,9.651247920753105,-0.02020857934083416,0.012552093877791326,-0.0058244543891424585,8.16
0.15972936577057875,-0.06037430258633142,9.875150953639505,-0.011954618308708984,0.0022479714862399785,0.0019002141346158544,8.17
0.13948536438559386,0.051941740222719635,9.784437209959561,-0.012165567183358646,-0.003016849799549859,0.007284976625401479,8.18
-0.30357696125540273,0.05946671076579756,9.76927747678428,-0.0006729507966542494,0.003632509863902731,-0.007224857640425217,8.19
0.12977433408116285,0.061139698958733106,9.953736022834331,-0.0001379894148726186,-0.007086589372946853,-0.009862034727436417,8.2
-0.0898858009549213,-0.10758808174265691,9.991600131445496,-0.018015003762047958,-0.010564486958898842,-0.008589483198214102,8.21
0.041186731956936555,-0.051522424822003254,9.862097297368,-0.0029879318578604503,-0.00021054447376964394,-0.0036122180569528517,8.22
0.06696410161074594,-0.022063133762993223,9.63376835638236,0.012393399228666729,0.02055912890097758,0.012104789756235164,8.23
0.010685809034735335,-0.11639047406811842,9.757976412507988,0.0029394680897699204,-0.007129943593071426,0.011428070463105169,8.24
0.06552401530642342,-0.07758290354339173,9.870384910759396,-0.002298371198790577,-0.001095523693756711,0.01916432104645294,8.25
-0.16909049757991293,-0.048949752193071606,9.83606446367138,-0.013274513832295495,-0.012187724674256757,0.00888577362260984,8.26
0.029135187263275755,0.19268573546674997,9.801879103017706,0.0002812630166325006,-0.013790254122817343,-0.012133799356905351,8.27
-0.16717979952654036,-0.10628712996596607,9.79661904018318,-0.005007193921182106,0.008796201699795714,-0.01071170278983488,8.28
-0.16229106481310462,-0.07091988259519176,9.87116333667113,0.01090475934674993,0.0009883551868368123,-0.0137135102791038,8.290000000000001
0.06146972904158772,0.10736428256334214,9.835830975376442,0.012048278571231117,-0.002142960074748588,-0.008537762195779288,8.3
0.13437934017349457,-0.1218150657058458,9.753014746842908,0.00494624434533311,0.0017604628761321221,0.005069684828344787,8.31
-0.14668514491461077,-0.17425475631433268,9.793748570371854,0.001145658718486753,0.02119650456612686,0.0089562033118014,8.32
0.03598240856920502,0.07801470079327333,9.917620659102834,0.0027981871118725105,-0.003961740251869021,0.016578531130226042,8.33
-0.11927158893774913,-0.025372763816027773,9.84375772021756,-0.0020293924194405033,-0.0005328210909736658,-0.009951280330106452,8.34
-0.03926616649191457,-0.0064528440452036664,9.915917606260946,0.01198754802172055,-0.01408555963634789,0.006455526014507161,8.35
-0.021840720335726316,0.13665936642164087,9.72336529190065,-0.006620765531503906,0.002410555215622743,-0.019911961325237284,8.36
0.2047720952729476,-0.010282106664764472,9.86775585839871,0.0042467621698255775,0.017535302446946805,0.004144475442660087,8.370000000000001
-0.06952904934644234,0.10532800658378381,9.79348277285685,-0.006268307152620872,-0.012431850837637197,0.007443334339611914,8.38
-0.1251142292062822,0.0003705006919069294,9.79354263559007,-0.00404573272526612,-0.0027329563419196262,-0.00012617289451811553,8.39
-0.06852216719457448,-0.1519540115750884,9.82533836204976,0.004878337545487083,0.0037857987307431487,-0.011945449310607772,8.4
-0.02773877095839953,-0.2226527353098282,9.739969007868769,0.009676353660692567,0.007439219361028977,0.0011945667423157423,8.41
-0.04041058280512347,-0.11354462531505538,9.755948477242915,0.0023121387004800503,0.0013542670363239592,0.0010228721542576739,8.42
0.1535869730936966,0.13894718147620563,9.71776650266134,-0.005075728792947297,0.004088298587758011,-0.004619795118329262,8.43
0.08031883635453485,0.047364273866607166,9.692511212535816,0.00016135403446203742,-0.026684210702932205,0.005390340788958668,8.44
-0.04328969433639743,-0.030953111763977456,9.60937619241143,0.007126055505090978,0.0076501358444746835,0.00816485653752656,8.45
0.16058723575602776,-0.0285873033213417,9.856687922900958,0.018197424833773526,0.00932835567710202,-0.006506259327870776,8.46
0.2907220185233907,0.004563985522577873,9.597566699035553,0.0082945422653287,-0.017145981311157927,-0.005310713051554097,8.47
-0.02780487182741865,-0.17974988713600681,9.711574123298362,0.006132219485962356,0.006170871749788573,0.0035842659629665157,8.48
0.07291240697482941,0.06926161900055235,9.91504771404809,2.8455028810820023e-05,-0.009346966309990804,0.00831886955252824,8.49
-0.10519534963338438,-0.174173696251274,9.851690851167591,-0.014496081377641606,0.017062242356032,-0.016519162038860384,8.5
-0.037590394665276645,0.022417056393305972,9.650287721269045,-0.0016678770545564146,-0.018856507499120722,0.013513207621216137,8.51
-0.04265562262342209,-0.1296379377785498,9.961413913708984,0.02186567934624379,-0.0035312413724371823,-0.0026110655413436063,8.52
-0.0453188607345073,-0.012419694160027592,9.87490325187506,0.017604692876478624,0.02034787956238474,0.00344114149135855,8.53
0.0008291411231080286,-0.15514189060460254,9.905747141338555,-0.0061090835937853425,0.0008033101230896654,0.00013062139575904542,8.540000000000001
-0.15783583245993354,0.09339015001530178,9.71122087690021,-0.007359916641180667,-0.014937636480819796,-0.01242857924373441,8.55
0.029860412710980434,0.13662768917086918,9.80127695912149,-0.0006644355537209399,0.0055462369781116615,-0.0040657815234182194,8.56
-0.1912528391432065,0.016125763961821478,10.016213801435203,-0.008086240857105383,-0.0015334580256442531,0.01940850162799362,8.57
-0.10808997635723926,0.14532968613705002,9.701497551880692,-0.0004890230934289694,0.010881650090206772,-0.0035167225672487136,8.58
-0.10332634153640395,0.10214317835496495,9.732775342835051,0.0033319316042142184,0.003735935782127121,0.0056779641532035815,8.59
0.10766758777675219,-0.08182786486130118,10.03750458759839,-0.012883870916063776,0.012211387945268104,-0.00541857821868279,8.6
0.135782587297672,-0.03581225388948114,9.783933835177848,-1.8664486941229762e-05,-0.024713347454483996,-0.01592752316279109,8.61
0.18568467793895735,0.1598810544718411,9.767252132036711,0.0050661025977884735,0.015360324624394838,0.012557517422538559,8.620000000000001
-0.0376219537720853,0.12299763988853643,9.782177976571724,-0.01606436555143888,0.015724977609257024,-0.003539874985318262,8.63
-0.0974881150800247,-0.026734808960498152,9.816042664553079,0.00028421787428214675,-0.007470753691510051,0.0021615075146735204,8.64
0.038207424345552556,0.023555041588457646,9.809001291658525,0.011302002258411934,-0.002681591184044533,0.0031059983727217545,8.65
0.023177585861206183,-0.26456269641479785,9.847938110215527,-0.009684594590145992,-0.000519196109123786,-0.0036753194215848697,8.66
0.014263932758747835,0.2968230017605142,9.909431351726443,-0.007875244431699733,-0.005265834052293094,0.00512491836496373,8.67
0.1018581407633612,0.025166191732543527,9.829441266739831,0.0025832499198804974,0.004364290844993804,0.009868041934734163,8.68
0.013860017496222614,-0.1738807085748768,9.583449778860048,-0.010775225680811039,0.015208656830300678,-0.005328133776191165,8.69
-0.06292918838764779,0.03510495318906083,9.914070000496494,-0.011494734646945429,0.009995731006384418,-0.025878351152852103,8.700000000000001
-0.018803868967259104,0.1219927544299167,9.935603022043184,-0.011183533151849785,0.02110937143785893,-0.0028701278736499697,8.71
-0.02655156890546442,0.07803576495903587,9.882028534937652,-0.010251462172509733,0.012963661735468103,0.004415905080234574,8.72
0.12029916856078621,-0.06710115784428387,9.879955684722589,-0.00914870279644653,-0.019287634525756683,0.0073551924205082966,8.73
-0.009515007493423974,0.028414637606949233,9.891742805815312,-0.005582347864464376,0.009422579787051839,0.007739935084937675,8.74
0.006411919336145941,0.24807512901666426,9.79306276038196,-0.006220194621176349,-0.007030644335236695,0.0015469888842205284,8.75
-0.1011366672106492,0.11726531346347252,9.830980282964449,-0.006670691632727899,-0.0021455286131342698,-0.0010860912578151453,8.76
-0.06967393817703771,0.06328336271940636,9.801517704802716,0.007821132954317644,-0.013917101284861658,-0.00015241444079454726,8.77
-0.14474542293388556,0.027062435175192842,9.881730734132539,0.02268982578404531,-0.013595712822246617,-0.016474399370955146,8.78
0.08068855934215635,-0.11147941632913803,9.7730940161491,0.004025833032506469,0.0039180350835308474,-0.007852201994130644,8.790000000000001
0.16897207039940468,-0.12105952585491345,9.710128685347797,-0.007708162663783113,0.0038021211388135096,0.012287633592799345,8.8
0.06608757039741435,0.03361274560730656,9.602426533699246,-0.00782782000268242,0.0006315947465294234,-0.004752203719787452,8.81
-0.13442471860721236,0.06196564789537598,9.879211550001592,0.0010715768008731188,-0.00841847785102131,0.009394177400502877,8.82
-0.14742430876004514,-0.09633515410132479,9.875243199156625,-0.0033937858608963627,0.004872907097982303,0.013661077871577195,8.83
0.0910402120247328,-0.10612356432316956,9.851562721326045,-0.0031922714614442613,0.003954594924474267,0.0069422442179595395,8.84
0.11496827571690318,0.06760768553137303,9.74073947814067,-0.014889757582664961,0.013412089519837562,0.000189371699279204,8.85
0.04880615515788325,-0.25327793022667533,9.864675487681467,0.004790591924559422,0.0073946698123415104,-0.0076001747461300765,8.86
0.23030666915452913,0.02656524723280831,9.703954528281146,0.0008508141811368495,0.0036312294847999998,-0.004455831444464555,8.870000000000001
-0.08609714450596995,-0.03582039621730387,9.786053012967633,0.0025786744219876375,0.013425903749364858,0.003088085080940439,8.88
-0.07466984808465509,0.037316477143817674,9.832929070630739,-0.004279990192629423,0.013713634267862136,0.024056624067550776,8.89
0.12674423549344968,-0.11413878183211344,9.811943441921052,-0.013928629186005544,-0.0052893010367581995,0.0009810589740300343,8.9
-0.016523143762368634,0.20288714613528752,10.001978529103857,0.005159587090304129,0.011613349485579787,0.007501944124294145,8.91
-0.10052902755203835,-0.07768750888017756,9.882003929002622,-0.0022995579937054355,0.00582804070499158,-0.003910157189065516,8.92
-0.055365833702255264,0.007697384868590081,9.926391940277922,0.003921291809836993,0.005403927082126231,0.005726007799881474,8.93
-0.10155285087725699,0.004229704564277633,9.805671054660964,-0.025387106074282656,-0.010391189564214469,0.0017476135177066235,8.94
-0.12137086603151324,-0.029943713552156716,9.8268708324475,0.012323579315317005,-0.008490543719189928,-0.006628531452396094,8.950000000000001
0.11943484460835004,0.08639272891195621,9.743851724124886,-0.006717296410230077,-0.00025071429625008514,-0.02312771839280754,8.96
-0.07799785197704966,0.04418707504891653,9.59330985787107,-0.00047430234098408235,-0.002068833974481844,0.007946700921199628,8.97
-0.04035946660907094,-0.04623811631537117,9.691303076460782,0.00206268568226787,0.003882364451396689,-0.003748596867463389,8.98
-0.12103020262460613,-0.11120683414232785,9.603572377817853,0.00017524450675930964,-0.018259815952694877,-0.01510581957863122,8.99
-0.036083784939386826,-0.006419250825859719,9.649008928107861,-0.03375548567285601,-0.0017271339591726608,0.006232712844046412,9.0
-0.1533468551654349,-0.17169030059536694,9.91182186575312,0.0018008993393450207,0.00042833284706096924,-0.0030508822569265616,9.01
-0.06749927059063027,0.03170015399671417,9.796447664240231,-0.022299349539812212,0.012536837725685293,-0.0102745589131644,9.02
-0.10961850762500797,-0.16588099982304536,9.606654749637228,-0.007461537841754208,0.008587307220127826,0.008950289338959628,9.03
0.15738227181184294,0.03513873901983869,9.852197751217155,-0.003388403333286999,0.0085942980134985,0.004580387567221239,9.040000000000001
0.17736103236612033,0.03262105515086878,9.811383811448538,-0.008505178492023396,0.004945060696224301,0.0019451365263510284,9.05
-0.07655751736189953,-0.09939694427200138,9.667322730662088,-0.00699819952354883,0.007713463662212736,-0.01032322065594131,9.06
0.011201069937953655,0.13367636946315284,9.832942870502237,0.0012882687940995443,0.0004577410578876737,-0.009239635976637017,9.07
-0.14526158863677163,0.06385357431500092,9.932380715804033,-0.018932576102193194,-0.002798529223055657,0.0031779776874665973,9.08
0.03924963984266169,-0.14269820615202744,9.826069926775151,0.007266006301347811,0.0022636150031213565,0.012824024734338585,9.09
0.010363242838408844,-0.12118541672647959,9.728676693396544,-0.004492566318018864,0.017920593549595704,0.00026504947268187384,9.1
-0.034456453888938914,-0.05924546281862131,9.915408998533211,-0.0036890799778632913,0.014595559529643674,0.00962374805203142,9.11
0.05177091361551779,-0.04436171160865644,9.98943460742078,0.001907142220198084,-0.0018900366725318242,-0.0002184473427078753,9.120000000000001
0.010710753871349083,-0.0687713721206544,9.890009101879523,0.01218948028293465,-0.02524119671542565,-0.00630592320992316,9.13
0.026361095134299614,0.16911838626286477,9.677012331825779,-0.013308161859206299,-0.010949685168641402,0.005139369230573879,9.14
0.24021329514975923,-0.12325864050852112,9.973757508179567,0.011320920851635202,0.01491909884591197,0.002687876851185873,9.15
-0.13503914429209996,-0.11338413623294293,9.822989615975953,0.016897814181993192,-0.0170307994591227,-0.014634858401787774,9.16
-0.07208136408295533,-0.09577471784858611,9.925981694521177,0.009754504411969052,-0.001544246610531531,-0.0008554587822000164,9.17
