ax,ay,az,gx,gy,gz,timestamp
0.2207530400288059,0.022889946097069604,9.916476948239575,0.0024656177588094096,0.018805675382181107,0.007118948954556531,0.0
-0.09583998407589545,-0.028904489013702673,9.7504677931006,-0.008381920503052696,0.0038910906387622764,0.0009333187748139043,0.01
-0.1442023745120541,-0.11924802500886691,9.810240031434029,-0.014285770121232885,0.020914652531277566,0.012190536957116388,0.02
-0.0460282484420006,0.16817506613645294,9.799851335888974,0.010502026578695348,-0.004851821953736437,0.004809913045714193,0.03
0.041881719266588006,0.12325996832807098,9.807616703350803,0.011936746925184665,0.007053113618409494,0.0058794455528285,0.04
0.14163259299428288,-0.0478772378788439,9.683332140510368,-0.010013143086968341,-0.004486225135209733,-0.019895861598697964,0.05
0.04147871979709942,-0.015391536767443332,9.790414267382587,-0.005487550634012538,-0.002108954411997134,0.004422528320238271,0.06
0.02370406805878052,-0.08359528667131935,9.72059477054108,-0.002079995302948693,0.00041893904278567036,-0.005126680859875353,0.07
0.06964114844974226,0.09853463668500598,9.72920707197174,0.010722043597930823,-0.007470718968146753,0.006008255280216451,0.08
0.1291485617034586,0.03269911445820864,9.984254915257669,0.0034604376144501702,-0.007033126164143444,-0.008531741793743827,0.09
-0.08722854686414905,0.036753706028978726,9.810596570383954,-0.0012276870098469862,-0.026828010284613107,-0.008103569531536741,0.1
-0.12688372721695407,-0.04523320925865098,9.76083855526169,-0.01002029159230961,-0.0035260051383933107,0.007567219063744776,0.11
-0.11110177389242673,-0.07888098927439033,9.661897358346916,-0.01578334285059192,-0.004710532587181862,-0.015206385228563109,0.12
0.03986100703936182,-0.10377173587078381,9.817363438263932,-0.010498204777431968,-0.0008181761786161431,-0.0007589242918653081,0.13
0.01732326630798553,0.1771499677811052,9.733779819651351,0.0006795517697567603,-0.0018125915293476192,0.006555994958468126,0.14
-0.01790526988970315,0.19271349440970897,9.961145540968689,-0.01604833720392687,0.005701871801328246,0.0034330866524327143,0.15
0.0066283348265962485,-0.09109265790923421,9.935959140350183,-0.008012564807936886,-0.018377577129098405,0.009940370165538812,0.16
-0.035982793711267946,-0.08520031422546082,10.000104818231984,0.008505560638244748,-0.007031509851188268,-0.006429717148365958,0.17
0.06518270271774453,0.30804071492572727,9.755198656944453,0.004847867640898469,0.0021960797539302803,-0.006383523870911104,0.18
0.22601000378629227,-0.07901370765712967,9.860613251241213,-0.0015824034730463215,-0.00284076748996517,-0.01255232417488986,0.19
0.18880237336451955,-0.13721159385954323,9.812087128587638,-0.0034201575482978625,0.02185168239596282,0.0015880879799186488,0.2
-0.15859133679257853,0.09384659056015662,9.877505621198448,0.0008013943783388776,0.005828706792957813,-0.002083467931024119,0.21
-0.13104706585407808,0.0909166179997912,9.635981147590677,-0.014612439502786208,-0.010788052097816414,-0.02082335326574949,0.22
-0.0024089670293926096,-0.2017949070691797,9.844325680469096,0.0010959560646943728,0.005766200023499494,0.01361301354425985,0.23
0.014771493527529015,-0.11878144429921281,10.012843705188363,0.010838851969204213,0.011652497044198087,0.00016749785030737062,0.24
-0.2581533389591865,-0.024851790888682213,9.665046384049733,-0.0047229860066025555,0.00352024153781506,0.004102150432840583,0.25
-0.17033745723760646,-0.030453739547748195,9.974373694594274,-0.020427317927298714,-0.013416073858517988,-0.007971447887571528,0.26
-0.04268038787311364,0.13153103798516955,9.941684343473364,0.011507082087110675,0.0024921612266493496,0.004854767814428716,0.27
0.0566873124317177,0.09600349604252766,9.997287488262817,-5.59870875940542e-05,-0.00023885091915871383,0.00011089929846408564,0.28
0.06527480509307582,-0.08412818201369815,9.746129408711763,-0.007930012698817504,-0.009212388438848864,-0.009126517786915485,0.29
0.16477690089901495,-0.005148248487096634,9.757056199198251,0.0034593317096600113,0.014782900231844372,0.027605616532966948,0.3
0.08293621798539573,-0.03478686541587131,9.510715280423891,-0.003161017302436476,0.015884488692251876,-0.0021084467301050514,0.31
0.039968046802206,0.01430733599669491,9.71196562534793,0.009222498105355447,0.002471430698734577,-0.007856828387670657,0.32
0.07872964252172822,0.08788335882706189,9.707047875459327,0.006801989533229394,-0.003271894306246776,-0.0051176513323833986,0.33
-0.023112858080310078,-0.10528939219968583,9.87171216887636,0.005101301285006568,-0.016247023422228432,0.021737670806604967,0.34
-0.076377815550835,0.04404727004881299,9.911911961305464,0.0013164139094910643,-0.006272979550327922,0.01084345283910968,0.35000000000000003
0.0380554929692261,0.1270515031189311,9.748083312241263,0.009819847194108602,0.01675744229095852,0.006497735621606411,0.36
0.11811820751689484,0.10719851107412635,9.97174116647491,0.0011021699785070073,0.005865254473777384,0.00891984354877693,0.37
-0.05989346516698092,-0.0993187565360506,9.723397010787005,0.0021961361828185303,-0.0021192666959089935,0.013631132446622212,0.38
-0.13442416524211145,0.04648873590594643,9.861612039290847,0.0042062501773108465,0.005774557298711135,-0.008662883208415153,0.39
-0.043809411717337605,-0.09341718246045498,10.005346371402062,-0.005358713825582481,-0.0011267572104569086,-0.010495905738201715,0.4
0.014662080079400733,-0.06840220356211056,9.79729693629634,0.016884370967661093,0.00276585767082245,-0.0010287477141969364,0.41000000000000003
0.022576205412858708,0.037627206535615985,9.747443196018446,0.009797136418232181,0.005638237660226007,-0.0019644474279408557,0.42
0.04017462354303591,0.07150265959557703,9.726268149756244,0.016816306054419545,0.007790117292527762,-0.01182833606065839,0.43
0.07627525652109698,-0.08440966723227733,9.606818608176559,-0.007683153536485309,-0.0022921260768648554,-0.0019904818020715555,0.44
-0.12825434489794954,0.011986433160851111,9.681651417828355,0.014337590169604302,-0.011174485957532147,0.013717471412451783,0.45
0.07731172585841967,-0.19815961876383473,9.932852999496106,0.0018333280769655342,-0.014457220064327026,7.927200926444412e-05,0.46
-0.1143343515906315,0.08724399970168689,9.738118935113487,0.0018125823369184056,0.0002617551034749863,-0.007978607758738604,0.47000000000000003
-0.12504241552447812,0.2198859024649246,9.83986591157538,-0.014985916507200263,-0.002588713363944981,-0.008716014631622417,0.48
0.039051050797428696,0.033083422643540104,9.828556685113176,-0.013478893175774742,-0.005590300738254056,0.016285598097360098,0.49
0.0985046216240193,0.0057403945482350505,10.067076926911389,-0.0092438343382402,-0.010756499976393708,0.007802256295464307,0.5
0.09806414639728334,0.10651500253172615,9.723132473284377,0.003585395486806306,-0.00844835593583724,0.005012101456960611,0.51
-0.11386049794726345,-0.14801811346275764,9.74615739846959,0.002156662326178779,0.0024405956460863145,-0.020470634190994676,0.52
0.007169311765640914,-0.12899488932181283,9.760208223386783,0.011152895005126805,0.001976041631823878,0.015692516653219024,0.53
-0.062073539018023344,-0.03358238370523229,10.01144368140158,-0.0014808445952416665,0.01576859813144754,0.007949509671167462,0.54
-0.025971509839957264,0.03166685452054364,9.759239019858807,0.01180336134598601,-0.0009524137018563625,-0.0064423860896387275,0.55
-0.10802951632918352,-0.013467971372252408,9.856799528618605,-0.0036695946644154983,-0.0015160315459286616,0.002354316102614995,0.56
0.03718189737628373,-0.08542199339629193,9.8938828171401,-0.01714253791419329,0.007609967563797752,0.014572737310782994,0.5700000000000001
0.03150097390621053,0.08136459962348486,9.832712462382382,0.011766923660113565,-0.011392928111215703,0.00022507560868830924,0.58
0.060525219240494824,0.048592350940049524,9.7186982524773,3.004416647696246e-05,0.0009613824101833477,-0.0009748022523953317,0.59
-0.08567505675883008,-0.0480441949832725,9.89630018818672,-0.010464931428059987,0.0145745714506033,0.007349299296275042,0.6
-0.033932352704038764,0.0010409727656868623,9.806774296880274,0.005247079645524342,0.01292325078115295,-0.002721570732812801,0.61
0.034848071418986985,0.008558135959216468,9.80881251158365,0.003943578912773497,-0.01625707672674089,-0.015495333082332337,0.62
-0.036241393587792506,-0.13618586684454348,9.73710990100364,0.0036298729067806294,-0.0004946100920407302,0.007022816479235322,0.63
-0.045424401419153604,-0.08082240434671847,9.738094659365812,-0.007706645161628225,0.006998427096785827,0.01808556949939596,0.64
0.026718493679708456,-0.17600339215283034,9.879955953678424,0.008321930642899225,0.015347190268723748,0.012279581218650764,0.65
-0.07100543176950236,-0.0082431916421736,9.821544072415666,0.0016232618166000848,-0.0025750777684879923,0.0035639068277465765,0.66
0.11768902617817714,-0.07987654675865023,9.913788822254473,0.007004600190057004,0.0012249667906776703,0.0051285062146438,0.67
-0.0782078652541014,-0.10151713079156006,9.78824280465796,-0.015355717540981655,0.004380540156571415,-0.0016486356504488754,0.68
0.005823889003508056,0.056907992392986356,9.858136544117723,-0.005936654191122733,-0.020331938055996084,0.01093523364540792,0.6900000000000001
-0.030298182808903562,0.08491982644323448,9.975494848798222,-0.004083272542007776,-0.0006961150651547801,-0.0041208087923707195,0.7000000000000001
0.13061279236648304,0.15893499230341612,9.763763635504944,0.014343666075046998,-0.010448294142812651,-0.00678581149206875,0.71
0.057805265137923105,-0.12400081152708922,9.846761911520147,-0.0019603583474204008,0.0011775207511062515,0.00711035489470755,0.72
-0.07487691441283904,-0.16108866172404396,9.64148471565299,-0.012013438502570703,0.0031905149178905025,0.006934390332704574,0.73
0.21730767630539594,-0.11202695387917994,9.76643170529609,-0.006071241180429731,-0.017846097397912878,-0.010741612497578233,0.74
-0.1078723913300242,-0.060348826816658374,9.88375760436672,0.0031342239322866665,0.009686192983895543,-0.002818850624956691,0.75
-0.03964259813842556,-0.045716449339545856,9.742379008191485,-0.00141535466928374,-0.00041717294778682276,-0.007185850017682009,0.76
-0.09424600873431135,-0.05288426568321415,9.68059981218837,-0.003973634415356817,-0.00013819831724201637,0.0072034342206562345,0.77
0.063812579076338,-0.10515926736203161,9.48355821716348,-0.0006627771785409515,-0.0019593419445407606,0.0062311831875916995,0.78
-0.08992846086391904,-0.04198910572579662,9.768442526162374,-0.002256430671064669,-0.0013593791057227892,-0.0020522263611913176,0.79
-0.014108740878481463,0.20204889054077413,9.979528701355727,0.00040433216326603267,0.009119407438066204,-0.014731854581016288,0.8
0.13997170120823746,0.11426833990319854,9.800757036218187,0.009040113848989383,0.0034110722616018337,-0.006098960300542173,0.81
0.045670599695394054,0.13872732307263816,9.702849782485272,-0.005321378546444312,0.0019485146382904831,0.014350613174969358,0.8200000000000001
-0.21416610036531714,-0.034737229445427925,9.896698784562362,0.010383339362789696,-0.014109654104574295,-0.019700155194976414,0.8300000000000001
-0.13772685619769556,0.1982741082557865,9.87487302842945,-0.005120054203132812,-0.009637194869201057,-0.0031486233242587953,0.84
0.1559282594789745,-0.06911075356654196,9.770164231893549,-0.01032678620883421,0.0053652502510859856,-0.0059860195837429945,0.85
0.1434078867326219,-0.02130563783692707,9.701937920616801,0.002280135973751079,0.0037738726135421005,0.008550564203350996,0.86
-0.05663960531866119,0.026138120887240546,9.778133194752408,-0.0030611607876808397,-0.015038973238379263,0.00388563567422551,0.87
-0.05794151294573602,0.19351456628035923,9.774177248800083,0.013016226185007265,-0.007997883183232895,0.010887614247371303,0.88
0.07510103614273933,-0.15872416590857252,9.891659206344688,0.014182009276591648,-0.004704167894282937,0.014673193255015673,0.89
-0.00465915135044535,-0.15908108680508198,9.86936490518549,-0.006361052326733733,-0.005585758906691536,0.006888501233384314,0.9
0.10225851090713954,-0.01720030219278836,9.689193734595078,-0.0008640342664726202,-0.0005286898372063152,0.011942422473501057,0.91
0.2411948686447668,0.04438182090573067,9.808322647817729,-0.018701283747055163,0.014107557752879193,0.005036516223621692,0.92
-0.030599365425756545,0.08822986267809711,9.732158213185933,-0.006090428768905567,0.000476113071406856,0.006054843621021476,0.93
0.013982897245478574,0.15839286615123846,9.838143212155355,-0.005468524400226308,-0.004271562665711715,0.01370823544047613,0.9400000000000001
-0.06874529847827203,-0.005030887091514017,9.630887703520058,0.001267886376489945,-0.008656715423850651,0.00466590402836112,0.9500000000000001
-0.14008556729257354,-0.021375924781232486,9.99429807057761,0.0003653541869270234,0.005515751989888684,-0.0016244822408704265,0.96
0.029849470835484095,0.09050470911594452,9.639272381453639,0.005884789086821668,0.0020605795461539314,0.003653035687934431,0.97
0.006736708614847729,0.1754219978318284,9.818021064511747,-0.0007360948022303012,-0.0038405472459859392,0.0027901590732686975,0.98
0.028643523660186916,-0.2007196904234482,9.830316525662218,-0.011169820585408377,-0.007246333484925352,-0.007921986355109673,0.99
0.029480171211143366,0.12127697156772582,9.75765006465605,-0.009856623506267351,-0.015385614623297877,0.012201497912027131,1.0
0.06269016940324534,0.1199138070520002,9.799189207071768,0.00898819038973777,-0.006544008522637568,0.005132060274251991,1.01
0.14000525547021656,-0.202978582189688,9.77736483250168,-0.0004983092321158047,0.010109882342891046,-0.03178002905773051,1.02
-0.016905600661748985,-0.23933472828703217,9.91820929853288,-0.007446999414973481,-0.002078145257264867,0.0019329466258978386,1.03
-0.15747457731305162,-0.059844714282111626,9.789341650286687,0.0046372157982568045,0.015485047678541348,-0.004049560408407739,1.04
0.06809551051505212,-0.05222054280494849,9.754102763282699,-0.00579252067487061,0.008720740254292888,-0.00590675674966779,1.05
0.054518821170867676,0.00978838471984961,9.759621649186712,0.0020827484266809923,0.009991758935215023,-0.005676340480855507,1.06
0.03454233462903621,-0.13809525022145394,9.998838424034425,-0.0028878768277256156,0.01685931864739333,0.015326991537917537,1.07
-0.1407768583680716,0.13493062677899167,9.813523242694576,0.0017129572794761696,-0.0017693957979423934,0.01495918229618988,1.08
-0.11423943986532839,-0.10281241930019287,9.947217909040111,0.007286736771912208,-0.006026199897657557,-0.008479273230833225,1.09
0.034777563471643444,0.11737649320914004,9.78237212141677,0.0017163199473837869,0.002198416365223475,-1.2139435092819863e-05,1.1
0.030225137907601476,-0.03580331894779631,9.736742034188827,-0.0057358447376836446,-0.01780278152362116,0.0048480035905342205,1.11
-0.027390974753061955,-0.08702764644674554,9.762947424762414,0.009511882764508563,0.0045633445084466125,0.0016566082884433737,1.12
0.1619657310445635,-0.07478153089153851,9.884596945004365,-0.004334139648256936,0.015399827623665019,-0.003455803168993785,1.1300000000000001
0.014653763386765613,-0.05600065846573569,9.703276549377085,-0.0019892854475759376,-0.0017279887540751137,-0.00424003913030415,1.1400000000000001
0.07023225685173964,0.10364281656773103,9.91543881507898,-0.015752215113133846,-0.0031502641273209583,0.003281678822515439,1.1500000000000001
-0.020451575803838315,-0.11473798785091299,9.739435149452449,-0.006019767159904934,-0.02098755284758577,-0.01067295877678504,1.16
-0.17580296189503863,-0.14584810642518484,9.761056979592345,-0.0011509633864385542,0.005550961483462693,0.004021675808183088,1.17
0.09094643742503192,0.0903285451536936,9.828801289601905,-0.011079166386551138,-0.017994643505829085,0.00858710803551913,1.18
-0.0023939524039069265,0.05515720745592273,9.729812765348099,-0.003276187130677325,0.001085857686669634,0.013723160739230281,1.19
0.01692788791672376,-0.15368121563695325,9.796140072074076,-0.008954478870826203,-0.011320569080440615,0.005213875885457861,1.2
0.057988474954802915,0.006745856981282896,9.679291332170479,-0.0012439332177554404,0.00737050356068541,0.017387673111135413,1.21
-0.1402323884401435,-0.021643595880791955,9.782012531616997,0.006338762804780617,0.0017877754326384707,-0.006804199481088779,1.22
-0.18567063458149063,-0.003985092266120964,9.87438142595997,0.004722193193757091,-0.00538442956420435,-0.0038877086409591743,1.23
0.1846601328291642,0.12083880628414874,9.703596977179423,-0.020320192105526047,-0.00420072682036586,-0.0003835666720271008,1.24
-0.14546963259469617,-0.11206146728490624,9.920749719869521,-0.005071764833671015,-0.007779460462226728,-0.004428103940603344,1.25
-0.0945243932320793,-0.19188849191349483,9.72927703265475,0.0015319718076882139,-0.006195414716365004,0.008694896725799805,1.26
0.12091646106977955,-0.05934041631329504,9.730468715250344,-0.004915461272424944,0.010130755988775999,-0.0004961034519882549,1.27
-0.12492060962056986,0.05891849758603082,9.90985957771651,-0.0026729805256177066,0.0064295081871175355,0.0004708357114617692,1.28
-0.04570418318036937,0.02190242466099144,9.821371194096862,0.013986068338663466,-0.0093504761504068,0.005762895945361652,1.29
0.07172731281223338,0.14824762081094364,9.725902218703201,-0.005041254595519944,-0.015048809013646096,0.01612141383285056,1.3
-0.1265581124641567,0.06812262991174925,9.82085117688433,7.284725841456327e-05,-0.003008614119042616,0.006021270209015335,1.31
-0.15336471155434317,0.046882493168897456,9.707618077159111,-0.005536298694079107,0.004987787654298823,-0.013382223131322058,1.32
0.07963684412582794,0.14606077001764659,9.760178231230682,-0.012780071537534372,0.0020165410338528968,0.0019603730274086253,1.33
0.21778695487788147,-0.21205174524371173,9.862429903968225,0.011559365585069249,-0.006348817928125712,0.002570986304090548,1.34
0.04924894526429997,-0.04607010004682377,9.92591166619628,-0.0022825567958360154,0.0041795128678482965,0.004383330499870622,1.35
-0.01627065340612265,-0.11619518619819594,9.77129294488349,0.007798350226614772,-0.005225587170188604,-0.0008997359919973851,1.36
-0.059818674281001474,-0.044325695571864304,9.842817209266988,0.01021094499010411,-0.007389938418793924,0.017708624266826744,1.37
0.13333351773323204,-0.01611602796973251,9.818881647427443,-0.008253778175718967,0.009499186566110086,-0.008555444225404647,1.3800000000000001
-0.05048849116873852,0.050141286310796854,9.784412925193577,0.006032552951250223,-0.011334749157516692,0.01241693383356912,1.3900000000000001
-0.002838067763657642,-0.08640944268755202,9.585626466127916,-0.0040587156866506435,-0.0003993678569049395,0.0007886280239423348,1.4000000000000001
-0.13187053443138438,0.04685689898857563,9.903579907598052,-0.007313993687771652,0.009153643303543802,0.0033849904707967727,1.41
-0.057433127097054705,0.053524778370143355,9.850501334355473,0.01396653905103574,0.003613868250391554,0.025156013025864003,1.42
-0.016702097006298138,0.14965359883135784,9.910651100140912,0.004766374742883646,0.00649624701392186,-6.707160500269937e-05,1.43
0.03914948165300716,0.12881270925558294,9.645217259924697,0.017439498845333155,0.00732368579987319,-0.003270849183178286,1.44
0.14211597647195265,0.08019659105693458,9.875572223602338,-0.005372973260052912,0.004503623349129208,0.006237394775679067,1.45
-0.020065365340500522,0.17162143852937425,9.869445446792367,0.00422291390317273,0.016027524780976993,0.021691160894165628,1.46
0.1542434694165927,0.025352027738292256,9.92696486270429,0.0009718046625583772,0.0026955401320553833,-0.0014605116059645958,1.47
0.00828654984182416,0.16395932549442674,9.966537656658529,0.007681109128800522,-0.008310153160342393,-0.007202100233567975,1.48
0.10966071673011571,-0.009924046997341127,9.976127187002394,-0.016603437715480066,0.016604678780101682,0.026650132542608916,1.49
0.039461506252197145,-0.003035493573133108,10.033522371473879,-0.008984481961028464,-0.010341626190446387,-0.008730247899212801,1.5
0.10358461304466349,-0.17218587057462004,9.724997863861622,-0.004514348698717576,0.004104191640628202,-0.003925220776783106,1.51
0.02421718760411308,-0.3061088771585856,9.830639282660705,-0.006478551759445064,0.005351193575328883,-0.009548934996272358,1.52
0.019826377724769115,-0.07043946696899472,9.823857079117657,0.008294605433399764,-0.004673943140429221,-0.0049200575011924515,1.53
0.02811158088983148,-0.024928583694281015,9.74413229651175,-0.013294214776020089,0.0193206655175611,0.0035422178197164578,1.54
-0.12597326851335,0.04222259109735751,9.726662854255142,0.011615804201207868,0.01908254058958658,-0.005093631685432699,1.55
-0.014363327553615864,0.05060268277301443,9.844459832091498,0.004972420599110676,-0.0011895486945067708,0.0012249379774039594,1.56
-0.002329631630911561,-0.09489633836238066,9.652914233774892,-0.0036234498363768453,0.023922261952008278,0.01701025891503846,1.57
-0.04748947090843042,0.10974831609912039,9.920313670487547,-0.004593450515870493,-0.0052180170971498265,-0.006052286054708378,1.58
0.046476704480901285,0.09202642449110049,9.727730038960704,-0.0026271255802682476,0.019239781161850315,0.005167086279061856,1.59
0.09310590975113205,0.10700874834770918,9.79978350405627,-0.0026572299426212125,-0.010132265289703792,0.008863839174348414,1.6
0.15226254753001797,0.09492885817789225,9.604190523877108,-0.0038989683792185034,-0.009352891238945244,0.031132630880032104,1.61
-0.013238496097667527,0.05786382499039655,9.830826784901914,0.0010295115657180695,0.013330129663861448,-0.005964094964073303,1.62
0.0037458882404893274,-0.0689472812741249,9.903777956934741,-0.005784772644452019,0.0012551845989987422,0.002951058759518274,1.6300000000000001
-0.05200577952279831,-0.01580776818464998,9.849761656113749,0.00830387337472798,0.0024212601894737003,-0.007595077679657854,1.6400000000000001
0.04137862735210435,-0.16454915292540528,9.749112400064917,-0.005696148292612034,0.004496965339557107,0.01698674063230459,1.6500000000000001
0.1823283310446428,0.0843226316632894,9.748301000546213,3.405830230473464e-05,-0.014277785033673765,-0.022317470134178913,1.6600000000000001
-0.13761147892350506,-0.04938479653008276,9.954315540255921,-0.0012907679327219437,0.0009341117419055252,-0.009534085790881998,1.67
0.05594786038840569,0.18033149947661672,9.969685381994381,-0.004020805535752108,0.003052294678087209,-0.01847990123856972,1.68
0.08456034612759,0.08180708703854082,9.824346618704162,-0.005830812445135392,0.005667920437110702,0.011352365041419578,1.69
-0.0025092111300798405,-0.17032225730535053,9.839151732713853,-0.0002101526533172355,0.0010363480598380112,-0.004788475945613484,1.7
-0.006263573883134025,-0.05489799642828846,10.01375257608644,-0.008314478751592896,0.0010458312968627623,-0.00706326119478862,1.71
0.11129238693375786,0.059598556545752274,9.750228537253276,0.004295450422620019,0.001994694635429958,-0.00572563897768141,1.72
0.13248385060294,0.09948209674391198,9.910025501705993,-0.01140997257597276,-0.01782148045315995,0.008001976468745287,1.73
-0.04898069423432845,0.04760396661777906,9.865856209233497,-0.015546021971733342,-0.0007160597324216308,0.006415938381994925,1.74
0.07822808817005476,0.02775684319821689,9.796844526863111,-0.00021914344323827308,-0.01575966131008472,-0.02208844505543023,1.75
0.06741557920229273,-0.09407607214670019,9.679144164594003,-0.00974907946241656,-0.01797076131954721,0.010675715828654904,1.76
0.021971082401527994,-0.21959050883544365,9.961413923182834,-0.0075612736427523985,-0.0028245554490025277,0.016195065030972924,1.77
0.07516437656594921,-0.1452925155486113,9.94946153697687,-0.012716011888772923,0.018360008743981887,0.021539593041264973,1.78
0.11041333105149252,-0.08008709017679538,9.611252946147255,-0.01055289133580121,0.007202617485662663,0.0030413753775731453,1.79
0.029528281606056906,0.11383678053661204,9.687103255493065,0.010652480708449746,0.0048103712570774565,0.0009990533828599132,1.8
-0.03615831334014444,-0.01902247696993881,9.868432906803541,-0.012521755957602496,0.00013371562326649372,-0.024231287288139978,1.81
0.06297490230807448,-0.0017468336384145408,9.761735852700474,0.02137253083035408,0.0006710905758536627,0.004312580228569832,1.82
0.036367192190189114,0.0009419779625855706,9.97286852725055,0.005360392099208561,0.002941985262316846,0.0028160079770081546,1.83
-0.15245348370414435,0.031055776032672303,9.887544729905056,-0.0023589019637924816,-0.014541711291561194,-0.0084037119810868,1.84
0.02893602456400793,0.03040013003635931,9.939379144169038,-0.008401460782365968,-0.007187878331372231,0.005150002342093674,1.85
0.3112732840709966,0.15023813452463966,9.906372269797119,0.009883674151764282,0.0014805935882094207,-0.005494050967382615,1.86
-0.08590548882229934,-0.07274513611088529,9.869422044301164,0.00297736369540845,0.005744278183277275,0.012619716698306322,1.87
-0.11789950143611079,0.16493037649159858,9.722130270041957,0.015567958155281046,0.013080673405307946,-0.021204772325026936,1.8800000000000001
0.11478103455222888,0.05334170332561627,9.724585323476573,0.00555990595517221,-0.012582027775418588,-0.004360687456935329,1.8900000000000001
-0.11110108832326343,-0.016779836540278942,9.787655966709728,-0.015832786776831535,-0.006883344276871102,-0.0019484935065417037,1.9000000000000001
0.04414294449202442,0.02216857834456649,10.040235840983707,0.0008642778709510072,-0.004050342929074768,-0.004231669707407024,1.9100000000000001
0.06925335983048861,0.14982632659698455,9.929754268870209,0.015793195607329315,0.012717104023921356,0.00231118027366467,1.92
0.0987170619771297,0.1838742527753464,9.780412409926454,-0.0022957167281823327,0.0033756424110354365,-0.00022582940061379012,1.93
0.08138849705917711,0.18025211044989953,9.87522610762074,0.018562669950737635,-0.005685965361982882,0.009246452138481477,1.94
0.19016813797352816,-0.17681672051885472,9.94522003971612,0.0069023427356552204,-0.012017685892783849,0.009526651099469118,1.95
-0.2032459506885519,0.11096412375300053,9.911158725607867,-0.0021338128133573343,0.03017611467042677,0.0017090903375053782,1.96
0.03558067410763836,0.12199231606312533,9.788680384586254,-0.008422896231306144,0.006279087536405321,0.002080890288540825,1.97
-0.009320757978800496,-0.07050797988746525,9.764631901550228,-0.006527447094197684,0.005924621320974403,0.0024325722629572667,1.98
-0.044910872192183954,0.23387525061301734,9.906664855130007,-0.011791708252179527,-0.0018370008687839982,-0.01738476907506846,1.99
-0.0716651469941796,-0.05749098628482821,9.707288075079743,0.006776796236344083,-0.008472544987999504,0.005302791374288655,2.0
0.05218647383587736,0.013697682540081944,9.794276224790483,0.0013746928096130843,-0.012832298456450167,-0.007706019711609053,2.0100000000000002
0.006724727125139038,0.10416194098700936,9.921942130359518,0.003891082653281575,-0.006652550552712759,0.011458615544963713,2.02
-0.018470603324802784,0.03965731218693658,9.876021767228979,0.008390371025519913,0.0022911295214144266,0.007907491558164172,2.0300000000000002
0.0071291163139085584,0.20443872953951986,9.910455217010986,-0.0068734151957622015,0.00649893984687896,-0.004829737762275915,2.04
-0.07755394363361133,-0.08460477324406729,9.613463992215314,-0.005560251356650168,-0.0071036092990252285,-0.008003511559091455,2.05
-0.021350178330736463,0.0765456040560693,9.79884827407594,0.008564132050971382,-0.005204959202689186,0.010594627821607283,2.06
0.03807514427174747,0.001704557287236901,9.855710093971762,0.013360960898020333,0.011322821732284502,-0.017833193593639093,2.07
-0.011768342404709826,0.028637315470924653,9.692265619459196,-0.018466751831477567,-0.004413417458202047,-0.008402538378507681,2.08
-0.03652556344826655,0.030976491722379457,9.698157876471067,-0.0052821611784905935,-0.0022383190150113055,-0.0037243593231820436,2.09
0.05639464205022045,0.11780161067522042,9.762321270456773,0.019411664447911255,-0.008877651996998038,-0.0015209005650391827,2.1
0.036330936232614984,0.07218286866706634,9.93380821801481,0.006413698647833166,0.0047693348180344345,0.002737176362844267,2.11
0.04216345528454096,0.0689826274195425,9.86186615979469,0.014201664957131599,-0.006398239680945827,0.0016232392226511114,2.12
-0.03204639750530204,-0.005285558914065793,9.828431386300544,-0.02299328670004663,-0.0006802664228058545,-0.02004378184772539,2.13
0.031544293797157216,0.08893514004757996,9.736538170335702,-0.00788873141500564,0.008342917300228448,-0.0035714578533004395,2.14
-0.27696370822372535,0.07985079369269087,9.767823359008315,-0.002532057648304379,-0.0009276224159069522,0.011883133043533315,2.15
0.035783870496450286,0.01999758070016093,9.760572325378538,0.01852435428797734,0.004499932980193615,0.002256911754386817,2.16
0.09907892371224436,-0.14376399503482779,9.878823475300493,-0.01321274856475194,0.0019627062092980175,-0.005876020160079527,2.17
-0.04023377227262384,0.038293742366832494,9.65318736955949,0.002714309148530386,0.022878240630175718,0.005124677978427075,2.18
0.01878703592332205,-0.12964506504675466,9.820671513547051,0.008319813389402218,-0.000595490718088268,-0.0039793675797774476,2.19
0.051303936560010636,-0.009203506712280412,9.712380522358785,0.01866601875979388,0.023635286257300204,0.0016910668574157226,2.2
0.053944185752836354,-0.05874794565278851,9.60025756873769,-0.017642109268543583,0.010914359819324251,0.002099305198895409,2.21
-0.005186710022080394,-0.12304902024052332,9.916454804748565,0.01250692477857317,-0.009725461577044743,-0.003961506505828101,2.22
-0.10397182944492933,0.03996216575935485,9.75255976432691,-0.013750653470030334,0.016401343649138533,0.01121010111108642,2.23
0.0504527766296099,-0.05466267084692589,9.994339044489044,-0.008383126363973635,0.005128785288662439,0.017840385299825182,2.24
0.011267246680180911,-0.12148821820284626,9.590042704149493,-0.0006107244968340599,-0.01063511579623431,0.011917500914302933,2.25
0.09785079865568115,-0.09061791135938622,9.950097431557605,-0.010120950655541075,0.005242823823449905,0.005061092125041027,2.2600000000000002
-0.10944165506254233,-0.045330826566908525,9.934983374712719,0.0016911899132920247,0.017106079561094677,-0.00046467559054403203,2.27
0.16976244430681336,-0.05842812829247406,9.576291082047177,-0.00036486537056839685,-0.01092602668860032,-0.008947069257338588,2.2800000000000002
0.03288039691380828,-0.1572075971653049,9.864769656449923,0.0023885788093884488,0.004659240984000349,0.004624262670514459,2.29
0.20721952318884737,-0.021960770329289902,9.85938002633212,0.016592376693474912,-0.002575664173878578,0.001031247122296168,2.3000000000000003
-0.037675721283899476,0.01632175306811835,9.947730274219106,-0.0052435069759097916,0.013205956246082675,0.0018226138955166266,2.31
-0.022425042129322083,0.03170838390851297,9.68506103576916,-0.0141395985018983,0.005674643660472637,-0.0030770369059544196,2.32
0.08818598480953575,-0.06391339857207669,9.80031103033693,0.0015617093667009794,-0.02734593364520891,-0.0013015308604074237,2.33
0.15820694394343093,0.027922759923397357,9.772719543714512,-0.011074344607191595,0.011282696385739237,-0.014295534155125045,2.34
0.09828070045692332,0.1517179119533493,9.648456045756753,-0.001973789794545709,-0.014486854805968655,0.006529434951082831,2.35
0.12173209738846719,-0.1851227555334054,9.737217829522908,-0.0030766166072941302,-0.014662039451630261,0.0040994281633262575,2.36
0.19320978249232848,0.08429977066475258,9.884965073231744,-0.016875777693404755,-0.007496572251564209,0.0005647730407183953,2.37
-0.0035981881036680364,0.008715192884116024,9.706101478033089,0.0003146641068250622,-0.008081141770483153,-0.002606656541077643,2.38
-0.1208408620127368,-0.13788641916276012,9.768925790117397,0.0014219104702416438,-0.004462002209782629,0.009042938594266843,2.39
-0.06576062180355212,0.11112471818609858,10.016572682314642,0.020966297714476428,0.013977211152566688,0.008248865638427508,2.4
-0.15060884663984914,-0.036446288286328274,9.892680542385536,-0.0023475298433086253,0.012591110873357616,0.007470167463634282,2.41
-0.0531722413283999,-0.059009615918557884,9.663427474877304,0.005441765735207244,-0.002108221852560168,0.004867594210748826,2.42
0.009513389987102607,0.09888054858217693,9.727801225063898,0.009517101061091384,0.0057726839025161935,-0.006101452394681555,2.43
-0.09126466263387543,-0.014438379369103539,9.912553445538501,-0.001988835007316409,-0.0015502231359199195,-0.006246270907790899,2.44
-0.05335489277907102,-0.041375135732827986,9.881036897442684,0.00774347405134212,0.0003984256558813947,0.0009995834762117138,2.45
-0.04246531703248303,-0.037539858657104686,9.956598775783155,0.01577371208132059,-0.020584173234054697,0.013619774413858612,2.46
-0.08305339070835417,0.09609704564613158,9.914988433762117,0.0031101191649347023,-0.00715188987347713,-0.0010996419757438006,2.47
0.04467991401558147,-0.02108767155417519,9.906431799720172,0.0013225785152332311,0.0009320708832849096,-0.010540474339961525,2.48
0.08253132260850898,0.09280027641440666,9.809975534985583,-0.020252925522323276,0.011174703493876706,-0.005897034491567358,2.49
0.04195360555249079,-0.1722168270735532,9.778645484763569,0.0013936062926292378,0.0012628985145366448,-0.00726501996900695,2.5
-0.03544932800775257,-0.10342993221218953,10.09773233961063,-0.00688998733892593,0.012263486716399468,0.0008647240442646412,2.5100000000000002
0.004599495999653184,0.09248352337733806,9.911822832885369,4.036141162039307e-05,0.0007535386572851609,-0.005685923996864194,2.52
-0.1291683436659385,-0.03743216433696582,9.861292720809617,-0.005539283303536763,0.007753226964043739,0.006405727803438544,2.5300000000000002
0.12584657165556254,0.10237235424100109,9.677471600313826,0.005268042081329567,-0.018245396014687883,-0.008622780612661822,2.54
0.1572537894124826,-0.1232670727088252,9.807753487286973,-0.004881703993241047,-0.00037693919759680813,0.014944831398891315,2.5500000000000003
-0.09672398135292737,-0.029850148429537617,9.730307681636745,0.005917910829604224,-0.02075735374815209,0.020496922942666793,2.56
-0.12378523755844327,-0.10369895766062219,9.768025990195426,-0.0019208873954077472,0.02079560018953704,-0.004941207108899346,2.57
0.0913912320447374,0.1349791582438912,9.662797725017116,0.003804419104704794,0.017323243111520316,0.0026854000986519543,2.58
0.10588754630962396,0.08158659052520585,9.811982829028254,-0.007925017695629736,0.00574740897787569,-0.017102140594633487,2.59
0.13566389325050524,0.08078289410669398,9.778545739715863,0.00993230936761973,0.014124406686690063,-0.0013663134365956547,2.6
0.01629744835457426,-0.068928742779778,9.772382310481325,-0.010510856591481382,-0.00695606222010049,0.025738924539458412,2.61
0.035913483463309824,0.15345056641040686,9.856773884330682,-0.0152452996593449,0.006054089977612327,0.01213750626968303,2.62
-0.07397315746024116,-0.13734878218984564,9.933398884845445,0.006458597168051106,-0.011445457810001837,-0.002131534003565234,2.63
-0.014841376141703786,-0.06717397275775809,9.909437521957367,0.012876181498388612,-0.010752135827952359,0.011310360731691178,2.64
0.06467493552999097,-0.01894608977079569,9.891969791800204,-0.002092108774750556,-0.014626565139714904,0.00980271442430092,2.65
0.008763640970685075,0.0925675197870054,9.790265826815004,0.006285989779750959,0.004067726015710215,0.0176337018547856,2.66
0.10543228089453963,-0.05087545687292834,9.822199312580022,-0.010667359337787232,0.0053650096224480606,-0.011177692764729082,2.67
0.022735744449809917,0.09335262952433176,9.739040972472615,0.00019118473263511244,-0.009335652440017238,0.0009763611653262126,2.68
0.03545449445769807,0.022271662728318074,9.710634194372977,-0.015162872380199486,-0.0032126890083699856,0.008994399370231802,2.69
-0.04450447204132813,0.005901122568898221,9.746552477573374,-0.012312312770983016,0.010142269006592309,-0.00019852220258060365,2.7
0.08459441956871462,0.15573575012788143,9.912859927205556,-0.005763092646121677,0.011284374601749737,-0.0077661333875362,2.71
-0.0372591961582406,0.03583683386951978,9.88901292796049,0.008830395629986552,-0.011149855522741217,-0.004761726495233121,2.72
-0.051164920888481395,0.057007414256267874,9.690939867051576,-0.02063652974986463,-0.011528598292309091,-0.006221888384804884,2.73
-0.03575855072632405,-0.005779948993387116,9.776557644451827,-0.004177556035984098,-0.004100861381615569,0.0029593705958236853,2.74
-0.05366243135126887,0.08864835658177686,9.716966558831583,-3.6294420967850743e-06,-0.002906129880598036,-0.0026903897695408244,2.75
-0.08254351964813109,0.21614280893146998,9.58706988158722,-0.024152253145630805,-0.01850675981111694,0.0073648697413547,2.7600000000000002
-0.029503431765289287,-0.18725731666953144,9.7278863155985,-0.01714761264507416,-0.0019675625497068893,0.0031972882862138304,2.77
-0.024737261777371785,-0.021727999403855697,9.81119462391744,-0.0030620057408281068,0.014307131775087785,0.0033968749411753063,2.7800000000000002
-0.1788214581609276,0.10160958810445848,9.900080253519837,0.010139164657970013,0.0005206781989745021,0.0053485399585690135,2.79
-0.09673501097378666,0.0732133655040537,9.661569091242702,0.012425124308055526,-0.006776893659729222,-0.002416726861933911,2.8000000000000003
0.03975126978262421,0.07017013869288646,9.905430603822017,-0.00870488343738296,-0.0036567643212672024,0.0035762788292012433,2.81
-0.025221520976399372,0.2073855890071218,9.793994075528314,0.010442725186059473,0.007447466937127978,-0.006147104086463449,2.82
-0.07102708415629552,0.14874079963402026,9.77334225629641,0.02361259558570235,0.0012766951311187482,0.006768005653671274,2.83
0.06281190292578998,-0.1203984782046481,9.83286757111315,-0.012380740413162743,-0.009089525988687595,0.003716016630592336,2.84
-0.1471645299300752,-0.1797821968251527,9.791753874746133,0.008361332115478341,-0.0014650450904838037,-0.0029865721760767234,2.85
0.2660807507546912,-0.21550974678872198,9.851084539631053,0.002346758571732093,-0.0017975886626412807,0.015067587539178971,2.86
0.05491466083356964,-0.01600859943390999,9.805700867399567,-0.010497445918244214,0.01677430665886479,-0.009238029358570642,2.87
0.19543806224619506,-0.1097497644715007,9.788908715836074,-0.018129316411683846,0.000461937638429908,0.02590537676504748,2.88
0.05506814919357544,0.06407073286975097,9.879530744291023,-0.014314184276447775,0.017680543198604907,0.0030798369028667417,2.89
0.04760540310162739,0.08434018654476606,9.83872199830756,0.000963695753166209,-0.0025053935154706404,-0.00724156582268087,2.9
0.10344565141273206,0.05277840561435995,9.761032747018605,-0.01915817507226477,0.010694973599379381,-0.004184900846402613,2.91
-0.020050302145435274,-0.018639047657038107,9.94313635578575,-0.005863031719717962,0.025916163369733437,-0.002623250886498,2.92
0.08440790274010206,-0.034694022370014704,9.75921062197923,-0.0044033387189996035,-5.8177783481354e-05,-0.00026143098539998166,2.93
0.1489260131828055,-0.13111309738379603,9.911664587823633,-0.008968165028232968,0.0034629870797646635,-0.011107459434884105,2.94
0.042357424269103376,0.12703695413013805,9.831986511262608,-0.01008325298701943,0.009694682115847127,-0.0020840752626793933,2.95
-0.0008789024127311047,-0.22767001946781706,9.99900490784501,0.0026729633851411768,-0.01049533960101612,-0.004035001521497915,2.96
0.007879019957987272,0.1626840525890718,10.04921819242281,0.008779904733106818,-0.0004494496368762911,0.0030191194447459486,2.97
0.023891679864103385,-0.07003436301027248,9.84477260720487,-0.0009719592368674828,-0.002680636707916862,-0.005872625491764668,2.98
-0.05324834199857227,0.08201291238050616,9.738276007104098,-0.004460513538627458,-0.00830684953741712,0.00453992704673171,2.99
-0.008436756824348227,0.034704327105806274,9.992832686071756,-0.0026796892127628623,-0.011157423913133676,0.002013390935919688,3.0
-0.2645984052848386,-0.0217022629323494,9.817970476980632,0.002283484579824115,-0.014813537748059678,-0.012910411342263603,3.0100000000000002
-0.13394683479625522,0.049215728830947124,9.870896823769295,0.0042422460052385985,0.006675473855568729,-0.006232425086556443,3.02
-0.12653070092967522,-0.022865303055809957,9.773950295392545,0.0010608358740338132,0.009870562606015678,0.004319922439460989,3.0300000000000002
-0.22088114654826196,-0.034484941989449985,9.976895182780236,8.88737952664113e-05,-0.014461320286887904,0.004301681520512554,3.04
0.12781528006173645,-0.04736613262768915,9.832231105619657,0.0016452688580966106,0.02601115899936536,0.008754451400165134,3.0500000000000003
0.007655529960099675,0.0797143513326052,9.668982566332444,-0.0016827394516163397,0.00772917885796005,-0.00024023289617405017,3.06
-0.03252062973959631,0.02807501139925719,9.631702080018727,0.014402578691054366,0.01955436070799236,-0.011294869112169018,3.0700000000000003
-0.027660861002872773,-0.21095387415780473,9.818883603080694,0.0003498581463651813,-0.012394928566117722,0.008393096374297634,3.08
0.15225253562730143,-0.08231351307545841,9.726828266362528,-0.017070414303461498,-0.004925018724084538,0.02121970417468043,3.09
-0.029290000600667134,-0.14534926884489455,9.932147491047335,0.0014988133583145667,0.009211385779236086,-0.001478119223855803,3.1
0.11043164322258346,0.048920155430445166,9.640761584390521,-0.005031198670676255,0.012290443545487917,0.006600125564688832,3.11
0.00738222351138301,0.15736058493351845,9.845855003772925,-0.01601841622302235,0.00835887452730067,0.019581495205498445,3.12
0.1265878010534188,0.061324494557767464,9.81244132109687,-0.0010731924378777427,-0.0017460559952613068,0.0030345827514662,3.13
-0.16564345260650815,0.04595714009314974,9.802172246560623,0.018709366748341713,-0.0027459960018900295,0.0074950584161849266,3.14
0.02162413620988486,-0.026324093750696886,9.763696755421693,-0.007014527396233156,-0.005386800390752302,-0.007109797696467304,3.15
0.08169577328787783,-0.048913551000895984,9.914680419077932,-0.008439203905628632,0.011342854460539445,-0.0002776095785271923,3.16
0.02860648160849243,-0.041091302446352757,9.690282426789572,0.0003869548358128219,0.010576707754299529,0.001711601472876218,3.17
-0.06763222392990409,0.037810465821538554,9.882839787325135,0.00495012084890677,-0.0017837769477454127,-0.0022186477015193255,3.18
0.0821243046987154,0.034733292212400936,9.879656231125718,0.015129841080570266,0.007950049817055611,-0.010441143207574291,3.19
-0.026683546861894548,-0.03571259267410375,9.740020529971165,0.003938857077815984,0.0003407306743396933,-0.015323377675835453,3.2
-0.10081976383545949,0.07403640248214577,9.980493304755951,0.008401877868502312,-0.00546616504553233,0.016344576888320892,3.21
0.022090690159049464,-0.04104504880562125,9.812089529786078,-0.006397435002114457,0.01724484244431205,-0.008466648151877,3.22
-0.09114515470039801,0.2031499223948391,9.724464721958277,0.007796853955017821,0.0003615530086730184,0.006032284766701296,3.23
0.017519076009485657,-0.08797063801644013,9.794048796193016,-0.00750478836540833,-0.015458450225441865,-0.00878396077669141,3.24
-0.06121110200407044,-0.00099040162097829,9.949177615362542,-0.015632681036571276,-0.011880557479637309,0.01002291544810248,3.25
-0.12855937394191072,-0.005646979963302337,9.84319368651602,0.0041049295272047445,-0.007244312886547135,0.006724777325603534,3.2600000000000002
0.08268079049349648,-0.015058227032287937,9.772017758272783,0.011213640948984496,-0.01352101011504558,0.004303630002052623,3.27
0.027804266479696887,-0.06845460011634703,9.840203442858908,-0.00010022424817820838,-0.009283743773042967,-0.003454569960557169,3.2800000000000002
0.20320618839352292,-0.015723839749164924,9.71136708073314,0.0018892602987513841,-0.002030984345853347,-0.007913796212405007,3.29
0.06688047841356093,0.17422427965024712,9.891678555497469,-0.008001055538141734,0.0022247528017885474,0.004160868035044697,3.3000000000000003
-0.16124528753535028,-0.0012649846241099304,9.812962287853539,-0.0025963158468185333,0.004520187749713286,0.008846712722373657,3.31
-0.05515794850676058,-0.2282671078378151,9.809658050438445,0.010406513030069847,0.0038261554195273334,-0.0013746534639373692,3.3200000000000003
0.06958325221597979,0.18854286095641581,9.76683934053443,-0.001993614092780405,0.014061572504266751,0.0017526950963694884,3.33
-0.10830469671794041,0.01877672101155497,9.919176702330121,-0.011936329933863003,0.003590448994102927,-0.0022861657164861765,3.34
-0.11807775852871216,-0.06996878531922601,9.822639480781216,-0.004234926455750408,0.009291136731265793,0.01121180465569756,3.35
0.024327010896209054,0.12424421125426222,9.669447074226202,-0.00031785121547263834,0.01306877145697857,-0.0016523493022848185,3.36
0.1542041111091001,-0.0735100962750571,9.935450382899848,0.017496004498046003,-0.0005000558241703255,0.01170953131401614,3.37
0.06337228521490693,0.03021957101437327,9.752135668707425,-0.010239675517626855,-0.010968651425272416,0.0023410387235546994,3.38
0.0005920007710931054,-0.11670122652608153,9.775460276336029,0.013838866864801314,-0.0052072737251504485,-0.012963438026697693,3.39
-0.12943699727182317,-0.07833626001239297,9.872568149026822,-0.003385730076461898,-0.015436774724991812,0.0032510040408864085,3.4
0.049217025495857,0.08334475318747461,9.760275050493538,-0.0016611511734559007,-0.011754655614711947,0.0018608749264309658,3.41
-0.0016220177716554252,0.06384437016629925,9.676014101448633,-0.01318301221820035,-0.009192739048482763,-0.002038061122011837,3.42
0.259484273396636,0.12153214069053497,9.84230701637431,-0.00845703256181028,-0.002977921721990807,-0.00503957130807942,3.43
0.08746592304719839,0.06415528530632487,9.822438935484998,-0.01436713893102858,-0.003418349415027509,0.007770516629890191,3.44
-0.08875384418626836,-0.06242470007412174,9.732460645926487,0.011150337026760023,0.0010558304296990496,0.01108851446789776,3.45
-0.06869101797772807,0.057465564457914224,9.872431912056378,-0.009297871249881367,-0.0008119793087837378,0.0010675926198894753,3.46
0.049982747583800974,0.01159055760690966,9.757463668512427,0.004412556891581238,0.00832930947770795,0.0055626217995204475,3.47
0.008802802287945364,-0.0511179701385052,9.804828017963215,-0.0002745809956607617,-0.002388526963918365,0.0018996851114363915,3.48
0.12936402437727676,-0.06819068363917018,9.852289084667548,-0.007980733738947978,-0.004677968879015547,0.0036802412334591516,3.49
0.005471130712161642,-0.15075754698032273,9.941457869360928,-0.019475968847045,0.0018623978189791757,0.014563362998371628,3.5
0.1644896862937687,-0.14114003142637674,9.726999542606029,0.009932089698199325,0.022318890788931105,-0.004941486737978757,3.5100000000000002
0.008738445717170964,0.012548948534789335,9.778418347377352,0.014633171360719613,0.0036267641416104814,-0.0032141655208749215,3.52
0.014592328886321974,-0.06539488611398034,9.59333306071265,-0.0017004402864295653,0.00714869728517776,-0.006015548072490376,3.5300000000000002
0.08695554095129057,0.1452756946884052,9.891967328470807,0.0008721838811763057,-0.011137750769662362,0.005133296944304889,3.54
-0.11698714393590609,-0.012227052928727368,9.84313291237817,0.0031456750021031754,-0.015404746494127599,0.005381588357353873,3.5500000000000003
-0.06017404566574807,0.06792371334687443,9.827807418398631,-0.0026819145942991434,0.01608384569648301,0.002512973707031721,3.56
-0.013636992670191639,0.10184585402529274,9.785170755849807,0.007371138578158433,0.006428708916077259,0.006068952970525904,3.5700000000000003
-0.023903394520997184,-0.15485240425135371,9.900063432544425,-0.003431898280771757,-0.0036081573831367583,-0.00308527108185647,3.58
0.0905171398736204,0.01056482245553705,9.671207311358527,0.008650557375831602,-0.01294657785110916,0.005702739787337809,3.59
-0.1384990115199665,0.04474169711919837,9.73174428097466,0.010210436502420579,0.0050298683232352995,-0.00905426200067365,3.6
0.10980801962721734,0.08524042077672689,9.835330286867912,-0.012823566793465427,-0.007263266042192173,-0.004292714406187406,3.61
-0.06658636531746706,0.05276358158468378,9.859766556958244,-0.010803771755685525,0.004081901881549398,0.0018128392345038743,3.62
0.12164648087742075,0.21758361540345952,9.85234134541286,0.02086072716797677,0.00346710029966809,-0.0018151017032927259,3.63
-0.023107265757093397,-0.10424152276419618,9.947881976677351,-0.00855306277406879,0.008054772837306573,0.005240051421155155,3.64
0.009886035697048434,0.019122200111660964,9.814876983664696,-0.002915663720397708,0.0178021298698404,0.004834609848924232,3.65
0.010139879497022546,-0.12776624078966273,9.816753105347532,0.0018361590436999896,0.010765346076172825,0.007487596908958722,3.66
-0.20625054448676294,-0.12264954506619691,9.834001017287807,-0.008068957056749974,-0.008399871454628819,-0.012657260073288022,3.67
-0.05288255951672354,0.17940175876004916,9.841220061170556,-0.002015222462846128,0.008741498576509204,0.007845561461798798,3.68
0.18628148599196523,-0.0856639005142922,9.73913234646737,0.012194944669585088,-0.004905382523310474,-0.018783983719809424,3.69
-0.14748890282513483,0.09113717299694961,9.881055671153375,0.009899012703481475,-0.016680960430949774,-0.002103041092762007,3.7
-0.05277662789294131,0.013846001306344322,9.929150390305283,0.006385291496344992,0.007820938654705973,-0.007648875984214786,3.71
0.05761250539651416,0.1415742484702759,9.617885722738704,0.019574704559176603,0.006781474396490806,-0.0016221830731607205,3.72
0.09093916097151045,-0.17533789725476756,9.964184424945234,-0.0025337366274639636,0.002624993534619037,-0.0006126783506851499,3.73
0.08339915589568876,0.04067464109101354,9.767858320521665,0.006843587069542549,0.010596674613650941,0.005115676225446797,3.74
0.04333376479702789,0.02304477760353724,9.814437883356423,0.0011540306660252726,-0.006048877650596129,-0.009445220342612626,3.75
0.08831629621489036,-0.1695839889381912,9.915750051232022,0.00770836910495885,0.0063347086296719245,-0.004158693854517519,3.7600000000000002
0.1494580914908555,0.06206099085170968,9.900464355847557,0.003146948440582454,4.1553571578918026e-05,-0.004945178485328136,3.77
0.13306521036177596,-0.09950557649662578,10.08562934513735,0.008636877141926362,-0.00502896885693322,-0.012051935982454314,3.7800000000000002
0.061169330735651985,-0.10192363165998225,10.051181356571185,0.019176736512009934,0.023062728009877683,-0.0037725761426636536,3.79
-0.013611210791212268,-0.012097656151373065,9.670282495907975,0.009845045271448447,0.0006570636724714282,0.002836841469144854,3.8000000000000003
0.16108442080711083,0.01109179252051099,9.694887782728363,-0.005309409656164368,0.00040733408513315375,-0.01305853711251448,3.81
-0.006549028396106361,-0.062473729034349806,9.74904592441377,0.005808871945185439,-0.00023937993287574205,0.01654166968338927,3.8200000000000003
-0.08150628968821627,-0.04352607156174172,9.792466367089784,-0.01244319584324242,0.004802280869441519,0.0005592867486330445,3.83
0.1105969301203619,-0.007567307099404271,9.699570015096556,0.023087956455885683,-0.004752237484242692,-0.01761512215060825,3.84
-0.01499333199221962,0.02580575185040905,9.674364316373788,-0.017224771036497215,-0.012187057737074717,0.006572930493639716,3.85
0.07443303961331059,0.01760327170078009,9.830891617953865,-0.010619479479324068,0.01430159624336828,0.005885564838955971,3.86
-0.05069863264911123,-0.07520322845297048,9.877045400129852,-0.015545515991563504,-0.004095891054069785,-0.008835635828544599,3.87
-0.20414830681317078,-0.15740547400797,9.938203698255482,0.0018749882374415924,-0.00121994827806309,-0.004259922111365406,3.88
-0.013491597981534416,-0.17837392679251787,9.886312147194182,0.015006040335522773,0.0012224202375656584,-0.0030409902088290044,3.89
-0.1302882224345555,-0.2232244593287275,9.745582881874666,-0.012324837140423902,-0.0005689011937133683,-0.008462369827601809,3.9
-0.11244138766400705,0.05611400671453096,9.842507904420444,-0.002573052899545183,-0.0037739135009692676,0.001576977447346673,3.91
-0.08630036781320455,0.2092436315136896,9.958463818206518,0.010608831039703398,0.014843179706859869,-0.015719035920719854,3.92
0.026618277059034967,-0.03140182660358945,9.822257697776159,0.009476351909847587,0.013605088884984823,-0.00839062182267927,3.93
0.05077469535123899,0.05580353478015827,9.755606634978841,-0.012529891371611281,-0.0014337053008623938,0.003967348248442168,3.94
-0.02730696289877372,-0.028586872759373196,9.859388898702987,-0.00394621542431504,0.017673058918445332,-0.0025024862479988276,3.95
-0.10666995789486422,0.04278468885846096,9.745668675774324,-0.002717814704984469,-0.008530159919291526,-0.00764327582185556,3.96
-0.016541866232865254,0.1716313525649058,9.747575705407172,-0.005504236530266218,-0.005371637583593871,0.028601498886926677,3.97
-0.1941952614940346,-0.1317809377029623,9.724799383268204,-0.011234040486458775,-0.01333411436689181,-0.007074208288533659,3.98
-0.03952129601833556,-0.17759345335484258,9.759957249162035,0.003615547887554605,-0.010410459193144378,-0.001036168997485242,3.99
-0.039556497782425426,-0.05355751590922397,9.964419186524664,0.008652807862005665,0.021234638292913496,0.005656711755922837,4.0
-0.10314202779005044,0.11042450186680977,9.902458229927152,-0.019948684160588714,0.0052925183182126094,-0.007016420173597318,4.01
0.01713316643609798,0.16942767511498805,9.833665537133669,-0.001173906533842651,0.009764836028861258,0.006472878756403519,4.0200000000000005
-0.041409684755492,0.0521965578564729,9.643488966499891,-0.006428766885555287,-0.004887593984088133,-0.00704032435043362,4.03
-0.05406054186605006,0.1341217610790366,9.870013823631648,0.008741261632888676,-0.007890165286889387,0.008568975386032619,4.04
0.08616704268571027,0.011397099622837241,9.720650698070166,-0.005670133725935387,0.004338802562686348,0.0029159664136402534,4.05
-0.11883411402202165,-0.04864326456078402,9.888342342718126,-0.013081678318970499,-0.004098123592253773,-0.008453287723246961,4.0600000000000005
-0.04160808172587949,-0.15227003216695006,9.827027250111023,0.0002913839264706623,-0.008193355802545375,0.009268339526892516,4.07
-0.11344108410073635,0.03439328770584818,9.813532130993362,0.011925048101300772,-0.014978187014269046,-0.006016928220268196,4.08
0.030970894567865528,0.06883058018110545,9.897870436624444,-0.003489040737632732,0.022639027906916343,-0.004290939746282181,4.09
-0.06955995073705684,-0.02822382310060036,9.933186781649415,-0.008953684057514531,-0.013908024146265829,-0.011351744345560003,4.1
-0.05945489506522546,-0.06608294089818671,9.895860721590621,-0.016749050314371235,-0.008303838145355763,0.006685462704804227,4.11
0.06368146168908055,0.06224711067030453,9.716248516791095,-0.019493309573605868,0.0074929251257962425,-0.0010987666825554047,4.12
0.035878121280035195,-0.0004132047669503983,9.83638629070205,0.024583710904098454,0.012337843882181641,-0.00516783631125606,4.13
-0.03463421860643585,0.1375420888471328,9.804177309357032,0.006326796685558344,-0.00390060756214342,0.01904839820737155,4.14
-0.07521341783146719,-0.008822038550178584,9.858625196110498,0.006510961840321984,-0.002947929114499267,-0.0015517712497305006,4.15
0.058872777475586884,0.1411650787419567,9.840944400557724,-0.00598293736104485,0.011938111271285686,-0.015203715564419205,4.16
0.11774456363377912,-0.10010080546031389,9.68339832313695,0.001972015045055154,0.0074453157574396545,-0.0024610998106214268,4.17
0.09536608191721692,-0.034303421685375514,9.89126081765709,0.023415206538844945,-0.016470239468010114,0.0037197367469115096,4.18
-0.08105277350560464,-0.08552771112291485,9.871484013753449,0.002180218621023538,0.0007602171987577241,-0.0110728226855151,4.19
-0.10968332885174036,0.010071156010176774,9.869009291902634,-0.008544720073441078,0.006537398900268701,-0.00013709902038990343,4.2
0.09833471064674475,-0.028214058293910566,9.787183405788914,0.019196803911196627,0.003144051053451333,-0.012673282810235189,4.21
0.0648297149025907,-0.08314318607834699,9.801360234485118,-0.017401602655486098,-0.0005987459327306506,0.024560551219036674,4.22
-0.046316840805184986,0.03996473618717774,9.759203954466837,0.008455336081515533,0.007739170998640299,-0.014688128344194234,4.23
-0.0061167177325523224,-0.03968116375203087,9.821886570217963,0.005331972533214339,0.007460985558430559,0.00033964489342576344,4.24
-0.08750147722190665,0.08348122379297071,9.763676205339822,-0.010145449981816188,0.010825939257829247,-0.001901945871592241,4.25
0.10969867227412966,0.011140378938830152,9.784753633242934,0.0032816071771281947,-0.002046328445469594,0.012903898548877647,4.26
0.007338160970775705,0.03513081877106652,9.779945474158932,0.0007810454376892942,-0.011348195124771683,-0.005734796990413712,4.2700000000000005
0.09058377857701921,0.020004087953098246,9.790786717412255,-0.006374404107327312,0.001279403268264487,-0.004767177184600373,4.28
-0.20838007832392416,0.05774701796492448,9.502776450162711,-0.0025616600183124526,-0.0036630110123152455,0.0003508760310021303,4.29
0.06335123590344839,0.15751943152376305,9.78857642877806,0.007437911437232464,0.01020262235722039,-0.008624724139758306,4.3
-0.0077350120316106805,-0.01914031120929675,9.980229454699561,-0.0038457647481906073,0.00989561558010872,0.0012530530823698987,4.3100000000000005
-0.11178953675714842,0.13622811402572163,9.766172381636531,0.010109886817254726,-0.005064241613280185,-0.023511713476919327,4.32
0.0373652012328179,0.0738187613186401,9.771678721525134,-0.010200363576950817,-0.005226203114048169,0.0089557517565067,4.33
0.007070593133414075,0.04910491745997686,9.704014055238556,0.005091449390566205,-0.005587461857117881,0.010657219652914883,4.34
0.05240593914041944,-6.500523602958355e-05,9.657949014578321,-0.006684860480570494,-0.010288761285091055,-0.004406142601626962,4.3500000000000005
0.07044820163420035,-0.11375142110280229,9.739935966724433,-0.014804297396118823,0.017641333192893318,-0.008723930173067683,4.36
-0.06948614321441597,-0.06723841587308836,9.694634732913329,0.016455681245470363,0.009765801417585044,0.007396092250331511,4.37
-0.052814624077295515,0.002159433433651278,9.694606840879304,-0.0030384098714978385,0.002634900015760176,-0.006675100220413285,4.38
0.09028049823991086,-0.039675233054740265,9.992974517784162,0.0034967788417642896,-0.0028651520382604995,0.0023332948201500122,4.39
-0.01870829414732118,0.028466710407893194,9.779293103281649,0.006982527765317587,0.011139894822404146,0.005421496832355183,4.4
-0.10943922077182539,-0.02060212260601539,9.776517795989134,-0.008002976831445243,-0.002054289491760629,-0.0018567649137996023,4.41
0.10194557920636677,0.06059215376847624,9.921817339198515,0.0013131868248237903,-0.014798677854970573,-0.0041232141902816455,4.42
-0.007214273708143055,-0.07039901477275207,9.86248443837911,0.01360305626678473,-0.01335640487654625,-0.004827698566752074,4.43
0.17785267227643373,0.00096970078575096,9.936837443260055,0.01051378746586932,-0.013535534666737155,-0.0042466121631082,4.44
-0.2884448060896898,-0.07032224891469009,9.689067238529637,0.0033040544556382774,0.0007612714847868255,0.009006044040567145,4.45
-0.1137733386139961,-0.058078013711626464,9.931036623863056,0.00844351375745617,0.012652796248934275,0.004958238699322442,4.46
-0.013109019571363331,0.06259552367971885,9.873902493950645,-0.0006709393704710194,0.013864071005799498,-0.012715261275123377,4.47
0.04621765384609567,0.1358773265635706,9.756350193160944,-0.011756799054368943,-0.0036452101538550215,-0.004164979116997508,4.48
0.06029891120568224,0.00813951845707243,9.949982075242758,0.007128965630529442,-0.004011849802449988,-0.006136884934516724,4.49
0.022711263756089964,0.0033791433975129412,9.910053171358369,-0.005438677848134088,0.00421560537726193,0.004243902323233726,4.5
-0.10476295632919436,-0.05532208018750288,9.959673634533953,0.013226074786039248,-0.023470531264327736,-0.005511051784037828,4.51
0.12418893457046885,-0.01336429791529866,9.800734706580533,0.005605328953878379,-0.006122859870266068,-0.005568295112509314,4.5200000000000005
0.0942747213932938,0.06910008751970137,9.968710651509927,0.0006128492355760083,0.010238209158171528,3.646033952379598e-06,4.53
-0.04984204232342981,-0.07275775817729636,9.969714579675756,-0.012221189763981857,-0.01812461492992271,0.008799963753025008,4.54
-0.07048087821323476,0.09886762788311941,9.843547094357442,0.008522996567213264,-0.008026947558783956,0.0023072382648345723,4.55
-0.06392956347572853,0.07480651009749202,9.66715736219164,-0.009020394718152141,0.01694093746539679,0.007657919364456978,4.5600000000000005
0.011932991282859176,-0.010021003364101813,9.821894407835195,0.002059045880434259,-0.03280300046122766,0.017732605668075583,4.57
0.022030382949365206,0.0043978135020882525,9.837533952798717,0.0072073084070632554,-0.010308955143325516,-0.003829922692035805,4.58
-0.1827585252499545,0.014797769621675949,9.800445519221823,-0.01449315380609031,0.00098199844165502,-0.007578007655470786,4.59
-0.037742934425013544,0.021734088695910727,9.66118412084047,0.007536848754502202,-0.012248309525632826,0.003423783515835232,4.6000000000000005
-0.02112887799783126,-0.23231588343518983,9.727064202112699,-0.0021901691055059565,0.020042675406796114,-0.008413965207207266,4.61
0.12668125265302196,-0.1939817896069563,9.667614007523154,-0.0071649535326363725,0.0031399806547009156,0.01193868742009814,4.62
-0.06322815564364925,-0.011606899013612955,9.771534512607433,0.000835930469158995,0.0029481972755179653,0.012395270697121001,4.63
-0.12747242489699684,-0.010606678496575652,9.85846934110084,0.011217058418060007,0.015577907781504276,-0.013036917861698468,4.64
0.02156295483073598,-0.10426892609539332,9.712116645838234,0.03171611104860938,0.008921760890673513,0.006175904606021254,4.65
0.07050625767190144,-0.18242789170942209,9.783992767843676,0.0029007186572258888,0.008124054091248023,-0.0010873376840414338,4.66
0.2433625852847171,-0.1689069522499292,9.860140748692674,-0.005232617474314947,-0.0032153284507145104,-0.0013539189451123328,4.67
0.12202268219129989,0.03488625764290785,9.757778905891646,0.01294457642245888,0.005369686271435782,-0.008010917985790268,4.68
0.04801653498328659,-0.06689697244923572,9.689405963296526,-0.010295673462733579,-0.01126767146958645,-0.006927668873346712,4.69
-0.1606947484010223,0.013612621352269644,9.799440673237267,0.022925705825839086,-0.00993089455245194,0.003423863536360766,4.7
-0.03316348891602671,0.05407342671143276,9.653447699982975,-0.019000090790207126,0.011307508896773129,-0.006408573168841367,4.71
0.11377032213075498,0.005993884916781589,9.799148285385197,0.002559129847362757,0.0025962702612701105,0.0008477495137078459,4.72
-0.03853071169435642,-0.052133783848876486,10.00009378360808,-0.00565979430082858,-0.004662287570102993,0.020313512867884315,4.73
-0.1095048015125944,-0.01927202231746003,9.787644881066552,0.015987358123623525,-0.007093723989180991,-0.007319510574854999,4.74
0.008496631515656203,-0.04252632902189373,9.885622523902779,-8.777550468769442e-05,-0.00829760459367601,0.0010840523129909034,4.75
0.04045415645263974,0.03983580874290036,9.95294966131256,0.0030402705044674807,-0.00813629377760863,0.004966044015045202,4.76
0.15191051869929428,-0.09129462439212353,9.70956752979174,0.0009336482928072454,0.007209355080875879,0.019859835846343626,4.7700000000000005
0.06978043109157213,-0.08079402382477291,9.762882872953984,-0.020501477424529214,0.0013215040761955094,0.020208196381322336,4.78
0.02671100468063676,-0.0033684058362928233,9.691219707373468,0.001717390832188733,0.0060343692136237675,-0.0158641147435974,4.79
-0.0956655362075597,-0.012735799647569582,9.86819241750794,-0.010684158130457462,0.0076426886379555425,-0.011697877962646075,4.8
-0.020519317397429102,0.032442397553231576,9.885366194084417,-0.0019240940443963905,0.006590171982138546,-0.00020990207040139,4.8100000000000005
0.04940974003744886,-0.13196736465036446,9.71770694877042,0.0063093603017958765,-0.004211462669181812,-0.005010557881721398,4.82
0.257466461257311,0.12249691810925795,9.801475922848816,0.0075363997073182535,0.0010082801076901468,-0.013227219294303197,4.83
-0.27565621571065624,0.02436255870511636,9.774143189364242,0.006161339092531933,-0.0016738917464832648,0.00517174789222929,4.84
0.07911944640395112,-0.040579246105065386,9.76906222230755,0.018505521379060804,0.008238673484372917,-0.007510926534176082,4.8500000000000005
-0.25950895782773453,0.15933466319104816,9.791169417397645,0.007341350178954432,0.012240675531536783,-0.012256455844768822,4.86
0.07282795211743735,0.03099975389354668,9.873588710476433,-0.003759526713748379,-0.006756854090436526,-0.004037172682965036,4.87
0.0030065078109056892,0.027488876878669424,9.907946689783891,0.006403184371581707,0.013676466153356602,-6.788756791828011e-05,4.88
0.04812777270475919,0.1207420793723594,9.76419671655851,-0.01272295329724263,-0.007765820147456086,-0.011176568702828127,4.89
0.03213925581373737,-0.0989039477951808,9.907085734401996,-0.012781149913196684,-0.00905750950938383,0.00517702773175454,4.9
0.019006338974178437,0.010888645225760059,9.666870879515502,0.012759946876485205,0.00974777577039592,0.012388893881587962,4.91
0.06901524118681056,-0.12563412115385483,9.780022399488558,0.002265119130178603,-0.015898729734749033,-0.014516268218975817,4.92
-0.06608639861428445,-0.050025388605291356,9.998977182666648,-0.014120110816562267,0.017286314717070452,-0.002984908515824396,4.93
0.036676833131841474,0.04154598948583873,9.76410308309457,-0.006227551810848101,-0.018592297396552465,0.006941959804997721,4.94
0.11566068952450426,-0.02141532171124387,9.85158589022507,-0.0007752933629836534,0.01776853857898789,-0.006194383113777282,4.95
-0.061984641936640175,-0.07177894497974743,9.723152909191027,0.004587242327553068,-0.01341084733895096,0.0025088408320585484,4.96
-0.02645274753814933,-0.04503206106488219,9.960489118978348,0.011050158015183793,0.0032312640667165834,-0.0013088115720806775,4.97
0.04845194676713032,-0.047468218453094874,9.85821836010365,0.01564502691838217,0.0068378952440103025,0.0014857067989235884,4.98
-0.16496794276902185,0.05607338176671629,9.716597727205544,0.006914595725592088,-0.0053050104287545585,0.009800572500895359,4.99
0.13329408401635184,0.2209798232884228,9.912855944053817,0.0027460498914444126,-0.004385943372955793,-0.002985173944348267,5.0
-0.11607603831338797,0.10585213219701112,9.94283282034244,0.026947554200581578,-0.004203863109508365,0.0016989794184744083,5.01
0.07442123431366407,-0.09227309699099945,9.89738667212974,-0.017328066128544532,-0.007584597567165377,0.00016207721690890148,5.0200000000000005
0.06627476511425007,-0.030662263399491185,9.792802449944034,0.002950004070772229,0.01864160917746557,-0.01360139713682977,5.03
-0.07017383562648641,0.026786055674527933,9.758985694268835,-0.001667975682727363,-0.004760376856033655,0.0017913375797759018,5.04
-0.07182637492478171,0.02664827374898069,9.566432580385598,0.0053389876134658475,0.00032963724667099936,0.006270064100783424,5.05
-0.11268958057372827,-0.22139739087585122,9.851881033295415,0.011866698325529534,-0.007007206253392719,0.011685906561379529,5.0600000000000005
-0.04854161110448779,-0.12448041261914158,9.9462802371268,0.015327532900461485,0.007390915349594359,-0.007676597440475339,5.07
-0.03401424880794702,0.02507687484702465,10.00375701972823,-0.008889448265950227,0.0005358867989951971,0.017221172859405106,5.08
0.1561244709244124,0.12660232894384957,9.913310110541184,0.0023275673654489953,0.008101461524151851,0.007790667445194817,5.09
-0.11041816097702746,-0.08346396072904572,9.851380927506193,-0.0019989229200184865,-0.0064618645811259055,0.012132806660908808,5.1000000000000005
0.012082411343920026,0.026576200993729954,9.808785779598322,-0.020051998444412807,0.004479324044339559,-0.015362286708835951,5.11
0.059727961981821245,-0.22476454622152967,9.648605862261627,-0.004015205786001577,-0.0007497529154782107,0.001756746785175888,5.12
0.15761526074746515,0.02606812067503993,9.805032829320767,0.019802481674212113,0.007718896214829799,-0.00556128589498022,5.13
-0.028375526623102856,-0.08349452910400984,9.798799114278394,-0.003941550898595289,-0.009858461943144735,-0.005396622259738445,5.14
0.08342540208438005,0.024607130496992587,9.852011221018255,-0.000397274587370383,-0.0011066539703136044,0.012417643903614542,5.15
0.08058833016135225,-0.03324519624467052,9.79270648943823,0.01578251095964109,-0.009278021259524658,-0.004401829772171939,5.16
0.08337198773939304,0.02894078540903415,9.809303647681588,0.014850088004117024,-0.018072053078241,-0.0008520483334994467,5.17
0.0330940767658191,-0.13799333968331193,9.676697988875086,0.0028167396009240882,-0.0005425025854789655,-0.012348557911174219,5.18
-0.09195902158602548,-0.06416685295743428,9.636317337544398,0.006385264269954944,-0.0018512608458946286,0.006672614538660162,5.19
0.009551128723652564,-0.0669961571560123,9.866617752520614,-0.009892656393817532,-0.010831755087015869,0.001762697203827745,5.2
0.07091624694163727,-0.041158570216795504,9.601234365743688,0.0047280075634331025,0.0038257385545263263,-0.02426086313296139,5.21
-0.2246673623270019,0.04528430827400082,9.853055006160014,-0.02056289474293799,0.013938366924561671,0.0012273600716507466,5.22
-0.09576044331553803,-0.1139570989833265,9.758238667723885,-0.0011632952818678196,0.01355178377447798,0.011156832680586912,5.23
-0.03425381575281898,0.10980056911369543,9.760422566173979,-0.00011443941882087461,0.0030941990720463903,0.009366870471244413,5.24
0.02854323558655252,0.10434462227570816,9.681902086890203,0.0013051855588252807,-0.004795494123805719,-0.001601536065318065,5.25
-0.018749548260153872,0.171266085876701,9.968079229842584,-0.008870838120116294,-5.582223537994615e-05,0.008464613056534617,5.26
0.027892545955090137,-0.006994737739885708,9.920305790667394,0.011114404103172368,0.012339413574878064,0.01176613882587468,5.2700000000000005
-0.22988449210833584,-0.03877180775073612,9.63737049933331,0.007355470093465392,0.015241745652719964,0.004060258145419037,5.28
-0.025508963273381115,-0.018664665456933318,9.804831986247029,0.0004098039887080397,-0.011057261630491515,0.007323819986056578,5.29
-0.05274876961546635,-0.029346417124060654,9.902688092002748,-0.00215886033762393,-0.009995296068890174,0.001052713612289414,5.3
-0.04874288841614948,-0.03284501723192185,9.714013650501679,-0.022120818631557772,0.0016537258658913553,-0.008993551992499009,5.3100000000000005
0.11153408108723042,-0.15693115232179156,9.825854083691679,0.00987027107974285,-0.0036935171488117037,0.013082037854968236,5.32
-0.058491218127743105,0.05834896885717472,9.823189182550284,0.013642417957587772,-0.004002125607006202,0.008196808518184853,5.33
-0.24054230072686786,-0.06807129425945496,9.832268314508337,-0.015437292871898442,-0.008572640117328703,-0.0015171721662974712,5.34
-0.09873235542678017,-0.11541402583937706,9.76454867381663,0.0031298584379460905,-0.009744993924062003,-0.0012455641347711383,5.3500000000000005
0.12111364384599757,-0.05416810661512261,9.886767151445158,-0.013920157536347457,-0.0003841230852843282,-0.0031985960575929805,5.36
0.012264173836500546,0.02906872292348925,9.92833121403662,-0.0007374170524904733,0.012357280801220597,0.002026603601377733,5.37
0.20065429663640397,0.11404029462326698,9.935744624909088,-0.010268446150387784,0.020272909807235426,-0.005908323972213437,5.38
-0.01592157222024938,0.07810832296613934,10.046954293259247,0.011415600688106152,-0.016335592680716608,-0.002862634473082044,5.39
-0.10289036027743861,0.0269385009730159,9.777626710372308,0.0024157099566470123,0.012016063579495558,0.005663934510314935,5.4
-0.029525837954398094,-0.017996728028661462,9.659081208994406,-0.010339374413868226,0.0005171023304084454,0.013581109189283722,5.41
-0.015696645364372937,-0.02866478377149176,9.943656500580023,-0.005510618739486798,-0.010547331251040976,-0.004072880626452452,5.42
-0.11830462085842791,0.019828666917409164,9.79134665242232,-0.00674334590280067,-0.0021075900404525223,-0.0010570456295170654,5.43
-0.05748057494773021,-0.1826366641978201,9.65077226932494,-0.018658426825077915,-0.015016800880942592,-0.008567471891931982,5.44
-0.2434962186858014,-0.07809172045218354,9.781193703163433,-0.009583901944861977,-0.020342414954945095,0.016835926273736587,5.45
0.01126108112222541,0.0682371408660892,9.676530018133546,0.032729725327440076,0.012568049760724613,-0.008194487191090673,5.46
-0.07337209559926082,0.09765869765153651,9.568224604635772,0.004059760748920794,0.006426355624554833,0.002590355803201745,5.47
-0.09316194568402275,-0.15211580658158205,9.911632362033407,0.009111622527164121,0.007832004083821618,0.013439781372767369,5.48
-0.15525146288313943,-0.07071399293804971,9.897320000647424,0.026267535489230852,-0.002003224202302764,-0.02440774868839082,5.49
0.038419327917279,-0.04470441343861725,9.877537770133655,-0.01405305193642424,0.020614085226860496,-0.008323538891622809,5.5
-0.05593275815371488,-0.1699877656908404,10.030329928411554,0.018393567507859455,0.001086574671662836,-0.00782010025643015,5.51
-0.09545879644059868,-0.015221356130916403,9.915475920798604,-0.02426527104102905,-0.0023308828357598075,0.004137763224117556,5.5200000000000005
-0.0789860631210045,0.058454634624100825,9.816825017973596,0.002091723331046808,-0.002651331529113869,0.023291452124045833,5.53
-0.05887289956194092,0.09384051066883042,9.850801153007627,0.001076307989211799,0.011365043730538222,0.017164656067947485,5.54
-0.02193366858611864,0.00020613774950683676,9.808533457251238,0.0014765048618609136,0.01788521878479601,-0.005576275498117,5.55
0.11511909430498238,-0.05705503144881388,9.750029641382156,-0.016408908478863806,0.0017071744305280833,0.013796306910505396,5.5600000000000005
0.034028861107775234,0.020170664361570164,9.796350212946779,-0.0074799938092120375,-0.006120039383199236,0.0005620012858760556,5.57
0.08943022763334822,-0.10352544322068641,9.66928986477571,0.014552081103772502,-0.0050329027032790805,0.0038512215524614257,5.58
-0.12928601086479585,-0.15609268825830913,9.87769409964379,0.005254113957129472,-0.010872057663741498,0.013555564799308749,5.59
0.23335421169268955,0.25780988555268786,9.828536729302735,0.0037008268850779002,-0.011818081459849878,-0.005824040231064732,5.6000000000000005
0.09679829964772202,-0.08509110224784677,9.881032632451577,-0.003316925587477436,0.01051906846445768,-0.0032919782009702874,5.61
-0.15435329806595144,0.1767202665391374,9.865275727762137,-0.0018581063000435317,-0.006761090575785503,0.0032183060586036065,5.62
-0.10239259368039576,-0.14945394284255895,9.801055084033914,-0.01915345556875491,0.009754870613209527,0.001523751085223582,5.63
0.17291288757215792,-0.08888674150280536,9.86381446743587,0.01520241980536801,-0.006569782300896966,-0.020539544601927574,5.64
0.020621509804783247,-0.20370701193067153,9.79541611206466,-0.02905341370980284,0.014475882060277705,-0.007271682265782323,5.65
-0.08973084178072913,0.03257774693389228,9.966891121094278,0.0008093669358562761,-0.004393900191610957,-0.0012502822633893382,5.66
0.0809183257973121,0.16591496108835035,9.849489992718173,-0.002939406708283308,0.019432862109399884,0.005476377528120266,5.67
-0.1694000618125222,-0.058245276825811265,9.7492458992402,-0.011550442059697465,0.0063346368407776465,-0.0030327838821181743,5.68
0.036575631630098075,0.057240278822227014,9.716618842770764,-0.012332274460477853,0.0059559451181638865,0.0037377824378924313,5.69
-0.08564010115185762,-0.12363918339157672,9.966777122535559,0.005623383719266066,-4.547322368473147e-05,0.003284219541414915,5.7
0.08891857051823022,-0.08954110526254407,9.867272959732611,-0.0010463668044624383,0.004553696225510566,-0.0029174383864551986,5.71
-0.08831396926466378,0.025283579245249977,9.815121684115079,-0.009004187818339433,0.005508432306362267,-0.019500703065613967,5.72
0.061361548498639035,-0.05896967632216445,9.895137865935462,0.009977671579597298,0.0006931019395911382,-0.0004308391259057931,5.73
0.029364953866250227,0.05252646598556944,9.825251949962333,0.017869957636557524,0.014177257889288123,-0.0010387594510095543,5.74
0.1493163062808271,-0.17208205214195776,9.790277260004363,9.117351581541926e-05,-0.012272610836598143,0.012716389008833229,5.75
-0.03334737775905949,-0.04368420152412888,9.801456980675766,0.011580702127294585,0.01870338576034325,0.006889148261286488,5.76
-0.21349287308812653,-0.04521842419009011,9.790238281183685,-0.001988930334305226,0.020645815380848573,-0.005950900991625695,5.7700000000000005
-0.1241643131701764,0.0088646585592709,9.721942916398362,0.006327526482865287,0.0010473754074607669,0.0032449253911462314,5.78
-0.23301154539739236,0.15737093507940697,9.824948012790275,-0.00548866577241993,0.010225169969609506,-0.0036691425304245205,5.79
-0.020625376825199826,-0.13064534484731774,9.79405043013197,0.0007025248993311035,0.0071143282301269406,0.017553819029996857,5.8
0.0010008444629556574,-0.014862319184586973,9.742608121113378,-0.002220826533101009,-0.004002074061880203,0.006913250110210817,5.8100000000000005
0.01451434112455234,-0.14368220765969505,9.612928195140366,-0.003037696949968632,0.0017521127459757754,-0.012799013389616422,5.82
-0.023920295961213655,-0.1381767686011534,9.97662582701929,-0.007244736198444729,0.012292597160609459,0.009089686220978006,5.83
-0.15574019829294708,-0.16494925256179038,10.039229825901398,-0.0010357881325975076,0.004418525303111353,-0.029484364820540666,5.84
0.17398767564410816,0.007202691955373847,9.808848374259352,-0.011407281751267302,-0.0036989829264452924,0.009565224495125329,5.8500000000000005
-0.08284025315397835,-0.0035009335175270905,9.8618569034193,-5.082703341400287e-05,0.0005296133615103745,0.01731266998519733,5.86
-0.013382928032879621,0.08177397008330618,9.9316131345604,-0.005101035342381671,-0.010388075311910897,-0.004237928237722166,5.87
0.027614496360003123,0.20316845170554068,9.705109281532247,0.000953596894404896,-0.011611717463701514,0.013870102992733387,5.88
-0.047857673663383414,0.01752623349153822,9.606648553569595,-0.0009685229103141781,-0.0038242023372557013,-0.012391891494719231,5.89
0.08967724990218276,0.05081080501385236,9.678574544236934,0.01494740163313871,0.015468019617678077,0.0033239765400812256,5.9
0.04423420158116285,-0.13198375014638788,9.916137091735507,-0.017584030661278626,-0.005321873320033901,0.011651297391991326,5.91
0.09425908166140434,0.17620799210816598,9.663514803360133,0.0011812796361220738,0.008068084229615656,-0.010007347684359636,5.92
0.008717114311550365,-0.11180762908266509,9.72911061671238,-0.01375210776230381,-0.007138201837521968,0.007954370560354265,5.93
-0.04624817613456893,0.14569145864652175,9.845819093340411,-0.010540698969499815,0.004171910992493077,0.011549158638462237,5.94
0.06562997784471528,-0.10954277061222024,9.82730201844169,-0.008817706803286408,0.007237343392305754,0.015313358314067419,5.95
0.1384122074841,0.0629644553492413,9.79845849190172,-0.00889033801667148,0.003969921835002676,-0.008566425901062992,5.96
0.06205366564221737,0.1450639768698913,9.847972368598592,0.006112769867124288,0.010545290577765539,0.012287070015185739,5.97
0.05819219184205411,0.12814683308758698,9.905678935492105,7.629490325143662e-05,0.0005003773863202443,0.01238034473506279,5.98
-0.15491495475002814,-0.15058137488010948,9.750087717327544,0.009193251899084657,0.009405041475627764,0.00881902973738613,5.99
0.010097288652865374,-0.022341259233218183,9.646978347013055,0.014111974093111537,0.00244413300857375,0.006294127839803388,6.0
0.04981265762391008,-0.17655658338868266,9.792255838363454,-0.002115704253642084,0.005561206878712259,-0.013511150561783513,6.01
0.0036375048490717536,0.05002118019570265,9.723634355797957,-0.00018429741336047428,-0.007531118429896227,-0.0002620612010986449,6.0200000000000005
0.02741803629965639,0.20734437415591553,9.682361842110128,-0.004576528057887151,0.015949653684518682,0.009690661756588666,6.03
0.231174310958427,0.08148085699955307,9.882928441608852,0.014622927803949836,-0.0021440345350066097,-0.0041389235340717045,6.04
0.0013823641746728737,-0.1385894492394783,9.932452961353944,-0.0025490636313364795,0.009123822770224404,0.014094062211155244,6.05
0.13868082265130996,-0.009006985343068393,9.806029409479082,-0.013727536047316385,0.005114920973963575,0.006552392486013466,6.0600000000000005
-0.058306944382871984,0.06062692317948945,9.732221861676377,-0.008582738792806846,0.009013359639742884,-0.004691545098700463,6.07
0.04973555527923686,0.14117362928526295,9.759713347987983,0.00019797815746944628,-0.004963621430842217,0.012947610025175674,6.08
0.2458718731262668,-0.03627425761714142,9.840061470179604,0.0021537066581018365,0.010720599538512086,0.015519738881056658,6.09
-0.06327349389676024,0.09289224543057807,9.725845603616836,-0.0010062907070219245,-0.008269126834476611,0.00317070358789649,6.1000000000000005
0.09535922718537504,-0.038113139386624674,9.741072130313464,-0.0006245799530180885,0.005076468561907159,0.014502563605910117,6.11
0.06819244538655178,-0.037276802111713074,9.747936085392459,-0.009623721980122868,0.007740917489031325,0.009680435495448322,6.12
0.11985981758315134,-0.05181275316023459,9.753367221180914,0.007989544593050988,0.005908255026504328,-0.0024572149323513035,6.13
-0.09358682726175377,0.0535605791098667,9.780024346579578,-0.012738105728508094,-0.0036758147911019274,-0.010510874597639015,6.140000000000001
0.09435980434158958,0.08870668763753108,9.920521763492973,-0.008182863871764532,0.01623349961530789,0.013401756717128128,6.15
0.19856211260262516,0.0413641468909407,9.572017515227353,-0.010845446551351381,-0.0011300958089209136,0.012465616214711612,6.16
-0.1378366098361173,0.026588405398499,9.818829550932925,0.011205928257447862,-0.023129166825231296,-0.00017556592659937503,6.17
-0.11409476970986546,0.012090122832456507,9.778722753356568,-0.004859230736200683,-0.006173826048638805,0.02669234462433263,6.18
0.23514938277215527,0.022904456851099934,9.761069775681362,0.027372059346380692,0.002105107522963162,0.00026130751794978984,6.19
-0.024137679942951896,0.1070761417384316,9.81084465986295,-0.012941983402294268,0.015231730051013125,0.004888258025726141,6.2
-0.03001798909824804,0.03541453296927616,9.704212413760978,0.0039217921421630456,-0.011075281741666566,0.002113307594808939,6.21
0.12517113354812426,0.07506782723816496,9.797199661076263,0.008632310146703168,-0.004939689068302835,0.008329348727282046,6.22
-0.1358119256894079,-0.17540362042466046,9.603409638725214,0.002556116941394963,-0.010483199674945794,0.014205015185212845,6.23
-0.04639870496376233,0.0669075834909068,9.858416604036913,-0.013461020654010787,0.02050375525687825,-0.005991477253948556,6.24
-0.1844791575254707,-0.07673016817358147,9.90205716725108,-0.00782160127717409,0.013918661297157117,0.005832534747393529,6.25
0.030393117180906683,0.07353994828781828,9.854345176677862,0.013360702268391462,0.0017322283282965164,0.012795313011691175,6.26
0.03828932281500617,0.09722387930263544,9.944074767003402,0.0046244972686071365,0.009904573150058086,0.0035924700020755736,6.2700000000000005
-0.09032448536923418,-0.1367297771602428,9.619819696538675,-0.014962813064789825,0.0026606741526911766,0.020244743759221678,6.28
0.02494775781676593,-0.00835570852398818,9.73389546870736,0.009711920017536011,-0.003058506853143835,0.017542742100926104,6.29
-0.07875850536682327,-0.014471970278519248,9.659584351998841,-0.009421632723057223,0.02119159553469668,0.0030793875515935094,6.3
-0.13718850045959124,-0.12981296902875358,9.896369129404535,0.009897268801904693,0.027167947269437494,0.004508939591673024,6.3100000000000005
-0.06668365543030448,0.023271550578802886,9.863579704945318,0.017170453946320677,0.008257640404603141,0.002915402507710736,6.32
-0.025032518895452056,-0.06441766360327429,9.723007083590563,-0.000494163655599323,0.004999629940213802,0.005291726722853194,6.33
-0.07440797032995201,-0.2037830123770744,9.80239923940924,-0.0035791164410840797,0.0008912185696167863,0.0031084164568663344,6.34
-0.0038968521877004517,-0.22162265431895434,9.814673957763235,-0.007830357268358113,-0.012208344365539938,-0.007858054908098907,6.3500000000000005
0.03138892122735614,0.05101011672225689,9.709327246310803,0.006177007463169697,-0.010601552026582636,-0.012265012630268168,6.36
-0.18439348997219765,-0.11517509388633143,9.793711810623678,-0.0009202127490859283,0.0028382094999214146,0.0036086722817775217,6.37
0.009318145248528394,0.24540276465460464,9.873071804414755,0.00750387926202554,-9.547915275383753e-06,0.005291310186981214,6.38
-0.052768281684645514,-0.0035074580659004402,9.887849247861226,-0.006940375583844926,-0.00224683190017869,0.004798855186619846,6.390000000000001
-0.011019055526948832,0.1107522442043179,9.819141904977744,0.0037601770807837447,0.0020004515408097922,0.008295897673434067,6.4
0.14521332806977066,-0.034293956740543384,9.64160876604918,-0.0003188962074810983,0.015513074768087316,0.0005691912472478111,6.41
-0.09212160731323098,-0.06379983009983882,9.85085306567755,0.007083447291131353,-0.0074248907212281804,-0.02179247277093917,6.42
0.007625041873440858,0.032255682130866395,9.837429825067668,0.009113739498004089,-0.010426190154107711,-0.006383185097749535,6.43
0.039406621700417144,0.19813536933646805,9.839164888185143,-0.002910149988292431,-0.007442050197492225,-0.006840189481354804,6.44
0.067888294102206,0.06548364794764701,9.858989825919659,-0.00013898140854129437,-0.01326880021531242,0.0079612249883145,6.45
0.07738852862449563,0.0187542799479698,9.836874454286027,-0.0027416952462209487,0.008189745612067607,0.012663781921052993,6.46
-0.14866211380406266,-0.01449007008946037,9.918945085453332,0.011269193411260649,-0.010950044534317327,0.011298842709246495,6.47
-0.09176948466044202,0.02801341936183656,9.812639849403197,0.00013684450357889268,-0.008607196144851751,0.008907977694530332,6.48
0.1300892314642289,-0.04096100899799338,9.95175789535887,-0.008610114646268497,-0.005431951051443913,-0.01831302104766225,6.49
-0.01829149261135383,0.08024047583547653,9.808335073693545,-0.004879444627780396,-0.016554760704823777,-0.010836730756347926,6.5
0.10428611761465444,-0.08297168398587723,9.70759183481043,-0.019086346791298444,-0.012037632422199147,0.008023984956580637,6.51
-0.07831461373951171,-0.032933035679968845,9.717730187908186,-0.0069745078771703915,0.0022325848700455748,0.0019082080895976511,6.5200000000000005
0.03533792140590037,0.03703433987000151,9.773410836260274,0.0010434344589836464,-0.0040737704655398185,-0.0030663190405918112,6.53
-0.029249417523856486,-0.08869336302909486,9.962568686108401,0.006046002712571085,-0.0016937450460159115,0.010225131660052254,6.54
0.19102130529729078,-0.16825175177031026,9.66322412688319,-0.007145102458494414,-0.007907304430743717,0.012177676467046403,6.55
-0.11123908553442724,0.04485992339956351,9.792785520056146,0.013802552885364716,0.009706870019667625,-0.015097993980921208,6.5600000000000005
0.15168698127325175,0.10846832478567965,9.85798037855635,0.00864452239693736,-0.008685309436040433,0.012624964673224354,6.57
0.006456292705381172,0.1043895413414959,9.89645656970628,0.009980321710870033,0.0026773973443093113,0.0018224500748974908,6.58
0.025047416584917156,-0.08128832563558018,9.787429644857374,-0.008086324040287333,-0.002088936256308782,0.005663230452178951,6.59
0.04754871239833669,-0.08189440225865169,9.880193611126359,0.005167421679314218,-0.025856800821628428,0.016534341940531903,6.6000000000000005
0.24099044627458782,-0.1374388494461148,9.860677793925747,-0.005525850462701874,-0.014757341157715856,0.0015485490097224472,6.61
-0.11504271952236478,0.10775953583702653,9.840643373104916,0.0022769355665716896,-0.0066796815946467206,0.008931365241517292,6.62
-0.16751469795773652,0.17696308785742482,9.901605333687476,-0.0034867237612384626,0.009426587925440417,0.01055586675783297,6.63
-0.1881503053336592,-0.01990762177807435,9.831274223806602,0.010745426060379443,-0.0038601372820670633,-0.01188112865675402,6.640000000000001
-0.14192199626994792,-0.004616965909239656,9.753272013724178,-0.0026863608552884816,0.0020736306473554196,-0.010381494387612647,6.65
-0.16433964250677216,0.17099925930239068,9.76538218451612,-0.001386533884541588,0.003792030331235572,-0.0011375612036290193,6.66
-0.032851344693292144,0.0791315704912864,9.999856082840314,0.008081046140455723,-0.004330737930143097,-0.012214330101761395,6.67
0.07653868586517663,0.10130312294101385,9.911818916490583,0.005250827532211301,0.006382856919254089,-0.007778281362151432,6.68
-0.04202080449987483,0.02280931016507426,9.820631346346138,0.009928000137786717,-0.0055643871195960575,0.01222387888674547,6.69
-0.038999211180402706,0.16500336810701055,9.723231030626211,-0.003159123960389746,0.0024921617921445046,0.0061474836328683285,6.7
-0.11392627782734284,0.21902532742663597,9.869307220407856,-0.0056804835403785935,0.011343378313505206,-0.0020118075990870387,6.71
-0.004087833564861917,0.09212374048456987,9.747744526927827,0.006803401893187481,-0.008754525862730534,-0.019424089006876886,6.72
-0.154798844281069,-0.11712096250365495,9.905621953050485,-0.0013436750362092063,0.0028743025183012535,0.008202655233656953,6.73
-0.1292480503086697,0.1338135011584058,9.819979602579126,0.012166820487256884,-0.004628389626830375,0.012807385695341754,6.74
0.12577562256253555,0.2705199303399292,9.866204539333149,0.017261156509034436,-0.00032566685977987307,-0.0024204542299089845,6.75
-0.2297067389634856,0.08249164640332107,9.819258483475492,-0.015528132533333383,-0.009237034748873085,0.0023356833129851537,6.76
-0.004321733138475448,0.17555602357394834,9.848794970888743,0.0011465211437225258,0.009589376359945946,-0.0017872548583739109,6.7700000000000005
-0.11353885447749984,0.20727757883403944,9.812288241664938,-0.008591420349288474,-0.0031314498068757885,-0.009997656479213985,6.78
-0.06927337910928019,-0.04949838744981331,9.875544295047783,-0.005143627889155871,-0.012870608665918255,-0.0002017138543490407,6.79
-0.08459755584851208,-0.014060588572109857,9.90765061224516,0.01169171408523576,0.0022451194773134195,0.005198164005534223,6.8
-0.005711197672342545,0.026751359496778666,9.842097501729347,0.016562927322768005,-0.011735376505935322,0.005826477643512565,6.8100000000000005
-0.13945914888470165,0.043679508155252594,9.84024357330668,0.006647080058557566,0.014570471912741856,-0.005727711020634937,6.82
-0.011178536300938593,-0.0014512809891591922,9.772677192611313,-0.004134997200643351,-0.005588667076492358,-0.0043754104041504,6.83
-0.011141955543020951,0.12108695158192131,9.785038096309417,-0.007172881562430785,-0.0007396919727516303,-0.004815965176303517,6.84
0.07489452584501034,0.04807183577720578,9.919613123918102,-0.0012823164655030494,0.006233762386566745,0.001960535802503943,6.8500000000000005
0.03428836194832072,-0.015467752672465541,9.804654535382534,0.01873232917025652,-0.016865066844427,0.00786065867376912,6.86
-0.08002579163078417,-0.0486544120731329,9.80236003395242,-0.019133674448864043,0.008080428268664648,0.01055871058106289,6.87
0.13003783476676864,-0.007436967635574338,9.896888760684302,-0.0031684275800170987,0.0063699771106270784,-0.005244548225606807,6.88
-0.028206945033572753,0.08740064594858402,9.924558369573695,0.0038046851400290087,-0.009492066634472803,-0.00681792775416,6.890000000000001
0.05976748649429773,0.06483720308840786,9.837950895244253,-0.003474428142859242,0.0022899135183994733,-0.0035455348155361637,6.9
0.05353396868359614,0.036911502050648734,9.768211168906356,-0.00869190485441026,-0.014125869438499129,0.012320522016819309,6.91
0.1379155448455371,-0.03461298154914396,9.837283358700962,-0.0022624391590369605,-0.011677832937809579,-0.01030206550025407,6.92
-0.025392160709481856,-0.019172419288843025,9.824616160674086,-0.015876746341976174,-0.015085653226178457,-0.00789081095703773,6.93
-0.12416864968710695,0.0050238893456927385,9.777885736303332,-0.014723132806542073,0.0035207114720317125,-0.013682996305100866,6.94
-0.15281322572395786,-0.03266491018733034,9.993726617239767,0.011947252257124319,0.009241670206169447,-0.007050801123137657,6.95
-0.10047236020842219,-0.06340061118427262,9.84826747588663,-0.010695336253541583,-0.004332437030802435,0.015315858901420796,6.96
-0.06086339128639984,-0.07978598544405058,9.918735489214596,-0.002476458958068942,0.004263601436215077,0.010335811024409045,6.97
-0.14052888311324988,-0.04934180618397865,9.851095979651669,0.01091631940322128,0.006605540945615542,-0.0017119591307818657,6.98
0.026194618490650717,-0.029740302570845107,9.71101145482252,-0.004023700607932365,0.01880944750840832,0.0019844079583015155,6.99
-0.023813786508951808,-0.09276361172926084,9.761252845231592,0.0019381644310401977,0.008513701206777913,0.0020625876780931175,7.0
0.08897818108548187,-0.06614962548668167,9.878295317672354,-0.01511956117398939,0.0008267347718980712,-0.011395959392666579,7.01
-0.07584203339200428,-0.004424381381448375,9.80896524782255,-0.010787205787775403,0.0048924347424379525,0.0070073893567289295,7.0200000000000005
0.11572989168534101,0.10863646060032156,9.764554872777751,0.004456826457943572,-0.012066255702746654,0.01073280023043867,7.03
-0.05194819729656097,0.0026791519700302435,9.837584375820937,-0.008508811783126723,0.006816260239532376,0.01253332292258135,7.04
-0.10893562426632362,0.07816320281914706,9.882673243292135,0.0036013660653050417,0.011476450380549006,0.00447081746478714,7.05
0.21046127106956788,0.09206058248456339,9.66507159565236,0.011400162931597822,0.01956021921312692,-0.01247633561049397,7.0600000000000005
0.08591057280525055,-0.04577148866392355,9.735826265220071,0.001206799403848712,0.005720196260579286,0.010539713688775416,7.07
0.015418274577359115,-0.07334247797594953,9.923398461550649,0.01532934929651609,-0.00943554202923946,-0.0005179143539767565,7.08
0.027084886910776047,-0.0699005692467846,9.918403477508331,-0.011076742050016611,-0.01429810747221236,-0.0018198807764778916,7.09
0.03769198773331759,0.07584096718686151,9.706859520644802,-0.011892761852494564,0.005077262187624094,0.004377197459755995,7.1000000000000005
0.14674179715887223,0.06404033456860377,9.869006299941919,-0.015882614250176726,0.0013863477341077065,-0.010104019031642559,7.11
-0.008572874438891724,0.14312822739205372,9.773744528373976,-0.008359375885501267,0.024101037753167548,0.0034746666754986613,7.12
0.14641870399071713,0.1701651482916433,9.7709132878744,0.0038330653834550473,0.006575439004323772,0.0012012450600582202,7.13
0.04533176320103046,-0.12021724750437401,9.715571247835719,0.009937053848947042,-0.0010836019373117508,-0.010829152328683197,7.140000000000001
-0.009553434988218664,0.1514013358626867,9.71786944802625,0.00833872284124179,0.002906298836429817,0.01533290760076657,7.15
-0.008006679153531239,-0.05127405624405698,9.862550777469744,-0.0064507820141289805,0.018664734294322628,0.011413330575859556,7.16
0.028747219826273047,0.03476196770508626,9.64937238109411,-0.0021731863109900134,-0.012540824298225764,-0.005524217250021623,7.17
-0.1528347423262744,-0.1396628025697786,9.562138389913214,0.0009801281083181759,0.0017880489794395815,0.010855129472574975,7.18
-0.1488096520191111,-0.02912490460859798,9.752715267052508,0.0018591618384089157,0.0066777522749331035,0.00026751101915116395,7.19
0.04671262963551127,0.04356708201950286,9.569618214381693,0.011044583570344437,-0.0015201326024936914,0.015225331259238398,7.2
0.10023548372037104,-0.06848259453156545,9.881341079233156,-0.0144771497486847,0.013650311508099578,0.005073643336619975,7.21
-0.00164168551693362,0.16451575849249067,9.543792637512244,-4.3242434936362476e-05,-0.022961734236727992,0.004884553428593312,7.22
0.022305306490119498,-0.018154568654619823,9.849122134287484,0.002573758690073501,0.003621896356251066,0.006627187503681978,7.23
-0.12052710401342473,-0.006780055219449116,9.939620195082153,0.006864160837277985,-0.0046281447776568355,0.008214286579924124,7.24
-0.14201253349363524,-0.041792571803175776,9.765449589650606,-0.011981523998045043,-0.011740210207568179,0.0001807591826641858,7.25
-0.1111896867699394,0.08358737837792438,9.688732308853801,-0.015887877963316057,0.018115388940702845,-0.003437430920246636,7.26
-0.09724708265495859,-0.09699221724802394,9.896108133982343,0.009402516430645111,-0.007698958382202937,0.003903294850820199,7.2700000000000005
0.09466180320008251,-0.058826923103118614,9.914942052727868,0.003573077815878927,0.01191865147375453,-0.01624935232268929,7.28
-0.07110754648738238,0.006040797939759952,9.89826883542765,-0.0012697041946729,-0.011208954843206024,0.004166723461511657,7.29
0.16577964638969764,0.005575385952465667,9.659186263802518,-0.004545625424708615,-0.0027258165775283956,-0.004798192414564769,7.3
0.07587262312485743,-0.05806360489256247,9.929024178774085,-0.012775867551927993,-0.014304725569070129,-3.0468747402331424e-05,7.3100000000000005
-0.10666491691771751,0.055471665110986716,9.743171562143978,-0.005969112018917425,-0.01229899545169324,0.00636842232507305,7.32
-0.09236113718887795,-0.13196581256117088,9.866893640938148,-0.003855390408059774,0.002319227233938998,-0.0037942738105402798,7.33
-0.062397124710373855,-0.06740772611741694,9.569322487654073,0.004181166280268105,0.003998766716340852,0.0021083618276778802,7.34
-0.007435119433146526,0.050716284091289365,9.95491253193137,-0.006958506919069808,-0.011762819525086177,-0.010934410157942429,7.3500000000000005
0.010736417615246043,-0.05555285923675805,10.027766818978398,-0.01391688060365167,0.024673193345417233,0.0034765075444556123,7.36
-0.11664008453965201,0.03716003024218244,9.801221138894762,-0.013786629410148788,0.008221458951515943,-0.002328031759566729,7.37
-0.016623568325487025,-0.03960064313787215,9.798401995488652,-0.005301318830678335,-0.02243478068818244,-0.004011319058381411,7.38
-0.09082629110526172,-0.24800287039733093,9.834895602968531,-0.014293379044414188,0.01921238490728044,-0.014752784575473094,7.390000000000001
0.031972440928170996,-0.039798487848492325,9.921662440829186,-0.006480344536916925,-0.006274010212019631,0.007078811371025499,7.4
-0.12762163935744628,-0.09257127821738609,9.896643619472412,0.0013129636038459861,0.0036103158835372653,-0.016875874525097954,7.41
0.14647690357487042,0.02660358852713021,9.75505112475423,0.00242572071473592,-0.007712486780278113,-0.00441402970096587,7.42
0.06506860677047537,0.00031913600386334544,9.794181242297727,-0.0066365332814521975,0.007071067075566106,-0.017735098007870473,7.43
0.03696120549031457,0.020227293396259095,9.911438399860447,-0.022801459159335766,0.01390122981897538,0.01847344637900861,7.44
0.1601534414417447,0.06550413674423533,10.000286412506043,0.013085093634865342,-0.0020275956271909672,-0.008160294069448846,7.45
0.14409952724749162,-0.06152941480230417,9.834743676554309,-0.0071760780761945964,0.005943591515775424,-0.016640652008056197,7.46
-0.07397328411212349,0.05734237739064686,9.79140998487691,0.004480432074548287,0.003943262722969065,-0.011407453794606247,7.47
0.012458861481469689,0.06303260217968198,9.874159169617425,0.015328977122602323,-0.0018594463940369108,-0.0036660666369555486,7.48
-0.06450210838666229,0.11618341753872402,9.902001535626722,0.004860875338903424,0.0035991668133184573,0.007345866225725736,7.49
-0.02661773740473644,-0.18808788437056712,9.95681934306034,-0.007076129883418816,-0.0011376979584632485,0.005594201691082462,7.5
0.021946669584438822,-0.20602867786712503,9.681876582537578,0.015286282184819915,0.004852601232642921,-0.0021108549252420402,7.51
-0.03249485749316633,0.06260306063415946,9.9345255671212,-0.007180080010796386,-0.006531168951293729,0.002410247783468194,7.5200000000000005
0.26267380828185394,-0.07651233359063137,9.590614017566345,0.007421450002754524,-0.011235576157056972,-0.0016950690282847055,7.53
0.0871512299125062,0.026312166078033973,9.926733433239999,-0.005620620439662921,0.008856870157556243,0.0023607443541384834,7.54
-0.1504917989482882,0.09857798351718623,9.776193659814009,-0.01810152984508044,0.00043938272132650226,0.0007066278359734434,7.55
0.040764292663006144,-0.10721171901312687,9.909792125271503,0.004966846611463092,-0.00035040029090671555,0.014225539513778465,7.5600000000000005
0.10495447561740667,-0.03868979398058303,9.813624839335834,0.003945777668453596,0.017659114088062953,0.009166397174794371,7.57
0.1854461560178249,-0.005210034772247862,9.79106728595481,0.021771372649196465,-0.006009838320347265,0.013824221881101478,7.58
-0.03092421645019154,0.2764729065888994,9.760643998633425,-0.005337680920917354,-0.0008144938891101749,0.00044960141572203573,7.59
0.055836667171060554,0.08892227449335481,9.890562749207403,-0.005885582463515048,-0.014362255552975498,0.0016964678260717025,7.6000000000000005
0.13239798695735566,0.17108944242779037,9.729042855119351,-0.01345251654795307,-0.0018583697274931585,-0.008367800178465987,7.61
0.002784146118420374,0.06241183995490671,9.809730774248443,-0.00045957212258209427,-0.002164131275284742,0.015601427287814044,7.62
0.06586903725459119,0.005723370406093414,9.79693624610992,-0.002260172876797549,0.013144581998291284,0.007778018811525816,7.63
-0.06937383716009322,-0.03639118345260355,9.590626934890064,0.02293004502328639,0.013194377613379374,-0.007118114926694817,7.640000000000001
0.018734621839650502,0.04947390841983959,9.89308796176723,0.012504734888085567,-0.01556081253098717,-0.011435863274699719,7.65
0.15824050448295132,0.07643713650595281,9.670518884384238,0.02527772188476776,0.005333665518009761,0.007576680139709303,7.66
0.2097401169905424,0.06536244237240944,9.961230291504023,0.01030328093525686,0.012697625137940179,-0.0010995970235011148,7.67
0.05931216444123949,-0.39883421773196365,9.736331568782152,0.004746739809268149,0.0015783075675117962,0.011177588428642889,7.68
0.03350513140154986,0.08524046796813867,9.822440028667703,0.0033279634482767007,-0.004909146417227249,-0.005501869347644462,7.69
-0.08666403223482166,0.0635945317795991,9.777438316957976,-0.0028181959052610336,0.007466493565404872,0.02661068579430928,7.7
-0.06535833875364967,0.07156612197619298,9.724925483720542,0.0166619901830523,0.00022306790063690056,-0.012081783204182586,7.71
-0.06461933844838097,0.042798124655274085,9.7908809869916,0.003745799850698286,0.0026815239926270907,-0.005431344536712319,7.72
0.12125818512886465,-0.0635965025730155,9.84649716523963,0.00748521739494113,-0.004781439078329814,-0.011465700553935958,7.73
-0.026601324951268015,-0.0734933570167277,9.823386654381256,0.008147654850247668,-0.01333968000025759,-0.007378960337400863,7.74
-0.05395442400650109,0.21351230355875145,9.884245195066361,0.0013816642107348836,-0.019362815728701528,-0.006957907589249031,7.75
-0.06357186799401102,-0.0342944468756099,9.874574741751076,0.0015090483162245969,0.010611675021501676,0.008540175249556605,7.76
-0.07187611420554225,-0.0096914309092892,9.62778081435956,0.012606576484184737,0.005569812352972352,-0.009745015083170027,7.7700000000000005
-0.1167959217457464,0.0260761338934314,9.674016596205552,-0.015337786656718914,-0.0019783062708338835,-0.009049977782525328,7.78
-0.1362675801565135,-0.0667594376111069,9.907523907345233,-0.01537365243824619,-0.00904236486967145,0.007157422240157484,7.79
-0.0908660356223754,0.0467581413616765,9.74429416633012,-0.01426412403127141,-0.001309688801509008,0.0032888867917577657,7.8
-0.11152666016207034,0.07622529291842162,9.82678193521315,-0.016857235644088368,0.004773586863940343,-0.0038071883985082086,7.8100000000000005
-0.08873638828115704,0.06722646012978221,9.738038824597437,0.003950777133280713,-0.004294309572388488,0.002751104833735561,7.82
0.06125798311639435,0.06791413856181176,9.87623496166785,0.0060454872362600345,-0.004603172556966254,0.0013779979207051685,7.83
-0.09272129351503049,-0.13482497521713704,9.882785006487293,-0.004869603929148087,-0.010168668065194657,-0.009929613758038795,7.84
-0.17970421796779276,-0.053781981609034114,9.828364538869646,0.006071590918223192,-0.01456057235929422,0.0055532666006446255,7.8500000000000005
0.034875002929580866,-0.04646238935573149,9.715579864843017,-0.007806267904332775,0.004375666921817524,-0.011883593576174729,7.86
-0.07257296268252914,-0.08581904409413914,9.758033252923415,0.00552155073950674,0.008942449501318969,0.0020646143328085314,7.87
0.041531907171422265,-0.038398949139916795,9.694320313912668,0.0037696926566236372,-0.009923426539765193,-0.00032055787835776387,7.88
0.03005528668113185,0.2853078558376567,9.742679248404437,0.004908224066196703,0.021749399433798087,0.024900003886312323,7.890000000000001
-0.014542000390265434,-0.042871172502547926,9.96643970642259,0.014063105879217316,-0.0012779868968846586,-0.008546305156009435,7.9
0.11649456145095777,-0.038178502839887024,9.776356543928514,-0.006037305646854212,0.0045898306141579,-0.0005378982809447931,7.91
-0.003440043663267967,0.012586028026573787,9.818703375531813,0.0001685080019110649,-0.002747404179658119,0.004222004478467642,7.92
0.011250361837160777,0.05192911583842326,9.776712890505113,0.0096394700026297,-0.007974980574956672,-0.003788099428786759,7.930000000000001
0.06170738034454603,-0.07065792757424874,9.825648465083738,0.019189530067098125,-0.00289480905367287,-0.011766343127602576,7.94
-0.21818902292505077,0.07437887490719343,9.817184780245315,-0.004004107658643938,0.006738716259633676,0.008421866297702396,7.95
-0.01783558947553412,0.1925187037851161,9.800854250868884,-0.0019501749968156604,-0.03221959462383361,0.0011314653375704867,7.96
0.05244519859590735,-0.11743419774619222,9.713680182823552,0.0013036643927412759,0.009734579960548452,-0.011301834338988561,7.97
-0.004867025767755241,0.20910956556366211,9.996984904520215,-0.012214932965249687,0.028703749722659766,0.012409906609206923,7.98
-0.13186868518246103,-0.014766087553743418,9.849817319216044,-0.00245357715958974,0.001965857732414087,0.006512923860430932,7.99
0.09651425864533317,-0.02025697635646147,9.7677025588974,0.003839900522831633,-0.012961691118696668,0.032568728650539114,8.0
-0.16773776802044515,-0.0750444001392144,9.861518933436123,-0.008286873806788988,-0.00046360657154976447,-0.00785222201315076,8.01
-0.08063268360118418,0.06262228635161131,9.755353078389799,-0.001394229796076845,-0.01551796066267709,0.002948600579097884,8.02
0.06338619127941633,-0.04434659313507171,9.685955239608115,0.0011713462504585829,-0.018270024559817914,0.007975939574866376,8.03
0.010632505663211486,0.14391496187517844,9.730864871158676,0.006933728373848998,-0.00452460241890131,-0.007613148291322746,8.040000000000001
-0.07677096947937737,0.17960621798318818,9.63486850071367,-0.007888308463745114,-0.002876694458758497,0.01765524265890899,8.05
0.07442853338085588,0.020963202796070696,9.95144158820484,-0.003938737145536653,0.008676495894939462,-0.010588924281090937,8.06
0.026733536090315285,0.14402715607657557,9.693025360758599,0.010717058709175472,0.005451120562538389,0.006100931955745967,8.07
-0.007617471522072781,-0.06017021472323972,9.777392075977826,0.013093414781716326,0.001995997907439427,-0.010779421787082195,8.08
0.029801995496398268,0.04002939326371693,9.781160692060116,-0.008537994501334117,0.018919759828068747,0.0035079363227452937,8.09
0.016298069612430917,-0.11778372093326482,9.632714525767472,-0.004604022937932719,-0.00806588257523258,-0.02307641522957398,8.1
0.06602502432052212,0.030781819750989554,9.814735879512327,-0.0011070805096935266,0.015022497973622394,-0.020895699977349018,8.11
0.0010771782326308482,-0.09092432487444742,9.668171935520949,-0.004199604819333153,0.002261884057070791,-0.013888590204040588,8.120000000000001
-0.07795495367111507,-0.17244994988027024,9.823909177133407,0.013490824482696402,-0.01329457802758924,0.002150324483066682,8.13
-0.009607253578242797,-0.09053086151637678,9.872771439801806,-0.00953819819972707,0.002486700956351134,0.005186525065378128,8.14
0.053837490185035634,-0.029734524212767358,9.993871201137889,-0.009592870370244267,-0.02118162072062014,0.005700161810865765,8.15
-0.02959589810141691,0.23031447587536757,9.913412268701062,-0.014874986035006863,-0.006212343981099669,-0.014091943079921595,8.16
0.23533389461191853,0.07284804728588164,9.942330953881264,-0.0056509413849304534,0.007045231589650269,0.015927863431970345,8.17
0.08770577256601175,0.038608126881841634,9.83186969934305,-0.006416981357350264,-0.007826299255004224,0.012444869757541024,8.18
0.20328578540314113,-0.034022233424672706,9.75732755140503,-0.000724671565235883,0.014181578105327974,-0.00325907102393125,8.19
-0.10375092020943165,-0.09425257377010843,9.842489246621508,0.015904997280625204,0.002186342690081258,-0.005317430359573998,8.2
-0.009856702890479954,-0.021000211786283925,9.694250551596076,0.00020934113376324125,0.007799887484060004,-0.0016965073578693887,8.21
-0.07177126854242283,-0.09573308829869366,9.721983237950099,0.0023034389048608114,0.0030849355522997485,-0.009110212934521668,8.22
0.06039146964660354,-0.15573588682951284,9.993448916894991,0.017674435125767236,0.006352375372460147,-0.006558699710638689,8.23
0.168958089893911,0.07302025130899181,9.744853452847806,-0.004941565696712467,-0.008903090708060338,0.006152955572220523,8.24
-0.06734626306024896,-0.021605653891202604,9.606660272354693,-0.01571302500347466,-0.007795719179878367,0.0016987441621750176,8.25
0.05625821809191404,-0.06756174794279547,9.767631629841627,0.01121603178988867,-0.0023628381143875566,0.002242392032206588,8.26
0.09842773960774702,0.001389080831659414,9.626186716537358,-0.0007081045406599133,8.208572952757317e-05,-0.009196078547600607,8.27
-0.07301774695917788,0.04861598533039012,10.017112301329735,0.009669533785453875,-0.0015525569856803599,-0.0006005649630795875,8.28
-0.09529495972091369,0.0013378669754859226,9.927120916466274,-0.008206367818405315,0.0003426086599870654,-0.006341595617179697,8.290000000000001
0.16317893379923673,0.059302283179844074,9.869272107638661,0.0009993270541903585,-0.014628353183686672,0.013970736241486783,8.3
0.05335976340460994,-0.052831402118253074,9.903883428522336,-0.00797032346359871,0.01921743605708197,-0.0040672960024928425,8.31
0.002997234046176389,-0.05806666239115397,9.712952744900605,-0.004170394834164581,-0.0034259125259121165,0.005338893850223089,8.32
0.11097929837211612,-0.1448497354237377,9.875956549648167,-0.0033119066791151754,0.0006892224447060676,-0.011288845585175082,8.33
0.20159564959195678,0.068556711338775,9.813576545916916,-0.024948784221153028,0.00303846172908537,-0.003645541354152354,8.34
-0.041381786915867184,-0.07710023248060471,9.694295615581463,0.013400548397037353,0.006759509355278236,0.012548626504762208,8.35
-0.04581748522485324,0.17266212500353587,9.698656796473252,-0.00405635492269444,0.015094146587896698,0.01035129715929224,8.36
-0.029198982819847313,-0.01675972780861495,9.76901406837216,-0.019508687891571525,-0.008371134375015256,0.016604377806128223,8.370000000000001
-0.0005355139428958809,-0.13346169424519194,9.745753329896262,-0.008830969956341394,0.003889217217760263,0.010077831553145917,8.38
-0.06766197015366268,0.12217278097127447,9.52886466099324,0.014803783118240101,-0.0020005335600560767,0.010843530322291326,8.39
-0.002992209134149837,-0.11971753282683809,9.91121496006057,-0.004066125450975646,-0.003525122988969683,0.0008321228286428698,8.4
-0.016423889006551683,0.04008258993072058,9.897365045598676,-0.0021895286353989054,-0.001142357609167774,0.017163106297463617,8.41
0.16287512220191885,0.11994365752370571,9.842590263102796,-0.01051781374010421,-0.012604080900469621,-0.006790704311892287,8.42
0.0009175606569064535,-0.18647145207916083,9.661277848193937,0.005279175361665584,0.00445094723751622,-0.0034029429729735988,8.43
-0.14798100217075233,0.0723780253681716,9.68634643823087,-0.007050611110465627,0.005223912948080028,-0.005876800221436579,8.44
0.14367773368316403,0.02357588662273311,9.799052000573674,0.006317302142916274,0.004310234799617447,0.0039476842766197765,8.45
-0.11848291290120719,-0.14343641088230427,9.881417203814799,0.0018341552965266373,-0.006737287081139195,0.004560811220040727,8.46
-0.0775127338558926,-0.06035439563242961,9.75256015276029,-0.008716570954835174,0.004777206280073303,0.010272207405082459,8.47
-0.12245693895129367,-0.16802359014981139,9.712175684856172,0.0035053859806946632,-0.006302592224296839,-0.009472227435333743,8.48
-0.0030062430491181284,0.0564671037846791,9.669513060955369,0.0018441923444293283,-0.013937751032381753,0.007039428687014185,8.49
0.0669252489633348,-0.051544647894354256,9.77738625716193,0.004148049712779886,0.0012278713443971629,-0.005738747185208133,8.5
0.07277985631850484,0.012335635903169192,9.774589300291293,0.024485970242554066,-0.00032232657214293975,0.0029040668968946365,8.51
0.08422589443797987,-0.030124352608419936,9.610449809779363,0.0011476438248914879,0.0049193711590078135,-0.021911794918524314,8.52
-0.07108759618593911,0.07098176887606714,9.75529522904588,-0.011677006319534552,-0.007828009772810536,0.0004870409659716215,8.53
-0.23513753578713412,0.015595236769291016,9.823641760720488,-0.0069271223230812605,-0.0010742236179297063,0.003140908534550402,8.540000000000001
0.07645635329612532,-0.008904821771003078,9.93620105574114,0.017380467067981627,0.01843099389264592,-0.005244579092581018,8.55
-0.1064822535733149,-0.07199577293029337,9.8455233018607,0.013609828009527633,-0.0047947681979086864,0.008428068085437014,8.56
-0.030747745847931707,0.001321061835282292,9.805123280314453,0.009942512784969576,0.004713289247642844,0.000819859775925161,8.57
-0.06812036553384353,0.10764008242636591,9.90884053585997,-0.005049382093244014,-0.0017343618653538778,-0.008139799644345226,8.58
0.053689872096707836,-0.22444579023354738,9.903275003453547,-0.012415837890504574,-0.0041815741977775205,-0.0059526360006364135,8.59
0.2771780588419787,0.04850162943871076,9.861786743018397,-0.0005054876153531186,4.922103951290007e-05,-0.0033869878663386112,8.6
-0.05161313785597863,0.07980446318911222,9.87621039582903,-0.002680280659625072,-0.02047551506807075,-0.005391412960771252,8.61
-0.09485961637884394,0.12403840299801648,9.710209597827946,0.014371554660033297,0.005082025924441159,0.01737587566193961,8.620000000000001
0.05691847431086862,0.011738938549003139,9.897763014090948,-0.0036688910421882478,-0.009643239801971541,0.003420910627898482,8.63
0.004963443594034587,0.12130632495341814,9.614841472409427,0.0030077569846153223,-0.007282715621519144,0.012095185606717043,8.64
-0.16992552311243864,0.1678773149616679,9.752252712882678,0.0028228419947024315,-0.009406453356030063,0.011781871133482832,8.65
0.08134612239037084,-0.012177350528591048,9.741463249255288,-0.011065694733610815,-0.0028709511842009558,0.002050223938327658,8.66
-0.016336699675394764,-0.0007074208648748937,9.815119422224125,-0.007274054492349191,0.009881265505868025,-0.008081551523219098,8.67
0.03065743172556586,0.0009571739271361908,9.841838088253018,0.007602610376035032,-0.020035183134311917,0.011245082119904071,8.68
-0.08377875893739206,0.10336855609029068,9.77414210346689,-0.0012217430869650033,0.0055160594148868525,0.0035726304306839193,8.69
0.037070255670553644,-0.09430949646929587,9.920428503149736,-0.011119400867866126,-0.00025850231416349727,-0.00820862317938053,8.700000000000001
-0.15021083824308099,0.0662073147373123,9.739853982210441,0.007119797378304142,-0.0028580666601355138,0.007182323641627898,8.71
0.013607216130806616,0.042764977170867344,9.640389140783366,-0.023239017572984237,0.005285787070977744,-0.012664584529562078,8.72
0.10826311669057787,0.044976174837747705,9.83676606810292,-0.0006953516392345519,-0.005387325529222482,0.016734613256829473,8.73
-0.0071962024131666975,0.1417013118029848,9.870012229741244,-0.014189583485554864,-0.021312894428837867,-0.0003261085168448159,8.74
-0.14828956113140238,0.014734359226443082,9.817627385767379,0.025330864792433638,0.011252458243298503,-8.978216104617173e-05,8.75
0.282468630511136,-0.06610164528719574,9.802398982859996,0.009286637437260664,-0.010484252887605421,0.002745713900602319,8.76
-0.11963315883702584,-0.077879654872895,9.898894600006646,0.006680473396533618,-0.005517918085925178,0.004364047652387906,8.77
-0.08430108875453772,-0.12978319159649895,9.790266546384402,0.005699562810699708,0.0015398252455420325,0.002568179695461975,8.78
-0.022276073813592215,-0.016835140614268496,9.592217996193593,-0.0022288026156890993,0.008062781163301554,0.0025221870173808736,8.790000000000001
-0.13111770089383062,-0.044984540246220533,9.93897192454437,0.0010000582843960675,0.010354607464167656,0.001856772909516227,8.8
-0.05975078446744732,0.0233403921025694,9.839928895006754,-0.023224362775149686,0.0033891447980877536,-0.008149041087892652,8.81
0.1123786218160347,-0.1307363313394316,9.823864178662598,0.0051695768096862325,-0.009552565267817056,0.002403192937115034,8.82
-0.04270902349343912,0.1394495782699175,9.767240700513499,-0.00040963691156477256,0.009524548363018802,0.01196743149776729,8.83
0.03278403331855817,0.08857993672227182,9.736323055618584,0.0031790105016828297,-0.00818569144857106,0.0030804312050137827,8.84
-0.1986031684022422,0.03148022545744729,9.813805427987038,0.007517224870325232,-0.0009598610924677322,0.006233237018710571,8.85
-0.08811700965151628,0.2035607343739733,9.812559052939049,-0.00995601679988693,0.006055434898824821,0.018442247557971067,8.86
-0.06677568815175604,-0.13468617079169581,9.68673554734383,-0.004332506167071028,0.00759538774077052,0.010894951545030784,8.870000000000001
-0.11678382001886004,0.2825438747945825,9.92186076779318,0.012739353246079863,-0.008236140184521673,0.015639090920101226,8.88
-0.12622122474108194,-0.12250404207803677,9.715645309772276,-0.007375921918237625,0.006990168974823502,0.0030807800540379867,8.89
-0.07205059781865683,0.014138142164750995,9.912524995014161,0.022674015231565477,-0.017251831049441536,0.01967286457418873,8.9
0.1023261683407044,0.08868877357309404,9.977487380950537,0.015911524456583784,0.002867183577718021,-0.0014186095831824317,8.91
0.005303301337356587,0.06735306121972537,9.75536871620675,0.003034463790427224,-0.007097299583854877,0.021319118433565615,8.92
-0.041986107427446524,-0.0022847840625075905,9.87155144477236,-0.003714703635991606,0.004522940928693216,0.003481036438231426,8.93
-0.002386851892107392,-0.11841919987754804,9.946929339957348,-0.00019247484525243758,-0.006954748364750557,0.011964094994467607,8.94
-0.010141607947098383,-0.05741240051436253,9.853794610885519,0.0020972323377581653,0.010336036100629949,-0.010916055629541475,8.950000000000001
0.005764685174056533,0.3183311555171401,9.8283936034659,-0.005589492159380855,-0.010691304136692873,0.002087191888342423,8.96
-0.05094138898418609,-0.0647115428348669,9.879480776801389,0.013413687719451428,0.00789013886313799,0.003511444559716432,8.97
-0.08263233480178368,-0.06934472767085127,9.759723067958591,0.006205605946414857,0.015720440342127124,-0.009097019582901383,8.98
0.13132518846717275,-0.07570066923365945,9.811847391996759,0.0035584313023162163,-0.0007879801830774437,-0.0062944845443653336,8.99
-0.12259181835794108,-0.04255621074203351,9.823387640344816,0.019786259048762345,-0.012463696442158492,-0.009441446358134533,9.0
-0.019408683208451447,-0.04231184071600286,9.858113629300103,0.003110187801260979,-0.0005956604484515524,-0.0022745255970922033,9.01
-0.10575081590343838,-0.022362644721856065,9.749762437630052,-0.00724424057036946,0.006352953303750554,0.014956852913268811,9.02
-0.08347134287268215,0.010647054701939614,9.967639352306369,0.00816639338152288,0.010296675559476718,-0.00893997788377139,9.03
0.002538593900320439,0.026042537631682346,9.779031012102863,0.015006512525938808,-0.003477788125808361,-0.01218579902009726,9.040000000000001
0.17754642241959717,-0.008017203200388763,9.788385029119222,-0.006598851323583937,0.0021328880852530692,0.010733430155977426,9.05
0.17711570775119964,-0.0613959062395975,9.936010854613334,0.027251668700334727,-0.013033320789566257,-0.008691483887828026,9.06
-0.1508849817808858,0.05759777059106772,10.022715252954455,0.0012515303388738503,-0.012835935942073896,-0.001268849852464592,9.07
0.1368230994783904,0.05975477712731519,9.857349703156997,0.004690999998534541,-0.007644856841009593,0.0048387499392808,9.08
-0.02227187423734972,-0.020056564080731996,9.768216387527898,0.0005665018230497218,0.019155744506572633,-0.0010961258524077666,9.09
-0.017307952684016168,-0.07660839729114488,9.7884823195375,-0.01080218409187633,0.01169056876150254,-0.012215618928445908,9.1
-0.15693884510181555,0.05263090286099062,9.93371987727762,-0.011468699508864772,-0.0014151754556997256,-0.009109116727663654,9.11
0.03506399947371854,0.08599456485565117,9.883613314648398,0.0014560807934451798,-0.00544778246556071,0.024004498223804505,9.120000000000001
0.014555514264864722,-0.058080068680760134,9.87138625787376,0.007737471903889513,0.011843820832266384,0.0013980300034698346,9.13
0.23837493042051627,0.24386469297865251,9.742712915559224,-0.000427294226311418,-0.0046578992123194165,0.003190509581369587,9.14
-0.11057128574186555,-0.008244068539738936,9.927916882976746,0.004981215280044634,-0.0025361302737666796,8.969513693567256e-05,9.15
0.06115793455880782,-0.06948474142408605,9.80617940589219,0.0002817083303889048,-0.0031000660454640673,-0.0022759830325416747,9.16
-0.007270436660175335,0.015002348951768218,9.948040866066847,-0.009557706569173943,0.0029695758209461014,-0.00361009236428522,9.17
