ax,ay,az,gx,gy,gz,timestamp
-0.2588941041419659,0.16800145074674552,9.831008204685611,-0.0030782887950623343,0.0038549144443635005,-0.0018228628318652821,0.0
0.053982743426606465,0.014455421777788134,9.773513303416784,0.007038790720261124,-0.015898926758243167,-0.004519223486354125,0.01
0.10544554198405032,0.11867341584411527,9.784254708752023,-0.003682544629529379,-0.01640089061084467,-0.014558239070506091,0.02
0.04470839914601383,-0.018761137621476603,9.790765387057151,0.011832495598196364,0.024101916254872156,-0.016164144059290866,0.03
-0.002801989436497094,-0.07171217822424412,9.723728684815166,0.024822560000582698,0.01893685555294403,0.010622294229436396,0.04
-0.11979472953607007,-0.048594336938555915,9.737786921161412,-3.369172328012989e-05,-0.00890791321189141,-0.018980986822684467,0.05
0.04504581980888181,-0.06573964961728827,9.735002142148849,-0.0030828290876117417,0.0006142433374516031,0.003178825215321438,0.06
-0.0611999467884675,0.004124112599487989,9.867723202796318,-0.009864849527166325,-0.001077757601002419,0.00231212327691978,0.07
-0.018892742936985396,-0.08846968185115572,9.767948550986139,0.007123375775504502,-0.01646565784491149,-0.016175434305121333,0.08
0.04137321290758052,-0.002485820858434202,9.796733249010202,0.008605914801450473,0.00244553798164836,-0.003821698310498901,0.09
-0.008933385706353379,-0.051782966416932044,9.89731021980054,0.0022280823814471405,0.008861922090689409,-0.015607399256922522,0.1
0.05655179513470087,-0.030512349179520223,9.767067611849088,-0.00017467319248942677,-0.008793865772416445,-0.012248920025826254,0.11
0.0054330826091994735,-0.17697465744874835,9.76534234971907,-0.006097001430053295,-0.008202208268975336,-0.007345648928294837,0.12
0.20793585494284694,0.30794196927099104,9.942136195588123,-0.0070920050475685335,-0.008347629755668906,-0.004336731667810813,0.13
0.1263877856766227,-0.04635137010738926,10.0017109850205,-0.002622873738271273,-0.006730909243494002,0.009582245081506085,0.14
0.07601951817044537,0.008780947922117453,9.765532107517108,0.010794434695699141,0.008685120950566578,0.0008409426796857771,0.15
0.126780781260689,-0.07769322962147589,9.833111155751798,-0.0012002907560439203,0.013722971264969137,-0.01768689267671823,0.16
0.011061664591489218,-0.14489469465740165,9.87920771935021,-0.0014472023156511657,-0.0017576338445561435,0.003581124564186084,0.17
0.043343401480734185,0.14822377648556104,9.73044803404198,0.001658698720406342,0.012693894001681074,-0.0008230573580805359,0.18
0.019857767969297807,-0.06954430858497516,9.798372418864044,-0.008559425881136593,-0.012780918656442665,0.020658510576410216,0.19
0.14537600864005987,0.01798819127293357,9.70422001129179,-0.026293487553169768,0.00036381992770210864,-0.011919563880548132,0.2
-0.09880895134282652,-0.18936960860518504,9.832752192357962,-0.0005483672987637056,-0.011453521281982522,0.006817889848068914,0.21
0.11030530172103013,0.07752728539126051,9.726993187882329,-0.011074977290931098,-0.0014837195357879183,0.0001534243408283684,0.22
0.07576464557531294,0.04923452105885686,9.870299018023593,-0.004046903105822762,-0.010937694210136574,-0.006555243578818362,0.23
-0.06744193257014026,0.05050404450340571,9.853221986826911,-0.0015925009111314834,0.011989673294217757,0.008481316985742244,0.24
0.15419200623144932,-0.033960678037257615,9.896073948565903,-0.0016164089350072317,0.007455981458611629,-0.0035964625458554007,0.25
-0.028680563332563597,-0.08568451000465885,9.656711533401094,-0.004970099095106155,0.01279938277720105,-0.005228463533846419,0.26
0.11707079485598122,-0.18045418656508772,9.663272115368983,0.005820030122869194,0.010759472882956622,0.011041031930014787,0.27
0.0807172037797623,-0.07562396461405277,9.945388295449026,0.015139731693559418,-0.016499309191157385,0.010375700104094188,0.28
0.05694603565506218,0.006732362727230321,9.902316553669191,-0.015091288650103079,0.011104707969266006,-0.005891667588555914,0.29
0.09559553260033314,-0.057266293044010964,9.88251316407241,-0.0011385677643559976,0.0009522318527975639,0.0017870536502586191,0.3
0.07232460794492443,0.011766160506294079,9.74992754783141,-0.002628863331709422,0.011182184134421165,0.0015019260050135666,0.31
-0.0378488197140191,-0.11127912341134814,9.812837311147524,-0.0022882023226088164,-0.003710626183719083,0.003893358241320068,0.32
-0.18663578749815088,0.11011939354021737,9.78134912860234,-0.016367838165289274,0.015825244540577623,0.004944816673665812,0.33
-0.13585871528871124,-0.13288567147276517,9.810998749434223,-0.005067094714246403,-0.020047859031417797,-0.00904815313787306,0.34
-0.10516235578144413,-0.0528835317870927,9.92740761757001,-0.011745609663376627,-0.002626622090211207,-0.0092955167044991,0.35000000000000003
0.056442028526019566,-0.03613473140613998,9.873171086847988,0.002684961433131655,-0.006688571516961658,0.01370296999852216,0.36
-0.10382963406474313,0.004004411906956237,9.872812301907869,0.007635770579330278,-0.003030498276538946,0.014671505515828551,0.37
-0.032037598119354055,-0.09064444015662733,9.744670738966347,0.005149396480653974,0.0020764022108030545,0.007208951498499927,0.38
0.03512836657763268,-0.029773513183719263,9.734017871211831,0.004482066365792925,0.0036746872512740366,-0.0008965509883841548,0.39
-0.05131725067104373,0.033976332342715874,9.79897021318707,-0.013794561701526136,-0.017597758052779564,-0.001810560842979458,0.4
-0.038072299605256085,-0.09182269214491788,9.7680206099567,-0.0018934565410584601,-0.0009803272573856879,-0.008480853646712716,0.41000000000000003
-0.04032849958224918,0.07915068477874604,9.849247398489126,-0.019759319889893275,-0.010662003109504728,0.003870093027266122,0.42
-0.08606164520655163,0.10768490341427611,9.84364148219741,-0.0022413682891998404,-0.020393854687468682,-0.0011139226034814823,0.43
-0.015529718152347325,0.011521499700130947,9.883476089130324,0.0005495002095779116,-0.012425870439987712,0.008742675653874326,0.44
0.12445149981238864,0.029791514663784713,9.971306230611894,-0.020675342027193577,-0.014226055438628331,0.001225493911038343,0.45
-0.013833829903601528,-0.07019841944147957,9.690130514806294,0.012322898426446998,-0.00016783239801283843,5.1067824304814935e-05,0.46
-0.06942782891712505,0.0852648921258146,9.679671548131635,0.005182153557806082,0.004913700290828567,0.009172742896568518,0.47000000000000003
0.11375030826782073,0.15549752011877568,9.84823963205677,-0.012631770726842573,-0.000306601322255514,-0.00253884476105108,0.48
-0.03799160678745328,-0.005043276323687551,9.758169378257344,-0.015851680267907037,0.025728767503555263,-0.017420752805897697,0.49
0.021475610547395017,-0.07756005030169988,9.960833849165704,-0.016617345904947494,0.0002660842893960253,0.007580940347563582,0.5
-0.12250092154325908,-0.15833105534189112,9.660392462307154,-0.001808937556664609,-0.000808498938214213,-0.005432655466369478,0.51
-0.17886349731075604,0.02175340139824297,9.75204010153663,-0.02354975386954031,0.02646417201584543,0.020637986335656718,0.52
-0.10449107839141572,-0.13828190387384642,9.73821087184378,-0.011903290676210666,-0.00828235135180474,0.008491281028637254,0.53
-0.17273236456126134,0.12883669615345883,9.86444222656461,0.02384020616505747,-0.002571779103165554,-0.02138403486658012,0.54
0.0015925574185707847,0.1456822987786722,9.777990651070025,-0.008749592547277417,-0.003753912250359316,0.0020906964119202726,0.55
0.007236544403279337,-0.035831059401119525,9.664204545408511,0.0021869873235897783,-0.007514795354523508,-0.0010422571639401065,0.56
0.02046321996085621,0.04690174565376682,9.820181251937212,-0.004865395474540586,0.00649147263482623,-0.003767913686825344,0.5700000000000001
0.02364966376478027,0.05860689711063654,9.653070042160655,-0.008600674813489017,0.0025631223166724805,-0.007104454479533633,0.58
0.05711127751739212,-0.03241285722116854,9.86447346162246,-0.008451535714949316,0.0007626511762893525,0.006981148712645856,0.59
0.10592905217772022,0.016805754719232662,9.80075877001613,0.002921615169846884,-0.01948841559249048,-0.008653748427820233,0.6
-0.013636814252675163,0.07878585730905574,9.82029652673208,0.0019392605601044283,-0.014647150415045487,0.005421272920479111,0.61
-0.19006269894150818,-0.0008445147990703496,9.875421170787503,-0.004566111187388275,-0.012457434817483501,0.008618821424694459,0.62
-0.034815671471139974,0.020957446253319082,9.903028582322008,-0.004047169783443068,-0.007236810264532351,-0.011288121628230478,0.63
-0.13330823525466926,-0.07668593509034993,9.8418729147149,-3.391323733969574e-05,-0.010630526161031722,0.003925722317478824,0.64
-0.07333060077692745,-0.04487871863956246,9.634564107021554,-0.006936015731376695,0.008796767908487657,-0.004758277376936254,0.65
0.08213476873580967,-0.13117135275819872,9.809838626778172,-0.001113755373913346,0.03794192308937724,-0.004236110277486513,0.66
0.1694432212195997,-0.0010826563136401375,9.830497009174582,-0.005514188320709002,-0.017643564805530008,-0.012387013660677482,0.67
0.08321365934854763,-0.025242616041911456,9.932375505700215,0.003192375647306035,0.002475769846367487,0.021494908427707494,0.68
-0.09582563026655963,0.13637850718931843,9.702530757371825,-0.007680732579696774,0.005262172258701695,-0.0030068520065521694,0.6900000000000001
-0.0427885111958006,-0.014007845175388545,9.658069994137307,-0.014964234198286547,0.00895703557339869,-0.0007997338980599002,0.7000000000000001
-0.05227348918143056,-0.09562087891434556,9.961957469852164,-0.011012991342344526,0.003653613641544914,0.013823969798628474,0.71
-0.06991966089872208,-0.14155802104550352,9.899667949226648,-0.018402576466226103,0.0029071425974098097,0.001482159116529429,0.72
0.15532615584008636,-0.0331872425847364,9.88146493225259,-0.0016904809062715169,-0.009483732478957299,0.0013361120339240964,0.73
-0.08842345283255576,-0.076707201962632,9.866367136102205,-0.003835828633813773,-0.007854694173298805,-0.013442200633720116,0.74
-0.04488863953967731,0.02499031749038685,9.695552575148605,0.004757962610830467,0.015743480835626475,-0.0013703774189562944,0.75
0.11350342640047742,-0.00794980528455202,9.922000001732433,-0.015506906388475706,-0.01004946340575621,-0.00771960029362423,0.76
0.012839533239726109,-0.017751298336083337,9.972702474931385,-0.014817710646579512,0.0070861884242141805,0.01206886606249375,0.77
-0.014173874425029168,-0.016709698538709947,9.851714229911769,-0.0005476232537733959,0.0015346162184846873,-0.009418756220377912,0.78
0.0010876121300187657,0.004930436139479216,9.844595948035044,-0.0001609244831398789,-0.010089985663996257,-0.013669371935341918,0.79
0.04271281960334067,-0.03770091792553525,9.822746518851085,-0.010713949483259802,0.009958753906295642,-0.003913303078914492,0.8
-0.05521023057894713,0.040219482503387166,9.870440925256228,0.015393281651481159,-0.001899265198693951,0.01332365672253993,0.81
-0.09364320849771725,0.10040450743246741,9.697566903398403,-0.009167901532919628,-0.015492140829261357,0.009748601525638287,0.8200000000000001
0.0394337601560055,0.08531869110515966,9.761295470905408,-0.002484861567009726,-0.001333012740853246,0.007429724783842239,0.8300000000000001
0.012816879349184072,0.010791846166459802,9.656350218393824,-0.0012701951624345534,-0.009265517555730395,0.007407602469385673,0.84
-0.05646608985550316,0.020931530361804014,9.905515478476584,0.005302698575610014,0.008764660040300914,0.005358962851981562,0.85
0.04861209696474508,-0.2204771231533104,9.940468234304937,-0.01371824304456292,0.016163370710071612,-0.0019396532782336986,0.86
0.1493494855936688,0.16703946903457295,9.71214247175844,-0.007720579091312589,-0.00509700773085356,-0.01187435067522679,0.87
-0.18221636786871767,0.029287773486920122,9.750574196682898,-0.00999143343399443,-0.01310896434365534,-0.008858956820012635,0.88
0.06048679439765156,-0.02596747087402658,9.797583122279207,0.0010592430047295467,-0.004564907415722788,-0.017073031649206906,0.89
-0.12417158094571648,-0.006120925711930181,9.80774920418205,-0.00662270176823398,-0.0008784992504135482,-0.01500823837320682,0.9
0.018508376327790076,0.009723543961332586,9.743910170190048,-0.0002742948267580179,-0.0006173855246615983,0.004169551628428064,0.91
0.058261894587503055,-0.10984307873193096,9.620397896217339,0.005018517161992377,0.008460058415213266,-0.00022676525563621324,0.92
-0.048492322176888716,-0.005643633755375043,9.74493183673748,0.01190984614988657,0.0012043020672548028,-0.005769830885089793,0.93
-0.04340452886662557,0.0835784267276012,9.8512098041512,-0.009024839425696868,-0.013319282239706234,-0.017772256365750052,0.9400000000000001
0.05005343583508755,0.076144364780035,9.739009239817404,0.003151340912751847,-0.0028556161679042192,-0.0020222214403524583,0.9500000000000001
0.1485272008143827,-0.08313020224528202,9.904610285951717,0.005294404917793786,-0.010110329460716995,0.009160802090017513,0.96
0.031387998563743455,-0.10460419054610376,9.660844838218202,0.007963445085593998,-0.0002713186953641363,0.017720606255358033,0.97
0.10306405912161698,0.033684361878887806,9.915572558548474,0.0025927888602270254,-0.016932779230831307,0.020337487775516964,0.98
0.010868269891181842,0.11003861985281456,9.938035339218217,-0.011134607731099788,0.0137042568588676,0.005825604744703529,0.99
-0.06736943226155254,0.019344215546419144,9.705200019653146,-0.02417118391814316,0.010384988377671196,0.014235296129798743,1.0
0.06323131776261812,-0.03365625170402164,9.9058017166563,-0.017154862796815055,0.012711273417032534,0.007045497435695325,1.01
-0.017233365285807604,-0.06311442626635325,9.779294435027461,-0.016009622036490544,-0.005540656171537779,0.006383192585234631,1.02
0.2143784136610234,-0.043299394977682176,9.710508264460447,-0.014112456826408815,0.015748292919545607,0.00148529842605335,1.03
0.11116726336967347,-0.025360316698878112,9.894636804009691,-0.006933843268977935,0.009216696183595606,0.0010929114452703267,1.04
0.23459910498886596,0.015181124323195645,9.861341124604325,0.004561933004121604,-0.005165913715799179,-0.00944983371400409,1.05
-0.09648654629530343,-0.13686688568487482,9.773222874974529,-0.0023181910461052635,0.00028382953284143545,0.0005982588576193072,1.06
-0.07864127373391047,0.0801374785658125,9.83299478423602,-0.008478713179378868,0.013133271675853738,-0.0041819801086768445,1.07
-0.13035790039479475,-0.011757817190757174,9.925155519200406,0.01826026305577901,-0.010980629913360983,-0.0026135171198449236,1.08
0.0780473371499644,0.06443980198905407,9.840192676194475,-0.016721633238163135,0.012069932787325606,-0.004299216688491115,1.09
-0.027650840107269682,0.00826673671798928,9.947678703450638,0.0037709998434423265,-0.0023790089487732355,0.030926280388515907,1.1
-0.1398660253027449,0.16875031682426236,9.729312430294879,-0.002337705761243184,-0.010355853373312,0.010875179607617993,1.11
-0.2145865965266648,-0.012615237416793608,9.810108073107408,0.01530384098705083,0.004764033234961783,0.004104812818969418,1.12
0.01941991304172292,0.046384196727505406,9.73812266923869,0.006437975100248265,0.0009597397761401297,0.0017047290957070782,1.1300000000000001
-0.024937044828715303,0.07179037912518538,9.905527667055548,-0.007474169627691218,-0.0006980559159839375,-0.003022870054227234,1.1400000000000001
0.06486767657731904,0.020666474498481715,9.629881247746404,0.010933650751228144,0.01992042732338309,-0.001973399328522039,1.1500000000000001
0.01642824508118942,0.05156120248620384,9.997156106822423,-0.022290794388439224,-0.0032762120481848295,-0.005639738279307966,1.16
-0.08907297884986075,-0.00821503948722795,9.892232942501867,-0.010642353463677603,0.007099028793004081,0.0006091857783588423,1.17
-0.01942081882117419,-0.04019577267812438,9.76939024111053,0.0016793626078183837,0.007079230907948965,-0.0026502295292680144,1.18
-0.02385430126444678,-0.03676031625928974,9.789376740999783,0.017184790571373714,-0.004815503126943848,-0.006878579178092729,1.19
0.020403090772904676,0.06021354666872324,9.87775023751056,0.008086589236778342,-0.0012861228065772618,0.006580998947174024,1.2
0.07127009909199293,-0.025351416592349296,9.834166779693605,-0.005670513271533106,-0.01966549861957794,-0.012890795647475533,1.21
0.2774426392345094,-0.045465379107255045,9.8118043646751,-0.02119152437672341,-0.0012692714779324859,-0.0009694155110260426,1.22
0.13176140732108219,-0.14162646361050044,9.778940321764368,-0.00513164487374643,0.013185877136052189,0.010296818631174374,1.23
-0.05631850313651124,0.14761273540684317,9.71233078897259,-0.004450779229263946,-0.0027415862354964442,-0.01391568675514062,1.24
0.07428934229178659,0.054845719867420185,9.871104151616633,-0.004230079299721435,0.013338450940232295,-0.00612894544880659,1.25
-0.04761378532975691,-0.03508943294674964,10.030891445730145,0.0021780050518907814,0.002010695784628548,-0.0014092847484719966,1.26
-0.05035007791360122,0.0075059502774898635,9.771632347393922,0.004089263814475053,0.0017654353671395066,0.022677977227897616,1.27
-0.022428336838325638,-0.09280730765841749,9.654884886185654,0.002792553170708575,0.013717564496306109,-0.00031017679968856245,1.28
0.006390258844725,0.009970761792010008,9.864150185617211,0.002247559732436569,0.006254758699318918,-0.012360194055820483,1.29
0.042465488516795546,0.11155861451958847,9.889305541344587,0.007060826480672919,-0.001079637817208055,-0.0026296802836931576,1.3
-0.12959308108744233,-0.09628470745012024,9.92874572675692,0.0015734260690716234,-0.007890994130826078,-0.007127487966975885,1.31
-0.05132395454849114,-0.07322250004978774,9.758229803055302,-0.010536593781980385,-0.0017437675555062285,0.0033889690369725534,1.32
-0.02731056496256385,0.14875398073594465,9.800582362158538,-0.004942315238739674,0.010126125398680566,0.012004031506264019,1.33
-0.10018500662013073,0.12196032740058149,9.652662277226348,0.00020618603369970288,0.00908631733148966,-0.0027177582447448973,1.34
-0.04116164285398694,-0.05412642184979482,9.76733110831938,0.015061120365313858,0.0004993358405653941,-0.007316614343746087,1.35
0.06511514822635021,0.0579143668037023,9.891000328737203,0.004997364753417279,0.001490067645804345,0.008006458980302951,1.36
0.051141482710250055,0.14506341434434206,9.763926710126494,-0.01697076361128671,0.010137304437071152,0.008669164406560218,1.37
0.11606032023346789,-0.11933258144503323,9.985596771074032,0.005390883001579832,-0.010277868215455992,0.0008676146805180153,1.3800000000000001
-0.024059734779667125,0.12862436796897356,9.800984004954609,0.0012293605659516444,-0.011742979514164009,0.0011276711070509484,1.3900000000000001
0.050464382392156365,-0.07018361026664158,9.802146494497777,0.007841522432068836,0.015127739382877217,0.013353130311732988,1.4000000000000001
-0.08330808667395816,-0.05338829893157015,9.767622756821881,0.011371607033349147,-0.01976959355176821,-0.00370426471381298,1.41
-0.09678463245077762,0.10429805012744303,9.948516727708698,-0.0008389132232446866,0.010879938123439273,0.007460896859595722,1.42
-0.11954617585575199,0.19590549437719754,9.842166582838074,-0.0012719142522086757,0.0044321258928354,-0.0015931202602928085,1.43
0.10610241992045366,0.06810262986855527,9.892289073613679,-0.013434032580813628,-0.01894636061962481,0.0024566625934722684,1.44
-0.011776523988713367,-0.13487680506089175,9.94503064627936,-0.0014825803256577578,0.003814931858198446,-0.017645233613656035,1.45
-0.20344102918224066,0.10661649376875926,9.77271584185917,-0.0169225711575583,0.010257870153533157,0.0019049809381791478,1.46
-0.05000653967221256,-0.09079851765735084,9.850546804493066,0.0007135845846254,0.004141560662386854,-0.009507307210252329,1.47
-0.17041895329637508,0.05631102577608737,9.89505049078905,-0.02154940973959182,0.0051131540639043375,0.004835079301992342,1.48
-0.018437409439236333,-0.13209733288682385,9.644149908002847,0.0002183292924483046,0.007143911117452181,0.015758797573815403,1.49
0.09297150397114039,0.002564014815498847,9.739493427929293,-0.010551962652426415,0.015305443606544818,0.010793989994054589,1.5
-0.1694894788569329,0.06602727165665993,9.851948519372314,0.006080466733420417,-0.011106910297327988,0.0008039263464476304,1.51
0.07630612664275346,-0.0839592926390115,9.97746826443866,0.004492081623597593,-0.0035043290150753898,-0.007695937908385467,1.52
-0.10104723411587054,0.09326686624895292,9.782025013124755,0.01787730892523459,-0.009167964920080188,0.007332596311808616,1.53
0.03055491453058376,-0.14428724578503918,9.87164567241606,1.758492911706163e-05,0.005508297792534525,0.008374855995158675,1.54
0.02327122982312689,0.01895748899020978,9.756777479632863,0.006088720590884661,0.002741077205367075,-0.01155407121419059,1.55
0.031060748315291892,-0.17307305920745306,9.650494289401033,-0.00961855334299798,-0.01461526211515843,0.009944221263824424,1.56
-0.1638134071891392,-0.008472612127547081,9.801257489465907,0.002628405228186711,-0.006309882994292336,-0.000529447653415247,1.57
-0.21227458655479606,0.009461168928702118,9.77773072508142,-0.003413704494192494,-0.0009065230106920195,0.00996780792966648,1.58
-0.15192564390987828,0.034141457921944,9.858481219414452,0.003596594872801331,-0.004078003113829764,0.0007283855279114573,1.59
0.15641241646926143,-0.05407924894394261,9.821833130524599,-0.01227005242528548,-0.005605895998110241,0.006391355331893418,1.6
-0.1134392160976848,0.10515282110133789,9.815625855423121,-0.006130393472175017,-0.009953403067817754,-0.0037183461781635538,1.61
0.04896995644845059,0.11376505986373493,9.995011325148562,0.013519991377154202,0.017952366625115717,-0.01971951392867452,1.62
-0.05006494979344615,-0.11439623340702726,9.802050972797751,0.00805407865948851,-0.00038141732653749615,-0.010844083244523024,1.6300000000000001
-0.09978912444470198,-0.025824348898735167,10.014052960208094,0.012660335469487832,-0.0028780146529197963,0.0064996884731351005,1.6400000000000001
-0.040331919968895916,0.11274489346746207,9.71097193452985,-0.008947538923382506,0.009878900498063543,0.0005449284375960483,1.6500000000000001
-0.15802523032624438,0.13358911559091566,9.867732766922463,0.0033057892693937364,-0.006581560947308273,-0.0124394427214797,1.6600000000000001
0.07006400738962747,0.1460217943039618,9.659806067414978,-0.002024650341502519,0.00030976988848290015,-0.0014301135072581044,1.67
-0.05093724237217384,0.06399729192401128,9.581658443398544,0.005081548256048685,0.0009030919397957951,-0.005075016857957558,1.68
0.11123062983817684,-0.17799113598991678,9.995205367433206,0.015558472969302546,0.011477033604458458,-0.004681359414460372,1.69
-0.04567654609815194,-0.14019319246369452,9.712172545754088,-0.00272949653100232,0.006042487960916534,0.0130753878564295,1.7
-0.08715444675241762,0.04066223018108059,9.773955105756475,-0.015855624983785996,-0.007845900723451656,-0.01639055678763975,1.71
0.08552063008839363,-0.2192027878425388,9.741778898147162,0.0008451697020661536,0.0009117374931097544,-0.0020067498995518115,1.72
0.11738418455118958,0.03284731270456143,9.83800614482306,-0.0009602402806966822,-0.0002942402294441102,-0.013372560651343693,1.73
0.24674054416256117,-0.023923834833746056,9.936089583429762,0.013148831393443045,0.008960092989282315,0.0013630665881412302,1.74
0.11854796528351863,0.08700989790459585,9.80659921262442,-0.009430069123458657,0.006382109828276491,0.014329833668271513,1.75
-0.0739463323731635,-0.08359426695265254,9.87117845463248,0.016627040306572832,0.008011893781974817,-0.008567834268550917,1.76
-0.00018678874387439837,-0.1916216180484791,9.780758481707242,-0.005724434926965417,0.004616701824274368,0.0006874516947577281,1.77
0.02963563194775412,-0.12289657103145418,9.814250557815006,0.024111092734108924,0.008519053323463803,-0.029662015381595363,1.78
0.18462214715528916,0.004943324100860948,9.711691080573774,0.012950254285233463,-0.008426114501127555,0.0007357860809657278,1.79
-0.03349345738117238,0.0005635538764823106,9.913467207062393,-0.0028775423154957023,-0.005776624548385004,0.0021358742607791893,1.8
-0.11494682006739061,0.09627964325027077,9.806298048788717,0.010601868195607543,-0.0027057030093527883,0.001605318976681763,1.81
0.05929432241835885,0.09200007164034324,9.737971152656058,-0.011168275581792049,-0.002347477659321172,-0.011253417673311932,1.82
-0.18437633629476705,-0.19653957321174698,9.78206799498897,0.02411457023901006,0.003870667739771825,0.010168829574956127,1.83
0.17658869006124603,0.104575573261558,9.900672184564684,0.0022787001125175468,-0.016156937095319283,-0.001847507486644464,1.84
-0.05660781264705922,-0.014610806464810578,9.712216050259812,0.008200755266530144,-0.0038152708574149584,-0.003174160174606302,1.85
0.1509172737157795,-0.11255077881878682,9.885924755867967,-0.0008013346038705213,0.00025182943466123346,-0.0020975838323827357,1.86
0.02514476614896495,-0.0031931745808102246,9.980215565355858,-0.002562100389305284,0.019122226893437233,-0.013526779039352843,1.87
0.01727433865557605,-0.03574549268599001,9.644522518726383,0.01789413832436357,-0.00780805394018351,0.010757658197681296,1.8800000000000001
-0.12734313515364212,-0.12217358017198228,9.915387474229412,-0.009281828550684707,-0.013413423629123433,-0.00928455725833021,1.8900000000000001
0.03136395160024087,0.014234137247850998,9.924732178221783,-0.008241539316552679,0.005908541625782513,-0.0010160981441252178,1.9000000000000001
0.020441571908139233,0.08322139945588919,9.684939784511075,-0.012680533958664876,-0.009440925339317886,-0.001601646737708107,1.9100000000000001
0.04135470002618787,0.016389010531122225,9.677097025479341,-0.00504297658249297,0.01071992993856679,-0.010955923075697085,1.92
0.0012125723666941448,-0.08464719351912611,9.87804840218491,-0.010256779996937271,0.010152334513108588,0.009019858602544315,1.93
0.24984186394215163,-0.019421968417004023,9.80408817934517,0.003205711384825481,0.005688627574816363,0.001544532785473213,1.94
0.2908617129739006,-0.08703439205048383,9.864772857299293,-0.004282039979685129,0.011078079660898653,-0.01219971393957255,1.95
0.1316347352797744,0.07517521475057125,9.549179765048386,0.0037477355126475315,-0.0020617370644833077,-0.005810983630018568,1.96
0.059922577585653815,-0.03711458346984707,9.533917738919099,-0.010453841863694023,0.015178582410561945,-0.0019020871720409139,1.97
0.008639963914412324,-0.13512073705831873,9.836110399541429,0.01232012509753638,0.0013175793826587113,0.00898185133351638,1.98
-0.05556399773089388,-0.04269290190801326,9.722994502557277,0.0027731125757342583,-0.0023806322388850686,0.004788246414831117,1.99
0.10701250038657328,-0.12988268154090007,9.738182157269852,-0.0029078174308848166,-0.01496441822772751,0.009839426669273262,2.0
0.1463343383139586,0.1285895561401369,9.934481701670181,0.0029373825025216043,0.004170207025543052,-0.005946804657913857,2.0100000000000002
0.1355430289378732,0.0611444479040813,9.891900308653351,-0.009491870719274015,-0.01757991651604559,-0.011562296381433171,2.02
0.07652550258729146,0.06898121019881702,9.94129358459478,0.008344779843021724,0.01066626542852129,-0.007220405506173453,2.0300000000000002
-0.07255597948734105,-0.1638762629641425,9.693052210362577,0.0018741309425217856,-0.006648008841562321,-0.0010285605187738442,2.04
-0.04301671021268289,-0.0242646652509063,9.777879981525853,-0.0021052373011435947,0.013664645871415818,-0.0020929017722539148,2.05
-0.0695744885809924,-0.014827140416984573,9.760952351666614,-0.01080517277024752,0.018138555122006805,-0.019224379620925835,2.06
-0.19485925914613766,0.008801403069345157,9.806158735479121,0.024430983878878588,-0.018562431129055812,-0.0029679808279255964,2.07
0.10451208529655297,-0.051862619811177846,9.754457309464293,0.011405948626021876,0.010669543336191507,-0.012625023994125958,2.08
-0.02683222066551353,0.053586103124403345,9.870769193296391,0.010176175734315226,-0.00557599508193216,0.004164313304755085,2.09
-0.0677964921919766,-0.04532001930697088,9.781903618906677,-0.008408281899397239,0.004619427497809669,-0.005862289982147069,2.1
0.2358927670882364,-0.06293333526800499,9.904483293503416,-0.007620055849189292,0.014453972320466291,-0.0003220141994894988,2.11
0.11733148934520464,-0.03708189637209493,9.98087948298957,0.011090843425907215,-0.003474682650785723,0.006242056211458254,2.12
-0.03385954201985217,-0.042861025405301754,9.930615163588852,-0.0026423148035584314,-0.009185843885743674,0.009204967371707135,2.13
-0.12323786931238026,-0.11326532992417482,9.712988610088946,0.0077212439431252914,-9.706435292570253e-05,0.0003667970892528854,2.14
-0.12796538627115328,-0.012342071704190355,9.820640224745107,0.0010017112151296294,-0.0045269013517519096,0.006737950590315008,2.15
-0.10497204077570987,0.17663165715024967,9.818524685541623,-0.017368366877098935,-0.014727135625937143,-0.004412460348991196,2.16
-0.11976891550226654,0.11778258901625448,9.838820924411099,0.004982216360065231,-0.010394676607917779,0.008856445865323257,2.17
0.029927674674281802,0.10192531972854264,9.868003389721014,0.012114535243734072,-0.014496809049708403,0.01085604058778119,2.18
0.06364837548419323,0.06727340568480451,9.753538739577063,-0.001478668360580302,0.008186959638936134,0.005426155576450237,2.19
0.10086333549528032,-0.011720729630182456,9.772703386588306,-0.019047257410590053,0.005684352792266989,0.014569730527920592,2.2
-0.06524929384517553,0.1924351252864072,9.895299153236339,0.019571077931793593,-0.018355961843685566,-0.015540841642778684,2.21
-0.07201775586186009,-0.004669651452457718,9.775002062209136,0.001485970583144852,0.00928513961176942,-0.010423475406809773,2.22
-0.048575819097774,-0.12650002093853244,9.67037543580342,0.017633841628097027,-0.004301850774998241,0.0014831919131697774,2.23
-0.07489649182520851,-0.013273625928506429,9.78006387787987,-0.003797851798911538,-0.004919942026339816,-0.005544629953298904,2.24
0.05533646928411451,0.10262352906618016,9.765990902758926,-0.0022578951458615444,-0.006604433275698075,-0.00699251468873748,2.25
0.13275748244102853,-0.1659931128932125,9.78239840619937,0.006421768667003146,0.008517745678712827,-0.007907477943328838,2.2600000000000002
-0.13626619446582627,-0.004636599217697826,9.650946851228857,-0.022435700245099395,0.013258807601764497,-0.017643231303635584,2.27
0.10987712377647081,-0.007433950553842582,9.6635674994391,-0.008805482477392908,-0.004973538025085785,-0.006916992602103015,2.2800000000000002
-0.06796647474614502,0.03922672190541427,9.801614244395044,0.004293409461382902,0.01837371914797092,-0.007459444758655758,2.29
-0.06660437578083468,-0.13261790248546831,9.86518827043135,0.006365798011464295,-0.017149177934175048,0.008875595612175092,2.3000000000000003
0.004164299852221059,-0.061945166011802555,9.85223755554422,-0.017357715981409127,0.008319275332633191,-0.0048645206523081335,2.31
-0.0003738929956486356,0.14292691327048235,9.916902830257454,-0.00671046085300221,0.01068765780006151,0.004560034329963301,2.32
0.0018038586385438619,-0.044583989309783,9.831085307097348,0.0015101839007632195,-0.001748058742807877,0.0019550137292414387,2.33
-0.0013026633891905272,-0.011847593931740244,9.70850232302798,0.007624387722344973,-0.010508272444293325,-0.0088339191097251,2.34
-0.11799531603637536,-0.03252065688133934,9.777924471123557,-0.005863701097274479,-0.015189012764658992,-0.007500212360640078,2.35
-0.1851149234908303,0.2060190574347177,9.831424401554896,0.0115426589838358,-0.0006586267077454475,-0.007343318790897362,2.36
-0.00018664377669031876,0.015399520445389368,9.786360815278819,0.017121057436003645,0.0027839421033945834,-0.0012876108184080057,2.37
0.12136848730493764,0.1489676955580324,9.961835910934997,0.007492409464055344,-0.012240531808090989,-0.021187971103290862,2.38
0.05963684759306294,-0.18159320988985544,9.81813090695721,-0.008709728181204331,0.002246315075338006,0.0018717713260656109,2.39
0.15437295448055244,-0.0005293869340680305,9.63262986353293,-0.003907362776168168,-0.007397467327680417,0.00417360752229808,2.4
-0.05523043707800347,0.1990228032794617,9.939873389467405,-0.004869277810855259,-0.010772144144923518,0.00011954239885458364,2.41
-0.11513255309542168,-0.006495565065312486,9.886036265020282,0.001758738656541167,-0.019148038337218717,-0.009150754001047404,2.42
-0.02251227318835394,-0.04144686914999033,9.705874119576615,0.0007719464219969964,0.006824333847627633,0.012145246926025229,2.43
0.051270068716465306,0.024686741624521565,9.82922508114065,-0.011606891164679037,0.005761283278834802,0.007111361702559357,2.44
-0.08093604577137184,0.05696251470017382,9.802153451501777,0.002948038792929805,-0.012687108093609354,-0.000162982400924555,2.45
-0.07734330088575395,0.22280281760571727,9.778515574096545,-0.008094552458330255,0.00192090011514964,0.0023539487913768744,2.46
-0.02657102481303425,-0.005098293865901515,9.721374521350352,-0.003045439319614123,-9.979880688833338e-05,-0.001819280735836882,2.47
0.03381400202604708,0.0010748744725164832,9.902284824220247,0.007274370264316867,-0.000910876325053378,-0.003993140829191101,2.48
-0.011070520170695639,-0.014332429116390264,9.992762866541216,-0.0031399849978422994,-0.0053497666094932525,-0.009416186629104342,2.49
-0.04335270690093217,0.01329696727232781,9.973034515471689,-0.0035778021082733856,0.0010510074364954423,-0.003095416845434977,2.5
-0.02881282457261937,0.09110389991772312,9.81091217272665,0.004292157591375236,0.00047110391622649746,0.0008318380270492753,2.5100000000000002
0.015601981439941563,0.04785825343987321,9.717903310006898,-0.018965428933985392,-0.025929856070155154,0.00626456110099893,2.52
-0.0604169820640981,0.08678037943365592,9.97467102844435,-0.009373868562788693,-0.003959050308667984,-0.011265051666026793,2.5300000000000002
0.02749703882403949,0.044114185648466836,9.778975203908947,-0.007726519903453561,0.010294946852565122,0.015357552840263982,2.54
-0.044393088068473585,-0.08325257464394115,9.872536656198246,-0.0073187475848705,-0.018616009944074335,0.0038001488381856495,2.5500000000000003
0.08602062830944578,0.016161045051105046,9.70087445822918,0.008173347151510075,-0.013015372533593472,-0.00232160410072343,2.56
-0.01081753889447077,0.026115417791447795,9.68491288642704,0.013741922921255152,-0.003207759218068603,-0.01329782896027101,2.57
0.15475216553185753,-0.09510890497949358,9.869988646349183,0.015209987439725212,0.003580871402835129,-0.0016486334642708074,2.58
0.007728774527388272,0.12468887905118203,9.822424035697285,-0.011357356482851022,-0.008429195268534145,0.021865795214127463,2.59
-0.024209122859008888,0.026509420480184422,9.703037960839273,0.008452460600524474,0.003144146603695262,0.00014020538850859334,2.6
0.029964576047231125,-0.04936766774316084,9.572446769135286,0.007591085442347651,0.0014940136486322373,0.016068376604130564,2.61
0.023534555809044864,-0.09354043325881432,9.800479117905084,-0.024069752625956068,0.001214470686866548,0.0005763284739663724,2.62
0.012228187835050787,0.044880981332929004,9.975404307976401,-0.0024072657773617084,0.0014208647951268014,0.00811172779907903,2.63
-0.016980530580142438,0.22772605770320342,9.723173196850842,-0.01252740064856634,-0.020712490985499637,0.005942880845911616,2.64
0.14713700029403062,-0.09623114973504714,9.79369167189457,0.009365930156143043,0.012417035467981535,-0.005718290902942933,2.65
0.026051935112651827,0.07012621624048702,9.916564826450998,-0.0032990252984821428,-0.013982199261431696,0.0023448675889444614,2.66
0.05773031019991784,-0.02759331034878687,9.749019984775066,0.005274604765632954,0.0019155138483169668,-0.005888108029677375,2.67
0.1696868379344813,0.147145238702271,9.701430775672142,0.005965335737666397,0.0014867624063557897,0.010554069659900774,2.68
-0.07885155207071544,-0.22468738497136764,9.898100258199019,0.0012401017749098676,0.009233286252900852,0.006740318550219821,2.69
-0.05840539662671756,-0.06838112823553297,9.74124620476456,-0.008128670809615657,-0.0050116648910271564,0.004968743107851419,2.7
0.11711268428315064,0.05684743528022526,9.714701464157079,0.005657580887657736,0.0026511097057444915,0.015579138913418474,2.71
0.036176962121590765,-0.019655819150285955,9.926466021391109,-0.0011308961908666256,0.00911205891244065,-0.005912451608763981,2.72
-0.0774396227835214,-0.06353392694061606,9.726100245094047,-0.013834023347231432,0.01294435324731839,-0.0017523693710801305,2.73
-0.010374619851686985,-0.1823147265631636,9.889540423608258,0.00946506737832598,0.0035924625535855236,-0.013220246071907112,2.74
-0.16636799013767065,0.05809847303519225,9.682925782202762,0.017050072027050677,0.021047244969204345,-0.011347012622100512,2.75
0.07484080531879751,-0.006702566052344969,10.180892915833251,0.013832965249808087,-0.03710865670434237,-0.011135121210384158,2.7600000000000002
0.02241625706005293,-0.03172832248964657,9.91419207585857,0.00101903817366379,-0.019628403088319393,0.00957380521392259,2.77
0.015143166316312146,-0.08205257121096626,9.732815355138742,0.005136952195423018,0.0030582698676783248,0.019082040220602954,2.7800000000000002
-0.008953398191260663,0.03907714441704968,9.8854599276187,-0.00017140240208674383,0.006197409014287586,-0.005217690983657304,2.79
0.1459371847923264,0.005634887319322406,9.79960672187396,-0.01574700529484929,0.009399584676834381,-0.002039759998051846,2.8000000000000003
-0.14781195135487088,-0.024093989518330416,9.787825350573513,-0.016656293474482324,0.006000518651542723,-0.013970418691147481,2.81
0.08245063830645874,-0.0516474041577171,9.954401685755784,-0.006387520065284772,-0.006333605469368523,-0.010748188627405253,2.82
-0.04795353279404832,-0.07110268796891539,9.964459644301158,0.019037259179110245,0.016767310525901795,0.004729896501600457,2.83
0.05593217782167709,0.10884862659827743,9.922559902264476,0.001978219771819082,0.008742093043766932,-0.0069817493572177074,2.84
-0.1277796537917236,-0.04915732808779849,9.906057641402153,0.0073193019567081245,0.010680672985275511,-0.0007804139076251516,2.85
-0.047958340500544976,-0.08726824202148867,9.80965022553791,-0.0182345019302885,-0.01743440212657083,-0.00047560660738999583,2.86
0.026403506524379467,-0.08957652833469447,9.795223821041878,0.0029494604462684767,-0.010861416440629717,-0.002055826938724945,2.87
0.0009173589561002663,-0.08079134304513427,9.828763927522045,-0.0208062682849829,-0.016515226168658897,0.0037965044101834896,2.88
-0.08810441252172568,0.18510091079779126,9.70883731595711,0.006976617881193732,0.004594708588906423,0.011031360840497608,2.89
0.016801928328445653,0.06475195559062073,9.820594099776816,0.0049405851355697914,0.009697837408011759,0.012903706558747313,2.9
-0.09367089749973107,0.02197554029993352,9.791073481068313,-0.004098392245928701,0.010049446165425096,0.01832822484272915,2.91
-0.1341772310980647,-0.08427273091136532,9.56494985744539,0.007673710988802985,-0.010268625081108443,-0.002477950401431803,2.92
0.0040940259057627975,-0.09484263857484608,9.770168956288728,0.010273595958256734,-0.011004176934396832,-0.0053233266566787,2.93
-0.04110388848873882,0.11522184079634928,9.858380609933453,-0.006767652079419508,0.0010311039255275726,-0.004268799721803679,2.94
0.17495527054949941,-0.05140306533279143,9.861838977847723,-6.556016755938073e-05,-0.0026456073229800055,-0.010246665319950738,2.95
-0.0036222267608339923,0.000723345097532423,10.007049894450262,0.011077050987052115,0.004114101855208967,-0.011442891698712742,2.96
-0.13428743424507336,0.13038244678791233,9.813709780097126,0.0140032552643753,0.019926586491720914,0.006549509103424057,2.97
-0.049774363979356334,0.05128387588246267,9.849115421381724,0.008700175144276075,0.012038752976066863,0.00939364444516896,2.98
-0.08232051002083209,-0.08860857593562471,9.529145130099327,-0.00047869493364549224,0.0018865375520673673,-0.012948238718805878,2.99
0.046805837596873526,0.06318465422458767,9.836894948235003,-0.02379648924339561,-0.004736232419684154,0.0029429344932957653,3.0
-0.04451693414885036,-0.2649963505926191,9.823488014303441,-0.0017536389621142796,0.0025844890246324516,0.008383582911921662,3.0100000000000002
0.07185159293585956,-0.09572411343247218,9.785598802290677,-0.02348166134010494,0.0034897652586050416,0.007866503296400856,3.02
0.0656953673841957,0.022384994102171447,9.777271926590423,0.01788184480070775,0.0051369297018656135,-0.0018812709212053986,3.0300000000000002
-0.11645317309349756,0.031086266274200077,9.688150190873163,-0.008523309390946667,0.0013246389016531447,0.0033214610681529732,3.04
-0.038768405088044994,0.009831099676923596,9.856724874199832,0.006829381697154013,-0.01160541480336338,0.0004564495317592456,3.0500000000000003
0.17375641954481505,-0.13136249379406506,9.946525116878071,-0.003538977252668408,0.0027249834492819773,0.008832082471948183,3.06
-0.02912088794407441,-0.019638429507028696,9.829432047318065,-0.0012573894977787833,-0.0018595569944783678,-0.003188489667136139,3.0700000000000003
-0.07756312327502755,-0.12257218712687397,9.739778379188344,0.006496380777192045,0.0004599341366102502,0.005693799766764385,3.08
0.06095473806113171,-0.05849801548927295,9.848208599154328,0.01155172481009374,-0.009577411999981095,0.0019497827244063675,3.09
0.06398417378355234,0.0365541439129589,9.696045931866303,-0.006587866671264007,0.0034309478296357734,0.006193977858593033,3.1
-0.04636245155963228,-0.07880586008200674,9.9073455495685,-0.015210953278333883,0.022206175702563766,-0.01007689977709024,3.11
0.0016091246494125703,0.019960771109523878,9.707575665984798,-0.024557704558411615,-0.010016494949054655,0.006715769965532748,3.12
-0.1196925455210183,0.13916954672246895,9.802259190759134,-0.011268990213068611,-0.010761408077810206,0.004348782025288654,3.13
0.07776455556141579,0.020540212192459415,9.822101778089213,0.01004815876046681,0.012952840433048077,-0.013102582232558495,3.14
0.08432777356414933,0.046454558496744104,9.898396917173967,-0.009352295423770444,0.01580162010050928,-0.00026301690257284126,3.15
0.08924336352910262,0.06974253032261261,9.801697619636757,0.00558496231045003,0.02368151365286819,0.0013652068619522542,3.16
-0.05709643158821037,-0.05826050410390526,9.936977767079881,0.0011418897708893423,0.008064709629083691,-0.0029313943047443074,3.17
-0.0354437924987637,0.06280766318997964,9.810995431291431,0.0050748823404985245,-0.0017647756038310875,-0.012825061194502487,3.18
-0.06232613242190543,-0.00789368922604172,9.864772520995768,-0.012277704879857741,-0.00705232986260336,0.005028075758606639,3.19
0.02926171381915381,-0.02579788365613175,9.759996101833918,0.014153981729974457,-0.017383714338090973,0.0009863931504549776,3.2
0.11001713964845267,-0.058428530148743496,9.74330802268538,-0.0008022103606211218,-0.00867721176667336,0.01859639815256427,3.21
0.03951166085234467,-0.012915242900542202,9.705998198620282,0.0019549059450444293,0.00787378353019412,-0.008581915019916727,3.22
0.21566486007987493,0.12448695753953531,10.0380920920873,-0.010293118253012087,-0.0030804609969616492,-0.005332078903325227,3.23
-0.04404959413546954,-0.016904735732905362,9.941276811526789,-0.0053011716987914305,-0.0008244533156396382,-0.002439274594225413,3.24
0.024704043969493744,-0.09961446073152458,9.657318646518583,0.010422897287577823,-0.016010580330079568,-0.003900954726263942,3.25
0.13168589632325153,-0.1419601095366835,9.741630083788765,0.013623249136909397,-0.016844191004235686,0.007731219788535232,3.2600000000000002
-0.08802521184688827,-0.17366249572402492,9.841601601314052,-0.004067794103552563,0.004048849317439259,-0.005843976064925312,3.27
0.014561405204072026,-0.1033681605257822,9.780484573938752,0.006847255735039043,-0.005645584601516575,-0.011702624931154145,3.2800000000000002
-0.030132548494752727,-0.11387440448227609,9.922494341731687,-0.010312756063504252,0.002815909283157289,-0.013040714973699503,3.29
-0.019727640970595567,-0.1552500006145186,9.72337501755263,-0.0012491966140794545,-0.012045477286392286,-0.01274402703578723,3.3000000000000003
0.11320490870422872,0.014060865586903538,9.749392931281848,-0.0021055433772268896,-0.0039028758622741016,0.0014302604617475129,3.31
-0.008752466239788958,-0.014834915477135256,9.96356086861138,-0.013723567649826145,0.016222848631280977,0.012785656875882456,3.3200000000000003
0.09725237192216414,-0.07860114618943546,9.772381973309443,0.013640768670395792,-0.0004269878490490175,-0.00835632900682919,3.33
-0.02692717992862469,0.08166064208705678,9.620428124412035,0.004199519141882102,-0.01277373990190101,-0.003122597078301283,3.34
0.01739307226600006,-0.0830193307674981,9.899546720887377,-0.011076083447091883,-0.003673985161526527,-0.0030470113903468595,3.35
0.016753833544484314,-0.033448363299484495,9.704262987142874,-0.004700184791684731,-0.0020815658496615634,-0.003919138575465988,3.36
0.010885343525421289,0.16920558540145497,9.793517027546319,-0.010855834003465794,0.001869978048484302,0.005922929845845537,3.37
0.11159952994934758,0.04965448419488367,9.633482109628126,-0.023005976831610837,0.01250665534958216,-0.006112305458026346,3.38
0.04365879217599424,-0.08143125936665206,10.05952811031981,-0.002578059740287026,-0.00018171510734027178,-0.011937038418972059,3.39
0.19314824704407368,-0.025951089106793637,9.82552546133492,0.003676230397832208,-0.008361182856704431,0.0029370720762169817,3.4
-0.08411017763985557,0.10557641679678212,9.874302708064873,0.019412362635874585,-0.00661676123167566,-0.0026395747950294147,3.41
-0.09170460584250392,0.1299125987562285,9.900444689868072,0.0028121635363788644,-0.004271632354509708,-0.00804072553953142,3.42
0.0036011359350376854,-0.07289957975103722,9.775328955131512,0.01396398820123241,-0.005134093097476698,-0.008193111946467515,3.43
-0.05102827748163446,0.02986468541257489,9.65062208688569,0.011507604704998571,0.017495063127020618,0.017117760427864306,3.44
-0.06596203540178605,-9.363836813934758e-05,9.773214355526793,0.0150025637168529,0.0004151266323893578,0.0049328322705103,3.45
0.04067749897648053,-0.11426636812552458,9.698009781812738,-0.006773352266782197,0.011226908026534204,-0.0011387417380154562,3.46
0.13667550484004748,0.0962805842514771,9.894512315164647,-0.00832981696022995,0.004641171427702775,0.009417982031757213,3.47
0.1019081149236071,0.0431107066719178,9.871266969044552,-0.003903194632457394,0.0006715928531116395,-0.00348887692138097,3.48
0.05052417505702783,-0.05679823539397943,9.541917054251694,-0.004658154269303376,-0.02143236742577762,-0.007438689570571802,3.49
0.16103112140903125,-0.005485193914887392,9.803638849759551,0.00490462651650126,0.014190386113744327,0.014606143627801264,3.5
0.11111294078277063,0.03055459181619662,9.895056909241145,0.0027001571348742814,0.0024611315025159413,-0.0051262304585842754,3.5100000000000002
-0.048385635550313916,0.09385080421885983,9.891331246426047,0.0013866355148319765,0.009774267400805147,-0.012300970698386506,3.52
0.0016599900796317468,-0.039191313924999784,9.64217650295932,0.003482081620342859,-0.0037871244091569668,-0.01269913288867698,3.5300000000000002
0.0917664137291773,-0.028318510434506956,9.770747029686872,0.006627908555245962,-0.01633666878408771,0.013990850247469768,3.54
0.014241935748354287,0.09140847271438782,9.920372182379008,0.007899307345077313,0.00613109667041113,-0.001235759893892843,3.5500000000000003
-0.03570801017285615,-0.061338259427051435,9.82269245817498,-0.003728199785949376,0.013508472071285907,-0.002551938717153617,3.56
0.05833284137394763,0.17934553543267395,9.761271307155166,0.006994644283152756,-0.0025368068435653057,0.012810746873463631,3.5700000000000003
-0.05957192029547671,-0.13357784987358584,9.730208903318076,0.011412587627213254,0.015003553888600113,0.002495907328749378,3.58
0.04823953226430448,0.004021529451786195,9.626087718855812,0.0020030665143734526,0.0034935421543644107,-0.014968146027218274,3.59
-0.12359675499063388,-0.09415382408559007,9.73817797234092,0.0027655681582389497,0.03416855614565726,0.012602713470210629,3.6
-0.005963440402744504,0.025498921976320244,9.785340040725258,-0.0032571507710361007,-0.007634251075438331,-0.000617465111788069,3.61
0.022562335605617406,0.030546717762761827,10.085696583709582,-0.003237082226058658,0.009982507381203171,0.022558385954712858,3.62
0.028183537240096503,0.09011865389338815,9.788972359047719,-0.006412139464228036,0.008992656150813577,-0.0012301051503279558,3.63
-0.09721690089203466,-0.012469084042181238,10.00506194233,0.0020619236202812107,-0.005580261996687837,-0.020405489438073587,3.64
0.006167603120036745,0.03579900162427184,9.827867592306513,0.002774748266867753,-0.001102602050760886,0.00975399214523585,3.65
0.1788368284205655,-0.15893333465706005,9.774864959499169,-0.01002912194058034,-0.01521928876488328,0.009521538831156967,3.66
0.015863222656621608,0.06391346891212708,9.901327945525969,-0.0084197179383287,-0.00038958823899135206,0.012343749263075259,3.67
-0.011482120206430886,0.11849537258344862,9.757498642259423,-0.0078088418110902535,-0.01048684421069804,0.0020704002450582385,3.68
-0.06732350993422205,0.11203477571742163,9.956788694785262,-0.004597202789980368,-0.008971083321351157,0.008248881478993653,3.69
-0.09064669254610022,0.0023599666155374754,9.86463056979374,0.005925111004653938,0.008086095683243649,0.007785405408917644,3.7
0.006265341807586643,-0.0022955487633279296,9.926110353578954,-0.01276175440453924,-0.006818440091445559,-0.0025233851133067485,3.71
-0.07493847582746592,-0.08702576065575138,9.767701161851049,-0.007772633356359073,0.0060609085945016305,0.0055058527086445375,3.72
-0.07300476169190824,0.1160507816893577,9.764508724598006,0.006824729768704301,-0.0038032235457851316,-0.0020092168908154347,3.73
-0.059622886186228276,0.1587699117536007,9.925127252446934,0.004935253292252736,0.020070241028151418,-0.004842543360491511,3.74
0.0042953330181360735,0.03387821179487881,9.722707143129456,0.0056491493210530245,0.008061537909573096,0.007674676706831093,3.75
0.052434079886349974,-0.10346009995489198,9.86628942149275,-0.019384604705186045,-0.0017288168745852098,0.0064517646208093,3.7600000000000002
0.04626391472776051,-0.182730990874001,9.85952238616283,-0.004083996754756655,-0.01684355961238455,-0.01128810737655554,3.77
-0.010584673718739205,0.10115988130596719,9.792304618142087,-0.002193702019288671,-0.002483609960923634,-0.00011029992824749982,3.7800000000000002
-0.023109312021437987,-0.09479181019454025,9.701817950648417,-0.006854674234780549,-0.002930348090766716,-0.0023903555584568782,3.79
0.027800172143611662,-0.10890764692994225,9.800434346934212,0.0008037208337959811,0.008002291449066959,0.015275699721735533,3.8000000000000003
0.13222735656520548,-0.03906749920778568,9.995474756269834,0.002569551115997092,-0.004901337096328489,-0.002323104300615001,3.81
-0.11083148425431202,-0.021249572936641994,9.836670351916725,0.014086200334127021,-0.00839818992493607,-0.0169498941555279,3.8200000000000003
0.06931521529431343,-0.0198969739631689,9.729837820837856,-0.010797212640892265,-0.0122871935131417,-0.009686752642939214,3.83
0.12504596456562303,-0.0033077055249130815,9.861036444134493,0.0002357783407595719,-0.00631237150624698,0.005300675681980445,3.84
-0.009407404083258864,0.013535302870743221,9.724846974442423,0.003066940940906261,-0.008860756001191288,0.012115647640161927,3.85
0.20032052704538106,0.07428591472556166,9.778314595782298,0.006457681204538144,-0.00020320111327477934,-0.00831492042203216,3.86
0.0752303125179322,0.11376730335225456,9.790608023523921,-0.01186337978738021,0.021193745278896163,-0.0002999650537295152,3.87
0.08557338361989686,-0.04487905828440905,9.950643949981052,-0.004562225261735694,-0.004991073750594201,0.0003127825663124446,3.88
0.035862245142361956,0.12474322909899263,9.854880115756384,-0.010029459069399189,0.0009899382150518024,-0.014779132427828686,3.89
0.17574695674139468,-0.025653701312985017,9.876799004901413,-0.001661426428529956,-0.004506219343895974,0.007114192627560959,3.9
0.05494533873457119,0.020063153870498986,9.864243970509456,-0.002621217095522247,0.009845664126119,-0.0005322116832460151,3.91
0.164141089679516,0.050428963694427634,9.810412619691705,-0.008914709818369726,-0.008908155071361312,-0.003919036107987085,3.92
-0.03406501934955733,0.09038536988955524,9.827859642434513,0.01916447021187333,-0.003398351594156152,-0.030520683295487898,3.93
-0.010798653562669248,0.0736308483220399,9.852674075121158,0.013403727837868272,0.007286550519239821,-0.006687367920223709,3.94
0.027591544483338892,-0.09612615936702905,9.881937136965748,-0.005850518837775943,-0.005734470246005547,-0.026392051845257072,3.95
0.10536079360908886,-0.07688009874382176,9.813519042095722,0.006312935573992412,-0.0027995971988957835,-0.0033662140355472433,3.96
-0.17758651879894807,-0.01471532634998146,9.873381677196233,-0.0028007297136623875,-0.02017740797986113,0.0019834162008041155,3.97
-0.005666946910969351,-0.04312871137981873,9.677111754390978,3.971145367747295e-05,-0.004168490291936632,0.0021983200484128845,3.98
-0.12873109000972538,-0.010958726708552219,9.79356645212267,-0.00032326951073517073,0.0013503446022760976,-0.005119096810884511,3.99
-0.10575127761602439,0.04946618742467977,9.870547549222042,-0.011033736634861242,4.4400907824389727e-05,0.018404210870027887,4.0
-0.06850013252933278,0.013434097266774012,9.806344033389948,-0.01623961289470787,-0.0032086687552357806,-0.00426793137273552,4.01
-0.018750302987198764,-0.0268889841766989,9.806557138558961,-0.00784771342383723,-0.017162466190621353,0.0015288205085659552,4.0200000000000005
-0.04634846189149617,-0.0007443853650100324,9.840388165522157,0.009914819309405494,-0.000528675615302153,0.009488026939587977,4.03
-0.23372712269601337,-0.05878626401506222,9.820389255125047,-0.0016444694208669279,0.008091060875938963,0.0010598105759094397,4.04
0.10732204923590401,0.05283723842253655,9.835117572105572,0.008078397021766128,0.01156971212913391,0.006445416724584156,4.05
0.06013033916085181,0.2661694797036058,9.743663399628693,0.010824516025214583,-0.008289129449448955,0.006683625372338738,4.0600000000000005
0.12611478422679365,-0.043242056740243506,9.970859443872074,-0.017682506155242927,0.006148382052265179,-0.01035397798750068,4.07
0.08395132597163868,0.14872841451162921,9.690155301105497,0.0065642939844919295,0.014121634856924517,-0.01131975669882357,4.08
-0.057186121445476815,0.0609342637221405,9.844149888273451,0.0049309067851958654,0.001768135737702638,-0.004268994230358283,4.09
0.1726896137759588,-0.08681369897909856,9.819908446864199,-0.01569724525262286,0.006811191203104894,0.00831246783358448,4.1
-0.12250891831558015,0.08459913112997777,9.82577802404063,-0.009464833599556442,-0.021860780052562534,-0.00033570983686954014,4.11
-0.012913719868951082,0.0659502426119795,9.765806236049793,0.010422462616123793,-0.006422077285255881,0.0012856286116753547,4.12
-0.03688471751522695,0.014464747326867894,9.862824127793921,0.013869737365666721,-0.0015302265226461672,0.0013613881893668625,4.13
0.06567848799065122,-0.025088206375413626,9.898400754699093,0.0029436716889297823,0.006162709828423179,0.004480085851172816,4.14
-0.10090148672569543,-0.05313198340065666,9.857998958101136,0.0017401366077382367,0.0009106256764543397,0.011120908392730151,4.15
0.07890775869072633,-0.19136884005492416,9.762039806561535,0.007910782930582927,-0.013899687387965858,-0.008507579567930497,4.16
-0.08544198943842377,-0.007172090493337777,9.822953763650045,0.017851813486584347,-0.006339837838515381,0.00011534924172842123,4.17
0.04824535740625286,0.06368816779799491,9.810060985863771,0.0030710277965608074,0.012158560686834081,0.015851724662455453,4.18
0.05504543381119839,0.02989586559738579,9.792260079304784,0.00020647481936934397,-0.0005090627923719091,0.01713614455971931,4.19
0.022219285457369554,0.02855469212888124,9.708981608358805,-0.006507288637054586,0.007699900613049014,0.0020302166920084354,4.2
0.14373716949867263,0.14171520720331873,9.894339592105206,-0.0024773727698879588,0.0034418991677684775,-0.003217409285556119,4.21
-0.03957823321977807,-0.1847429178294305,9.663715673738691,-0.02336836464511049,0.01503378345947513,0.006784993756027123,4.22
-0.009391535953774255,-0.0654380140129444,9.793428768754152,0.010728219582239665,-0.008144293630910937,-0.02022288506711636,4.23
0.0296272876393694,-0.12850612623384802,9.974017200994288,-0.017587776388483616,0.008282212944994552,0.0060920861389853545,4.24
0.043903553078906886,0.03781572233851138,9.96875526583901,0.002890536476447377,0.008505498997889535,0.007638316410359552,4.25
-0.015109558674440178,0.09205327520856552,9.743231028262914,-0.002311865098759798,-0.0037780133620132768,0.005431626083115668,4.26
0.008818151827277425,-0.033921151137796875,9.876751830255442,0.00048577425030115975,-0.004201587422313971,-0.0004978468961469167,4.2700000000000005
0.06931152941533733,-0.017780814707689042,9.855530539933556,0.014236745680344061,0.010224063388095068,-0.006679380666586833,4.28
0.1436715365199573,0.10967337469922062,9.733701598144691,0.0037951799971389128,0.012804483206759998,-0.007002404429367682,4.29
-0.053505948511972816,0.06075450664576232,9.678186428212095,-8.439763883619611e-05,-0.007490597879939795,-0.0013742821161541628,4.3
-0.014634690077881488,0.1679827010595516,9.763160077069097,0.0088198416775998,0.005326113187891703,-0.011067929480181206,4.3100000000000005
-0.08659692039473457,0.23210413186606768,9.831824783972694,0.03211886142383179,0.010315237009074702,-0.010813017947094305,4.32
-0.16891965745135426,0.03091060745665157,9.994176511158209,0.007531371943869971,-0.003670093922648031,-0.012916749038704989,4.33
-0.060012801065637306,0.005490204652357326,9.768737693928845,0.01852643573369855,0.005439363514211405,0.004568637476044748,4.34
-0.027432870926576654,-0.0484144612420907,9.918243610826167,0.006070344148541307,0.002506764660797492,0.014134460355950973,4.3500000000000005
-0.1864431468214758,0.052024156730617714,9.937541323143545,0.0028393567561599453,-0.012570461477320135,0.005321161448957695,4.36
-0.09412083733274017,-0.06059392548488318,9.920671578095302,-0.006945835396028577,0.0007493315710469121,0.012852259355726115,4.37
-0.09133880874217716,-0.05346006034591847,9.838477314885004,-0.024161792873545362,0.0041610247386737655,0.006597066348163435,4.38
-0.14468913168925177,0.1571298083729685,10.044802016450127,-0.0008311373763032809,0.00011945138012434806,0.007671879826788717,4.39
0.0004119798788978024,0.0374150123268481,9.832118093085597,-0.0041518352784562906,0.006375261133002676,0.0012186168070986094,4.4
0.18313420636830335,-0.07144365481764225,9.765046820454447,-0.0007493393251802169,-0.005855233579940231,0.01740189465926628,4.41
-0.0040897652045491645,-0.053054000849008257,9.689043911587282,-0.0065162731238035945,0.010331723508538232,0.0036836324171396367,4.42
-0.1701607022667575,0.04356732562630469,9.950778841755977,-0.00914093601279718,-0.003379044570432828,0.0079108316169555,4.43
-0.051999080923282065,0.13026869500899374,9.776390140234328,-0.011822474440267827,-0.005197676098975339,-0.013034377332346985,4.44
-0.010442345937062123,-0.01255507462306013,9.674179994428945,0.022465923871230264,-0.002489143845353823,0.002896549392512785,4.45
0.1376775424809893,-0.05159042876809109,9.86945690064385,0.004079675593907391,-0.0019004360247797413,-0.006506480917650639,4.46
0.006269416397196455,-0.005825319298788864,9.803396920342994,-0.00170791277610586,0.011952548152474188,-0.00262539841154562,4.47
0.22168222397279813,-0.1082184270150644,9.843006526122286,0.008070732825953332,0.014767677849743168,0.0040782932384247315,4.48
0.061158405448942854,0.03576090182481291,9.768615264475551,0.010305059082852822,-0.0036371535929822147,0.015545533606611293,4.49
-0.06028102236483221,-0.1150633080200826,9.774915034647496,0.008411123431550451,-0.006288366431886835,0.008837570625179684,4.5
0.14989484145478735,0.0220365453553203,9.612159686547866,-0.006254361398407571,0.005504747327289019,-0.014226731741727115,4.51
-0.15677202243801372,0.003753911641949146,9.744746784059704,-0.009864011282986114,0.009966109021853886,-0.007925654700179124,4.5200000000000005
-0.0714163294172411,-0.07103953903619556,9.785265788547067,-0.013985923606935624,-0.0022774427781603397,0.003830522584833684,4.53
-0.04210393383871425,-0.23267623056235337,9.685202929935125,0.0015680908449561058,-0.0029152763251035357,-0.0034648010977623633,4.54
-0.0536429438125951,-0.007526478852922777,9.675846622590834,-0.0025176073041576932,-0.0003949322180799176,-0.00351896997159523,4.55
-0.10675133945923172,0.02863629704424793,9.802036242917287,0.0031083903177667577,-0.0008735585771455267,0.011853488155301486,4.5600000000000005
-0.04711750565689366,-0.09449756629380918,9.995234303013062,-0.012313675757037115,0.005046414075244358,0.00777015280676488,4.57
0.12849413221943093,0.011559368634413614,9.74869964769285,-0.003616532952255634,0.003951432429195207,-0.005210429660331563,4.58
0.11738536738581828,-0.06342706457669232,9.95547642822282,-0.009071016407278096,0.00023942692230630256,0.008377772350920819,4.59
-0.10263993219967676,0.12472711130373249,9.97510539014818,-0.009565087498682168,0.0036707379947136954,-0.006480235448810082,4.6000000000000005
0.07306019084880053,0.22189825882119774,9.7485748138777,0.009616274394712281,0.02443677310569982,0.0013380244337944673,4.61
0.1961709112224486,0.09670975368268662,9.784066864782641,0.008974847842247398,-0.019346833198417842,-0.0065843331301811536,4.62
-0.00012419386310048166,-0.07503977410727221,9.81048519635213,-0.0022330489316488987,-0.007918869934861537,-0.0038254201456481246,4.63
0.09781470965494997,0.02947616615579047,9.72602263661461,-0.0023787331664576923,0.006618275258002518,-0.0031177901074228758,4.64
0.012304738055359601,-0.023893045926741366,9.995919926402065,0.004138237813030162,0.011863494687891104,-0.007606468226152797,4.65
0.02882324041943144,0.015025323385228526,9.689159926835016,0.008711067350593515,0.00025318778892438246,-0.002389663282380919,4.66
-0.2293828018957413,-0.11131332245685557,9.74072921936555,0.010470741330852427,0.0007308038013449768,-0.010080454983602797,4.67
0.09076491139385695,-0.024797863746901364,9.767685342077923,0.00401794224092,-0.015488805083443054,-0.007182528624794522,4.68
0.04199552418663701,0.19422086556472196,9.612510529588864,0.003487755290460936,-0.006613088438272994,0.025167071178881135,4.69
0.0715811849177136,-0.04784240538044548,9.89778073479088,0.0031004598987523415,-0.0006857918623724165,-0.012762733930669463,4.7
0.0069263927886140525,0.03828240280347867,9.717839137980512,-0.0009733275851331626,-0.004145899346873957,0.008786419638825725,4.71
0.1033825425828719,-0.016633848917450664,9.882499694657193,-0.013196147711399398,-0.011303414520141093,0.007422997592795805,4.72
0.04913376125370139,0.07509179225668572,9.783218794362707,0.015261851916834593,0.00034187762659656324,0.00039256463092513525,4.73
0.10280328961450154,-0.006260189694184278,9.740641150940801,0.0014148698545909375,0.005428690815286347,0.017899708691627953,4.74
-0.1864970087731609,-0.09152059703146065,9.871043012118093,-0.013887814173747556,-0.00495742781961066,-0.008927192170167134,4.75
0.03378495985794721,0.08785109204403274,9.890212305729962,0.0024304562510364097,0.01585062528008293,-0.00015349624441694828,4.76
-0.09877454863755568,-0.04281150868067931,9.838361149425067,-0.0027594534581586905,-0.013017457130029124,-0.014556768317413673,4.7700000000000005
0.027523955714561135,0.021993469001676633,9.84845533468981,0.002689763593347976,0.0002800582845540871,-0.007504256620185036,4.78
-0.09967344036342744,-0.09834965341811779,9.764312806164408,0.012584273597089633,0.018942340670587397,-0.007818598928812292,4.79
0.07185949266499564,-0.09249371471799514,9.851399963548742,0.0030423077434536157,0.004688544069272604,0.006126963664755366,4.8
0.1919825813714228,-0.007545460582640247,9.608326858054191,0.010837847439977502,0.004127091360822256,-0.0038241699310292082,4.8100000000000005
-0.17243638494003274,0.1376882017091786,9.845635630388875,0.0008409664498247925,0.006261643572257455,0.010928061368379099,4.82
0.0028204742511623387,-0.13135698130220985,9.89074079780657,-0.0003194102199092732,-0.0014244492382369672,0.0058087427293273645,4.83
0.08695641989481863,0.019698136007293022,9.90624004215517,-0.010590162857490563,-0.029164557623225097,-0.03218494009727943,4.84
-0.15968045178875537,0.08604603119778473,9.915872816983963,0.0064370750487980615,0.003749887933379938,-0.003940151431798473,4.8500000000000005
0.10407237124643427,0.12162853630992938,9.823491727786122,0.01710544213592091,0.012123316359119904,0.012786670024913769,4.86
0.04839170209390395,0.03296121233498109,9.72964913267212,-0.018160300280364965,0.000462097136157373,0.01327263135650477,4.87
0.08293286430807068,-0.02984009129902612,9.776976305880734,-0.015221900514687841,-0.003982856292885076,0.002540610398003986,4.88
0.12408227735965363,-0.021596176446461605,9.758313218038962,0.00037810672159162875,-0.005505573193065189,0.006260483397819557,4.89
-0.030744368034037003,-0.011045847889022471,9.837932549417078,0.00918375681349997,-0.006906758372464623,0.0012774178258359652,4.9
-0.01651543525703594,-0.02742440835879923,9.92699031408413,0.005301784884474802,-0.005772442806725886,-0.0037261257242372915,4.91
-0.05214108885614286,0.1044342165524739,9.781017146434886,-0.003337354145896978,-0.008009617828761728,0.018836498752385897,4.92
-0.05846519948317968,-0.10375669542733115,9.695883638906569,0.0037963752723164765,-0.014761805501707519,0.012149126571824945,4.93
0.027743897988590113,0.0787606325354863,10.018639194452765,-0.0202008068489316,-0.004672266072212329,0.002395713428781184,4.94
-0.020149099721992615,0.03674971103076269,9.866421487208475,0.006970842436329401,-0.014910381870962759,-0.011272680615588006,4.95
-0.07597564887158455,-0.039102757308553886,9.69520670326433,-0.002927524801588609,-0.007463138129918917,-0.008834397018931347,4.96
0.016181923097659097,0.0919713229364129,9.887782148240898,0.007453610284886874,-0.015411375018889117,-0.015220892857460878,4.97
-0.022917680664768597,0.06377524280168842,9.765339672951022,-0.003067254176888663,-0.007825852613504753,0.003959349792584334,4.98
0.14171635252265122,-0.044607164927736614,9.935574093398841,-4.036646717172152e-05,0.007095217280605677,-0.004483835880959093,4.99
-0.11826963781100241,-0.041387576348475535,9.657174545523803,0.0014290578025196276,0.010071979958410608,0.009515742273725439,5.0
0.022718500082143846,-0.169499410889547,9.833565698922325,-0.009075423806006072,0.0021217887827627165,-0.0011376610299018751,5.01
-0.04327609966365435,-0.052850135220685136,9.916797563598541,-0.004565156585082851,0.002345407353435653,0.005216239832386032,5.0200000000000005
0.026429849445014305,-0.05116610657071392,9.778378652655443,-0.00575359001124849,-0.010878613931681711,0.0005651504593704509,5.03
0.021200611292663367,0.0001956962915662617,9.901592794225827,0.006198544808261675,0.016861794841099623,0.0034743132490176604,5.04
0.00763883929124118,0.0530672548893691,9.851101669295149,0.011300133030759042,-0.0009765005874966991,-0.01021974192865335,5.05
-0.01287779016547097,0.03099991504107797,9.818816997635476,-0.002304680162619788,0.008056148467461041,-0.0036324343901835907,5.0600000000000005
-0.02636370679423211,0.043372119597667645,9.941245706328568,0.0032178492721334417,0.009363502603929343,-0.007881335004551487,5.07
-0.09559516698479614,0.07096968477364808,9.766012621359778,-0.005676877830762951,-0.00792811084831836,0.0003244991819595007,5.08
0.08060430472458002,0.06188904733684382,9.82210383792048,-0.0036763568446629446,0.003610347937571683,0.002603049804965361,5.09
0.10824845349029194,0.10023495790387078,9.802891794252025,0.0020879452325075327,-0.014861438681849881,-0.01595418543804148,5.1000000000000005
-0.023043389921590645,-0.07608148821605902,9.661759698767792,0.003754969250010909,-0.002017635303904072,0.013175315137667246,5.11
0.03692194317847003,-0.22011322446370887,9.929928770004738,0.01070770367473386,0.01983463015914202,-0.0018630852583305024,5.12
0.14346378858446296,0.038128014344980005,9.717273627294388,0.007960560593612932,-0.0008620105269615837,-0.007985407401534887,5.13
-0.018133923212140062,-0.04999493706257658,9.8028710993324,0.005889236737894157,-0.004594185956770177,0.011547694061083707,5.14
-0.1357753167925341,-0.047461257928288945,9.807874218947257,0.00036966834585022327,0.0049470097887996875,0.02206685150694969,5.15
0.003362461172727792,-0.00035707904592397063,9.672439146046017,0.009782929586337329,-0.012154927337192254,-0.010071869806135345,5.16
0.05658957857031393,-0.009576439841838591,9.886720602865369,-0.005693401464152888,0.019169072474985126,0.021086470841316034,5.17
-0.12152228710552902,0.08251649424848356,9.758639691966243,-0.0011517304898389599,0.007721536432378656,-0.0027106509353886986,5.18
-0.046212758540594756,0.19931594520695728,9.714991672021531,-0.006099895209401057,-0.00887289839369736,0.012153487817043885,5.19
-0.022285713236270214,-0.039036334888036005,9.787588129916692,-0.005354103396467866,-0.003910315947532938,-0.0059586806560998715,5.2
0.10044123206844371,0.054004678806007234,9.637178177160328,-0.006695631522600625,0.012986277778052491,-0.0009148087453741056,5.21
0.07745218710987462,0.10432122842073233,9.77293246341598,-0.005254905046615147,-0.0046808586509234085,-0.007318564678775665,5.22
0.046150599554913296,-0.027517873207905448,9.684736029851038,0.01278087322151238,-0.011080294983415466,0.00846200688027052,5.23
0.1347114104812376,-0.07742792323134405,9.711523249046406,0.0015200375691536187,-8.429369607242134e-05,-0.0003340318125485626,5.24
0.10152289477484272,-0.0019161259318618254,9.774312693279459,-0.0063339488112772934,-0.0015337915139807426,0.021666220619103598,5.25
0.024801238268620254,-0.00811630704130086,9.900629966827648,0.010261088949682733,0.0059110345629888855,-0.017275649047592854,5.26
-0.012870287279131379,-0.08292439081358081,9.666806059204365,-0.0035222023170203877,-0.0091577771636937,0.00986966267749718,5.2700000000000005
-0.12575509076023164,-0.10518230864490721,10.039639108530238,0.008785634421717807,-0.017371428446073717,0.010484513731797904,5.28
-0.020857256250162534,0.09191142001459846,9.861551030906899,-0.0008264174605443142,-0.003509559565975206,0.008462434439572484,5.29
-0.11457593766378334,0.22775900762297205,9.676583168004878,0.003678804033060816,0.006233538618126882,-0.00125751785102382,5.3
-0.032274544995984956,-0.0415140700265452,9.842475776269513,0.000909867954412189,0.00344522566966751,0.005639415223397631,5.3100000000000005
0.001151610651558772,0.013778311166526967,9.76661176392414,0.010568172730869622,0.0007090884111393775,0.0025599385078473196,5.32
-0.023973768217579374,-0.011746884131565702,9.891465162554006,0.006274417037376002,-0.010819929799093797,0.009421048001683686,5.33
-0.04723308931430131,-0.11200312931432513,9.664212830061834,0.0034016693522335084,0.004615411335627528,-0.0010099978359159735,5.34
0.0087117585032321,0.15140518345102022,9.771541756502375,0.013018905881880575,0.00611650042335408,-0.008393406610425825,5.3500000000000005
-0.1168367390053645,0.043770162602926,9.8495284611225,0.001240907868785106,-0.002214133191384122,-1.67268780221696e-05,5.36
0.11649341759608223,0.19452272910898408,9.812725093657782,0.0022880988747931343,-0.00846605712704973,-0.002271829426214906,5.37
0.24489848883218168,-0.09446533185683079,9.53923945412208,0.0006060924156593983,-0.0005009504113028146,0.01349378230722349,5.38
-0.029600702233699545,0.1064851334986005,9.802122458674237,-0.012078432244444284,-0.0009122029132237622,-0.0006338903512034805,5.39
-0.014139352454886699,-0.0523164218545708,9.61855092746575,0.0026120975639641404,-0.00881229195560617,-0.002502704236626792,5.4
-0.030258728177559115,-0.07375070664611147,9.812349090487674,0.012398965380804566,0.0033210804285038055,-0.0065448468306574335,5.41
0.13383514566761878,0.018762039207317352,9.74003339789326,0.0051397151308488365,-0.02270507903480182,0.012551407172194436,5.42
0.00848906947104357,-0.026733533579887492,9.715706411424117,-0.0098604521930715,0.0006945266643471846,-0.002416903175737455,5.43
0.17536489187977639,0.13150824813244047,9.734610571164287,0.004710071541527278,-0.0021415920077250314,0.005415889845132202,5.44
-0.16554620997881594,0.04990048612159639,9.803070862861624,0.002235865870186666,0.005287091025015742,-0.008008892079966986,5.45
-0.02246838719127644,-0.009260696107079011,9.728923742688279,0.0032970789905554395,-0.0055934895181842794,0.013833623028994702,5.46
-0.05979090280638179,-0.07372251814654422,9.771468596408436,-0.002937038273486379,0.007530587168434819,0.011389742154798696,5.47
-0.07665440433418799,-0.03377349254439556,9.910258634813626,0.0030920157450579347,0.0063030168325195835,-0.013464337806156948,5.48
0.12920527372161159,0.1306128176161017,9.784168452098033,-0.002269910533561287,0.012580376120728074,-0.009681956027466588,5.49
-0.045804228569776374,0.06327998659283877,9.793137772752107,0.011647473618920972,0.01577353522000355,0.0071661350571626085,5.5
-0.12453972026871818,0.08522058220382342,9.668323184137545,-0.00625028046736017,0.012559238978072814,-0.005544339647196961,5.51
0.10873761244091279,-0.04720625039212439,10.111971788541279,-0.008965854902301415,-0.005553687107325483,-0.008096105713695423,5.5200000000000005
-0.08322491038696829,-0.14990552658652467,9.859796728785692,-0.015957014337783897,0.006963075975713177,0.0208962063228772,5.53
-0.11889278725159487,-0.09336139429544832,9.657841064774304,0.007978835123659957,0.006226922769900404,-0.00040667290695435814,5.54
0.08263247992903604,0.039345142278621986,9.877838495401196,-0.0009866298883892944,0.013274792355447526,-0.015132380037051713,5.55
-0.032455078141651376,-0.010328526599356586,9.913179392076556,-0.010274890014200068,0.006673113330566351,-0.007823535852776979,5.5600000000000005
0.12460784845364754,0.05853457036280927,9.840741279921515,0.01738424563482555,0.01779316736830262,-0.025472281096510334,5.57
-0.03474238460293679,-0.010804787439470408,9.774148382099867,-0.01482034714373651,0.004800832831968187,-0.019989194710783132,5.58
-0.01260304894226033,0.09005220600040183,9.736663151450003,-0.007509400343457399,0.0036922663947373062,0.016446061534837964,5.59
0.09691319757097797,0.07741112962831512,9.99777447977131,0.017343342135080545,0.007144933152625558,-0.003578260543027954,5.6000000000000005
-0.06347818263234516,-0.002836392970965341,9.787636648314251,0.02386276798614876,-0.004518099704975556,0.020487752231232188,5.61
0.14129186593188567,0.0051321709920604175,9.80947925496921,0.0014171726844998311,0.009422517614315968,0.024152050084387526,5.62
-0.09957939870469013,0.04839337272108413,9.781814482889693,0.0009605237747126142,0.011694863528122433,-0.009347563659698355,5.63
0.08105561992387868,0.04788864232403678,9.800320286525901,-0.008086044612043227,0.005978096702252614,-0.0008869415045849301,5.64
-0.0037707269779956687,-0.080823623755485,9.837521716375889,-0.0038301457032974217,0.0018905489837182665,-0.0010686996967675746,5.65
0.13042572789565887,0.022533346683547055,9.672064966433453,0.005402751179954033,0.0010938861514109112,-0.001338812020883085,5.66
-0.050528707140509804,-0.01898707396718624,9.8504358918002,-0.01571333464925641,-0.01717402904951015,-0.0032538618021065936,5.67
-0.06918695299265795,0.1117401545874056,9.868547768148131,-0.017755105215284894,0.0012355997659040544,0.01425524344970244,5.68
0.1501393070280712,-0.059906030390961575,9.777492707349124,-0.0013736717207140587,0.0001834202347458866,-0.020967443048303815,5.69
0.02267443361998936,0.05991474880025099,9.911161771031026,-0.012845327900202513,0.0067452364384106315,0.010146879901078544,5.7
0.06033260697504464,-0.06912107868275587,10.040444426387749,0.0011988177069284889,0.008709026613369928,-0.0015344284611256826,5.71
-0.1209914716363053,-0.0024952307376877657,9.713216112227402,0.018191957249595565,0.001445677832631572,-0.004988966585258967,5.72
0.03179562292851627,-0.04812528334322635,9.777601231263436,0.005739420901271287,0.005508623216689351,0.007336932047566507,5.73
0.05227166409618981,0.035974162342009265,9.910868901302571,-0.0009639809182587835,0.013235187869574883,0.010684938609657815,5.74
0.06785033393711659,0.04027475929012675,9.844062320501056,0.0008900940603540149,0.00197933074944523,-0.009438291204880859,5.75
0.20728288072577175,0.17380498698447777,9.88126956120844,0.004700565962560857,-0.00232174699437579,0.002133060192259213,5.76
0.0596537598734614,-0.06856498518387635,9.939530086694546,-0.015300230063484176,0.00854715853547802,0.0038995040751477355,5.7700000000000005
0.07573019842336995,-0.09515826364109502,9.915511605620544,-0.008860771362756245,0.005156099326414417,0.013572222394816815,5.78
-0.0012343122782599962,-0.15804245566998257,9.868324270373307,-0.011405581744112452,0.0035598870061965804,0.0025485135255970026,5.79
0.06437046049798383,-0.044946248671895485,9.969884105526676,0.0010085581423733224,-0.001124202284354563,-0.007659379377385769,5.8
0.096983883053455,-0.10872258600916106,9.885887318087814,-0.013333945874593009,5.7057591850496176e-05,-0.008126163725136143,5.8100000000000005
-0.12724847513619678,-0.21278251579508806,9.78930290312676,0.0013341735689714096,-0.007381421870927182,-0.003273955362385454,5.82
-0.004753109248909236,0.026455267013516155,9.921040207551581,-0.0026370202026781402,0.0016041975086178732,0.01049126471051882,5.83
-0.00795488333812241,0.07271952875903798,9.775549969725231,-0.00010715948733171305,-0.00984244544647657,0.011702017867571624,5.84
0.16705552639309806,-0.013728343449072783,9.719272064282332,-0.017067526216073034,0.0026389614971265465,0.012225047988516929,5.8500000000000005
0.04292306928018231,-0.032393223737915616,9.8931162736136,-0.016917366704247597,-0.006160872088741237,-0.003098143355904508,5.86
0.10481694956862336,0.03652900488107416,9.70570814602476,0.007546094648958683,-0.0014721726732088367,-0.013937721869001385,5.87
0.11144361537828443,0.09736787595139515,9.835722108734549,0.000273891645370546,0.008364945278800176,-0.0011557975249435776,5.88
-0.002248746456275273,-0.11525287598549246,9.729670623049786,0.023641635779043248,-0.003750360479741036,0.00917719777533278,5.89
-0.0054037743905283745,0.07077853625170713,10.021097233403564,0.010725698337296703,-0.0010124904580722056,0.001987723915884644,5.9
-0.03153818728393877,0.09946865932785817,9.814396800604332,-0.02895072340288264,-0.0005841835802281347,-0.013404045635233905,5.91
0.15042437259562436,-0.03850795688671413,9.78582000069837,-0.008830307430174043,0.0029346803720431353,-0.005510786480369033,5.92
0.029205074986938213,-0.09665972759469921,9.910665636146495,-0.0072244824735366335,-0.004633885665915201,0.007275635390195559,5.93
0.06451505664072389,0.005369808542413253,9.656416190972859,0.004498813497299069,-0.004498587253866702,-0.005823736957421439,5.94
0.15105630573668125,0.05509442897808403,9.608510401106782,-0.02774709800018189,-0.008282633390415768,0.008964236853021555,5.95
-0.18805606825063978,-0.11990817702949844,9.71673162782571,0.007253612353839784,0.0051766848950592585,0.0034992221227980315,5.96
0.2447678308932734,-0.11137016011475752,9.809854235176372,0.008468285472902832,0.01108001179362523,-0.009792400950531877,5.97
-0.15274641142266143,0.12926036574961375,9.827211639915665,0.004003464579721219,-0.00011922068958909793,-0.0008639701630531717,5.98
0.11164550072490809,-0.16931966782546073,9.768477609224584,0.004832539843582185,-0.0023861128771906614,-0.009961170084206834,5.99
-0.012766320394567652,-0.027485130827346962,9.797590740663392,-0.0027734146113716626,0.0013813143413726396,0.005633122093524136,6.0
0.02480715335924199,-0.07614387631277733,9.714655119951768,0.0083150636347723,0.00911934701322771,-0.0009824232215070348,6.01
0.05172605821768405,0.014979869624036211,9.835908127450537,0.0032385476366933843,0.003141852029673099,0.011569039127655303,6.0200000000000005
0.07865807760691913,-0.10765932417727662,9.928989076125015,-0.0015431202148480008,0.0035588205613114572,-0.013085850886471389,6.03
-0.08477639531404353,0.053563838911346064,9.780550025767996,0.008010650662365268,-0.014382150282634128,0.0020558431910451887,6.04
0.004287646498676025,-0.03374341367164677,9.802783100104737,-0.004426636175610779,-0.01269252573135526,0.00866230627987556,6.05
0.10134208406400387,0.09048843109282399,9.864825069143123,0.004015425513207011,0.0027998705270766257,-0.0029530869274040947,6.0600000000000005
-0.07017840280765505,0.1052093093350492,9.79197497864029,-0.0034310405057877934,-0.0047524829546105735,0.003752871589438098,6.07
0.06760590061674111,0.1771101094407916,9.818907582366515,-0.0015942306250468627,-0.0031984650477351645,-0.010620934615157163,6.08
0.04027550809314676,-0.031591828624412635,9.953229843832172,0.009994240244997067,0.0025290529606241236,0.011154084014446035,6.09
-0.041607900299574715,0.09429177307728845,9.635389507486444,-0.015308938394997121,-0.007928847753377925,0.01103162375295036,6.1000000000000005
-0.07745708405538061,0.07237363367885487,9.869254324930798,0.0001880119369106288,-0.009843933116269311,-0.00013932846629303335,6.11
0.05388046583430445,0.2194871159953622,9.809745652738663,-0.019598500584390867,0.011339810744570479,-0.006961148136090203,6.12
0.19302553316280457,0.04497000735138086,9.948149535873492,-0.01049921060792164,0.005284755053365231,0.0045590395413167934,6.13
0.03428897413457712,0.03630196457784654,9.789472190144792,0.0003930842119526808,-0.0012030839977879406,0.007056299101006073,6.140000000000001
0.04227025599894973,-0.11448177324438612,9.764987720391664,0.003177239977174258,-0.004941723737982537,-0.00176012966891873,6.15
0.00503903464964324,0.0023554102849441946,9.825562595206254,-2.9801856616772732e-05,0.013410697846102522,-0.003751273586877862,6.16
0.03130766621574498,0.044670753023175816,9.772680056340656,0.019248345539289616,-0.0017489838091401984,0.012742243748249385,6.17
0.06440672576670424,-0.009472803191843647,9.762780020876788,-0.020725617388033895,-0.011371528892517331,-0.0026589111057112196,6.18
0.02134517222231496,0.015081189573057896,9.876200311961803,-0.0033364882311505847,0.00476438350943803,-0.01684430603075246,6.19
-0.11607893484207239,0.0033815798013379357,9.857998042280343,0.028004575078772978,-0.011414848403999507,0.006409915859481793,6.2
-0.06890274151963431,-0.09850379049614945,9.867327273506904,-0.01136679812928284,0.027962489375318637,0.0072591824839992524,6.21
-0.26289214526342597,0.23861314295468072,9.624277626664112,-0.017313246717584746,0.0034672420477536493,-0.0065150019107768275,6.22
-0.10057745248658961,0.005277424094952809,9.841785726919673,0.0030360018739581953,0.013398795623774312,0.010787151353141698,6.23
-0.1517734869089571,-0.014007673829104459,9.787180578983088,-0.003807260527239923,-0.0031235704984954654,0.0006182124588190613,6.24
-0.09920845111500386,0.15417603869232963,9.806645128884746,0.00839898094901004,0.0016534537483891727,-0.003958531140855991,6.25
-0.15033775222135226,0.024780720918263235,10.077867695313293,0.0037808379264546556,-0.005426992390922809,-5.944338655839644e-06,6.26
0.03499158773693268,0.03899213479337449,9.751746367913455,9.95341934109125e-05,-0.003668768318993665,0.006471230856087113,6.2700000000000005
0.06947658770428243,0.08692869242989107,9.809603539169373,-0.006405240542582426,0.004826136461393589,0.009002475679718082,6.28
-0.09165784901258106,-0.03530949684465611,9.831281401562032,0.0029617220064143343,0.004824362515612947,0.0035485659627813777,6.29
-0.09819732919122642,-0.09827907836408789,9.708305200194935,-0.016500337143295723,-0.010439935170033596,0.013581798932118281,6.3
-0.03156295924746193,0.021440074153083386,9.825767632128859,0.0043469530365098045,-0.01591255152553809,0.0097703702540641,6.3100000000000005
0.024410263358698732,0.04300618471255714,9.969098843196766,-0.019457947026698435,-0.006223039625200048,-0.007770112762969377,6.32
0.17274761959379992,-0.14209364898628812,9.982051501662944,-0.01218759308525241,0.0023893719615903464,0.003987756721584615,6.33
-0.053124079698680174,0.18305442940743474,9.82472396970524,0.006202121013918493,0.009049300700664509,-0.0035523877705888433,6.34
0.021151613641375737,0.03202780626359832,9.851771192070242,0.0014618053310304436,-0.003621858869608068,0.0017121969117991596,6.3500000000000005
-0.05129689673451296,0.20022577524198387,9.95210966978312,-0.0007608277420918712,-0.0010554045718688828,-0.008386617107196147,6.36
0.11017407138125308,0.0366569849161664,9.845291728893958,-0.007308662147888912,0.0013804062850501567,0.0014187586775610596,6.37
0.08031666933405644,-0.04166366302725311,9.72817753698136,0.0023965048691384863,-0.002689493477746996,-0.0014691264886504422,6.38
-0.18330040341881382,0.23888956355436514,9.877824988634762,-0.017733637423114037,0.005918852292325875,-0.005464299990240308,6.390000000000001
0.08159968405620993,0.10950503591994927,9.764443202293936,0.008160616489151206,-0.010731872056888412,-0.007511714301808445,6.4
-0.03731013063904417,-0.16632077971609718,9.660027550809895,-0.010347840270554456,0.010143213733582443,0.010623136894609943,6.41
0.001884093392140394,-0.013109403280815855,9.92924378118446,0.01934871345002243,-0.0012454630956594045,-0.0012318373395446105,6.42
0.060558403220516435,-0.03107715227949542,9.858090582850773,-0.004122956081793644,0.00677912669930509,0.013707635763572135,6.43
-0.0074943847693388806,0.0313692856132224,9.7370601528854,-0.003511337688855521,0.0036276645997774717,0.020118209649942324,6.44
0.13485131552794163,0.04354678960229266,9.824673122868267,0.007285397685983297,-0.009720939760912024,0.0011876651055468656,6.45
-0.027479603858933645,-0.04912638641837174,9.769025767069177,0.002061610453966715,0.0028289741147692667,-0.0016518656234674987,6.46
-0.19455381369119404,0.060520211845104394,9.846188196070592,0.00028147819896445227,-0.0012531302504411716,0.015712587940528325,6.47
-0.04463584109745958,0.015695180358480575,9.571349995780569,-0.010496942734550254,0.008451232374478888,-0.0030763090998779962,6.48
0.018429874628325234,0.05017291438167927,9.959444036732618,0.011210245653073159,0.007743214495565026,0.003656404298097911,6.49
0.13376217601113546,-0.10688316225670419,9.823083439109796,-0.0006945813799864776,0.013077496862904988,-0.0006818603569048707,6.5
-0.022414828142950573,0.006119001320757408,9.906348258583735,-0.0015035275658624773,0.0031534018934785127,0.0015006838663706992,6.51
0.048123367785797774,0.14939927398645164,9.713307268609297,-0.010343160721542706,0.000624655334749359,0.018484651483576853,6.5200000000000005
0.18431607800505673,-0.03669004850085005,9.757179782085462,0.0031631505071140088,0.0011390863597790747,0.0045960018878211375,6.53
-0.10549458426566985,0.02915407166307798,9.909978479968867,-0.016124143770030096,0.015883934057985216,-0.0014475777087573948,6.54
0.05887432969259641,-0.1629200732923486,9.991608276134649,0.005435634556432739,-0.014254402083833282,-0.007173516272231967,6.55
-0.001108790878089588,-0.1657568615180671,9.669720740100091,-0.004995329005616266,0.007680622665054441,-0.007645925186048078,6.5600000000000005
0.057641567768714846,-0.2026293729969788,9.974371279652305,0.003975082692757766,-0.009092394502719842,-0.01240331682898482,6.57
-0.029228636217039024,0.05318988940340962,9.87626529206192,-0.007983406001684144,-0.004107680648364155,0.0046931015748858315,6.58
0.04819439104607376,-0.07760615948111557,9.933445587524304,-0.018512187316668465,-0.013308865943352205,0.004268449449250325,6.59
0.04175263990548563,0.015207758766933564,9.88037084804183,-0.023779748699556593,0.014810496998383521,-0.006591797471762959,6.6000000000000005
-0.10603736615393522,-0.017885202694467525,9.810026718857907,-0.017307013620846162,-0.0022424955131004312,0.007351775072749395,6.61
0.1446456450108447,0.021322495155159188,9.742562585675959,0.005042883396725504,-0.01683055623414111,0.00364943620607562,6.62
0.006661201684025313,-0.14122087410117812,9.71205519251996,0.011514531362202799,-0.0024401997626273954,0.0018394456172394717,6.63
-0.005737982301564699,-0.06943175865262337,9.800620459141799,0.004033578070766166,-0.008949720007931625,-0.01482405254184946,6.640000000000001
-0.18540919184583338,-0.195033377114976,9.862326457968866,0.00123813077575144,0.008339284053440484,0.0029123596611106777,6.65
0.039250121407795394,-0.06753755872586913,9.833091074511083,-0.01259187929136713,-0.006416561334625266,-0.02376265794783167,6.66
0.03787835451716683,0.032408797761122606,9.809295528099458,-0.00525361925440908,-0.007991397044047862,-0.0012182266870632858,6.67
-0.13627645183210862,-0.010418257784218241,9.701712314121872,-0.0001875508608301516,0.004315445083963035,0.015307417863624087,6.68
-0.12275002905938487,0.022228666042144136,9.861103745370764,-0.00023764651768206046,-0.00901762369653111,-0.0023842455155320746,6.69
0.07090869598763494,0.09835824776056216,9.751340281151883,-0.012786124000235363,-0.0026117154758192778,-0.0032332585971433536,6.7
-0.0050666728725248895,-0.08838728670021437,9.841422537715202,0.01825697447580526,-0.011374040066985175,-0.0008557065072863377,6.71
-0.06205129822988095,0.023630553102108195,9.808351655069293,-0.010042537254311123,0.0028036006999639764,0.006583758904253527,6.72
-0.10657276852184375,0.08341806329506397,9.910972171331041,-0.003906462330810314,-0.0030794415096966656,0.004080113326769257,6.73
0.2702369793889707,-0.12154158364278736,9.894506676889012,-0.022405080040696,0.010327491171413792,0.003760377006535512,6.74
0.0345804465527192,0.19394191065427663,9.68902296924936,-0.0019995848233811723,0.012288982796746235,-0.011301417191193845,6.75
-0.024157894653028148,-0.06288894055946606,9.76650663280341,0.0020100070032855154,0.00036546867132355846,-0.01905186884892782,6.76
0.014524108037056878,-0.002005473015942209,9.778092924179282,0.0070348411422984,-0.006068859976174786,-0.01157531345140638,6.7700000000000005
4.751842461739007e-05,0.13331194488069575,9.817851033481837,0.006618873841379719,0.006899033055758108,-0.015672856532466216,6.78
-0.0009725508487265915,0.09981880464932258,9.96151435619778,-0.012836723046533159,0.005720419155455898,0.0016238855831948954,6.79
0.05046873060546813,0.07012784116362918,9.783591575425952,0.004118778402794658,-0.0015167250369158003,-0.008158352872970662,6.8
0.025215032694186762,-0.0037132733165315956,9.704470602023495,1.7581402730689526e-05,0.002016419968454461,0.004722269684353505,6.8100000000000005
-0.13291938695538905,-0.07363350518132764,9.832153650770502,0.0027873101755502058,-0.012018938681445499,-0.007073408647023954,6.82
-0.11747879893768819,0.0876593951581254,9.844327251475114,-0.005817521455293262,-0.017957077492437287,0.0036778142399532484,6.83
0.08402971541711884,-0.10403166175351178,9.67945206062287,-0.030777653107557215,-0.005674787056889683,-0.015879357019125403,6.84
-0.058903965607428055,0.08570830902408705,9.863190711328572,-0.027774874982695343,-0.0015710145182774766,-0.004167438632720652,6.8500000000000005
-0.10362150173853649,0.013087660255959713,9.80006275377526,0.0017585796949024144,-0.015495040063390269,0.008240844763888245,6.86
0.08381037534603678,-0.014872560035979863,9.812569809802573,-0.002757272863738503,-0.0023759430586154724,0.0014186839715056151,6.87
0.07491272656455783,0.046287298785276564,9.699415013820685,0.001407649878085354,-0.013009719121477224,0.0003233669654972962,6.88
0.012990443808667072,0.06999892377900867,9.871030290784338,0.010413958604781084,-0.0016572701059883255,-0.003135314838407042,6.890000000000001
0.23245773786294832,0.02706138881014555,9.785028830520018,0.0015192549393482913,-0.01784863997743507,-0.004272101902527193,6.9
0.061740606898149,0.06692866983231495,9.896388572373253,-0.00486213029215299,-0.0055588732450466425,0.007597760104924312,6.91
0.05703933218541575,0.06076800675184301,9.782703148191423,0.0033030550933790025,-0.0004066916806306976,0.0033561034916443746,6.92
0.08366217545002225,0.007872998499967185,9.727372485499822,0.003973455357064912,-0.004193681189223212,0.005687477893786826,6.93
-0.07616338119429311,-0.018916337385692778,9.654247668825873,0.007262488794629853,0.0009878714081831233,-0.006202945669303096,6.94
-0.17037506631176058,-0.2795355860858906,9.843701143402555,0.0018728940466990623,-0.013311501518188704,0.0031164542322816065,6.95
-0.07743421015150051,-0.17009866218679515,9.808419121655266,-0.0003211094860174232,0.01906614898960936,-0.0021886925859472338,6.96
0.08928053643391713,-0.07946812780430873,9.927123431232316,-0.00209971899454876,-0.006422003609874607,0.007986247963997132,6.97
0.042779755406170156,-0.026064503074218884,9.569680709717924,0.008568771304175993,0.003460915820852547,0.00826914071437008,6.98
-0.07631158893408319,-0.20443797913458694,9.699463370305178,0.009389576485496341,-0.007383309100670243,-0.0042783449570460855,6.99
-0.06860033991833611,0.06061861924595823,9.801643790163103,-0.008453159914284714,-0.003530086134573816,-0.0095426580137232,7.0
0.04285093017347369,0.021330640744023435,9.738678521035636,0.027769421830291595,0.012305980872845741,-0.007201077131747018,7.01
0.016798534883233414,-0.04258958574221923,9.81956735466053,0.008382375564258703,0.005142819378741268,-0.01073276621320722,7.0200000000000005
0.056482593691600205,0.03040760456251934,9.727118161716445,-0.007087612278126924,-0.004009452826713821,0.007754990643583085,7.03
-0.1541919607790856,-0.049064411423997034,9.677627277442316,-0.015183599050715866,-0.0017893663514960622,-0.0065101799593588385,7.04
0.11720276529306287,-0.026383071277578996,10.012734637638108,-0.0031514945123679865,0.009591134548885322,-0.0018500856932217164,7.05
-0.19454265082625327,0.06968869830300288,9.896613845209348,0.006216448301590514,0.011546958850130634,0.003846564754419833,7.0600000000000005
0.04048130286735847,0.05966385444777063,9.919807252867745,0.0001967302854195024,-0.006269298726343032,0.001347099484946907,7.07
-0.021657600912991015,0.04659733430541508,9.739212568429364,-0.00274242709871305,-0.0019693609841125734,-0.0003153651495161956,7.08
0.07550577915229179,0.033204651173293825,9.861457157492676,0.00599780181956831,0.011211782211987367,-0.0007743584586470591,7.09
0.011645577109079326,-0.10504656995907638,9.818092028255174,-0.016341104946828788,-0.014821903411672267,-0.00973907322445591,7.1000000000000005
0.16154492084381433,0.1939454743204383,9.831073600002332,0.007734807510139586,0.010811963374186592,0.020969238685018547,7.11
-0.027540345152889525,-0.17104449762253873,9.897407240674754,-0.01357694915810868,-0.0006254999708625927,0.014197022604806495,7.12
-0.03245857941397786,0.017035465168886516,9.842607526769378,0.010712697762428705,-0.003959604549960723,0.00021081937007537584,7.13
0.11496891982231523,-0.2945700295753688,9.798405708280601,0.00026714986001199147,-0.013100748028113908,0.002878332773997212,7.140000000000001
0.20426148501397515,-0.09213661234558003,9.9861896631318,0.015583001208880261,-0.012785683586315646,0.006698367746896781,7.15
0.17968150710432673,-0.07188814009659077,9.748356590441698,-0.013283630815864127,0.021570439051707916,0.0046882900680909265,7.16
-0.03525250096632392,0.021957114075491672,9.915969837960464,0.005232533897919492,-0.018990506414850863,-0.004366480360151048,7.17
-0.11508673308176393,-0.11918256800569281,9.851091040127146,-0.004173046254785451,0.013354058790438043,0.007677922845565567,7.18
-0.022183288510747044,0.08245228739580099,9.832073865380249,-0.011050845604093359,0.010134304269551975,0.002234329438023456,7.19
-0.06536559209771409,-0.05800949822632073,9.776638092004859,0.010778938179873632,0.000981644614703934,0.007650196228336404,7.2
0.13917053092404835,-0.09867259571145627,9.707031029708252,-0.0012997838178495735,0.002056548950610371,0.00388993474430905,7.21
0.008703017704695509,-0.1702052733525118,9.87098351948353,0.012365760482034777,0.012989507540083321,0.004837726743692748,7.22
0.007357177990131804,0.00842451171511069,9.830504448105438,0.004978277267128863,-0.013285301005801648,-0.0018253782103798456,7.23
-0.03383083817440197,0.06367105843876301,9.867903357580117,-0.007132547106273527,-0.0016777088685144613,-0.01495568876007742,7.24
0.08508913898756992,-0.01779190783522448,9.775135168848143,-0.003386673757695724,-0.001968956035268405,0.02140263002044838,7.25
-0.010802344329628916,-0.022914701350909138,9.611336634118455,0.013254884624345754,0.01156360162532917,0.014405874149472087,7.26
0.22368405624722315,-0.01708553881741075,9.781868488357798,-0.0016465479558668411,-0.008268684661345154,0.0024409766598501256,7.2700000000000005
0.15080714426258068,0.013378133511341445,9.838172054245385,0.002578064004804081,-0.015706642889591334,-0.005599545105331238,7.28
-0.004490552063589991,0.07388935158827134,9.718535088783414,0.005650701409973931,-0.004282546140957326,0.00823792583112155,7.29
-0.14235807974351652,0.015865741788848392,9.956025666780047,0.0017521246057727537,-0.009250647601427228,0.0044450335923177375,7.3
-0.1435603125998007,0.07759402686586303,9.80936758046543,0.0012402622740519753,-0.004842870364040332,0.011851895607501259,7.3100000000000005
0.03733407742972886,-0.07150496293418078,9.940135445686112,0.0025471992442031768,-0.011960130353429388,-0.010532735986274685,7.32
0.04426485114340033,0.1267614875744509,9.822094806775855,0.004905839337039481,-0.005287460344663404,0.011275866434325746,7.33
-0.030485170561605858,-0.13044994439188173,9.86013745770277,-0.007909329062062619,-0.00436535010147877,-0.0069986223563098015,7.34
0.1138532453095516,-0.01054802608088868,9.810047097388317,0.002118914847949415,0.008577558747948447,0.0075644103817856445,7.3500000000000005
-0.09029004016269639,-0.09471447716375928,9.91561725723042,0.012851843304661343,0.009222809086968478,0.008524953319042801,7.36
0.13190455199328505,0.04499697938463881,9.78433154276567,-0.015148961810523678,-0.0027484912343677848,0.005632368921813842,7.37
0.006053878743405509,-0.08939282860669122,9.98033948505217,-0.008702800529036298,-0.0006926668948761141,-0.0008425529658881046,7.38
-0.07518718018922571,-0.08332180002385353,9.705229196264103,0.016543439644102657,0.005329526182817907,0.004196382111537863,7.390000000000001
0.052597875648523376,-0.019481531720242903,10.06999543788498,-0.004124070260323553,0.0009112523193964715,-0.0013207921935963264,7.4
0.00038771472445295395,0.055136208870479333,9.92844150225046,-0.011837727374415281,0.0044542905191294795,-0.019707483569869202,7.41
0.12461345335145467,0.15811738638006756,9.871872308822768,0.0075367898599229275,-0.010270303102807377,-0.01829037692493025,7.42
-0.07013826284953918,0.025966339371960113,9.780027826499417,-0.005578209220593052,-0.003637186577204617,-0.002195908224538134,7.43
0.12153400813819848,0.023861379409030947,9.802174599805245,0.009388612050670698,-0.006459355697147447,-0.0033586626361886557,7.44
0.028403488666317228,-0.043580333500959655,9.72597832376876,-0.004105324633871077,-0.010591156249204712,-0.007431546463963272,7.45
-0.0821805247880028,-0.0783846664168442,9.793058026345287,0.006791459164058818,-0.012144369987126905,0.0005398132327289806,7.46
0.0673705294501316,-0.16798563582586837,9.848865272062088,-0.005670046673421082,0.014173511410458601,0.0022980808326029225,7.47
0.0011350674965323838,-0.03441145823802025,9.86209094993277,0.009775673919261436,0.013469985296174897,0.010591039699129256,7.48
0.0886182428176826,-0.04979175866156689,9.618156828766116,-0.00789126505862809,-0.001032398141331368,0.007184454838086615,7.49
0.02207333811314351,0.013818024671809046,9.761055801352448,-0.0032792579447000307,0.002189149594841145,-0.003704506865733079,7.5
-0.05757561218171589,0.04922338757071015,9.751831742159494,-0.00964708553938938,-0.007201138225984473,-0.011950037429513212,7.51
0.045418940591166496,-0.008428434371486075,9.85920154225516,0.0005467944637239168,0.0026734597659058877,-0.0003132325566262944,7.5200000000000005
-0.03326550975737433,-0.06005653580256766,9.944374218754406,0.008660768302548477,0.008490752437579123,0.0078084157930818875,7.53
0.0618074569644972,-0.09925043118989357,10.030584770191593,-0.0016506144800235525,-0.017191941668754065,0.01515650929915249,7.54
-0.07005844565236488,0.15021542915551045,9.705715387313756,-0.0048016515193094285,0.005767420929979651,-0.003571282129791486,7.55
0.18200443517005874,0.22340158514768313,9.820168849243847,-0.014598799793463528,0.003628141647725808,0.0007375737390024695,7.5600000000000005
0.1766590564009724,-0.036396356023255624,9.933397761529008,-0.013271089944922996,0.0045810516907447705,0.005577402245349011,7.57
-0.038513937436623916,0.06417842989736251,9.713229851379417,0.001183845194413973,0.004679244617907152,0.005629122043949553,7.58
0.07218247900294633,0.171209709333631,9.935852419209349,0.0028786497160912363,-0.009433318664869097,0.012057465439842261,7.59
-0.14576949581984872,-0.023207673150622086,9.921621986311072,-0.007677126807188695,0.0023581405480223518,-0.0018102065141945586,7.6000000000000005
-0.053111884676695476,0.0488626846327927,9.91996905061918,-0.005066536532544146,0.0037828909961888347,-0.00340387044524612,7.61
-0.04246329439014526,0.09610969870992545,9.593879309373067,-0.003641970139546581,0.013489959102389083,-2.9767638983703838e-05,7.62
-0.019152182609865294,0.010489449543310915,9.87535176072187,0.0039054231019652248,0.013136604634699992,0.0029202466852693925,7.63
0.010113293855312018,0.1562333496604062,9.921169267943617,-0.0033523566317920795,-0.010304720386638074,0.010453622847626158,7.640000000000001
-0.045692205208071324,-0.02008474402445512,9.961864632961824,-0.010126755684008731,0.006044039496514837,-0.0034558640506508983,7.65
0.19599724249092204,0.061886828423384534,10.06924568821383,0.0009830634474727754,-0.008407153395203327,0.004170720285207976,7.66
-0.1406656099898366,-0.027764473358009523,9.691943922552792,-0.0001467483391414096,-0.005926144662593589,0.000996313061468085,7.67
-0.030653316523900284,-0.030514652756468683,9.960795101397558,-0.003582795492950947,0.029101309248266906,0.0003923304663957274,7.68
-0.07821473929528018,0.1134008922230103,9.835853456777377,-0.017493768384344043,-0.002333465402233956,-0.0031873628161777348,7.69
-0.0976617587448464,-0.012333734116710068,9.775190749565521,0.009377693715477791,-0.0063340670841714455,0.004267206022909784,7.7
-0.041484734438675785,-0.07172870412424862,9.824590267911965,-0.014766682798296623,0.0004953458475550549,-0.007140591946807645,7.71
-0.0815899552017722,-0.061875823988502957,9.818398573433052,-0.00474248482391532,-0.012790877173529579,-0.010603921659502538,7.72
0.30832977411988305,-0.017768778323791753,9.969187442149996,0.0030102434110867845,0.011600216680564516,0.006915551663473083,7.73
-0.18840657150228013,-0.03689207120152684,9.69282123975835,-0.011754490992678945,0.013187956351625537,-0.009637346924625126,7.74
-0.014219640301111844,0.07450626106452582,9.949553807599365,-0.003748553081510448,0.012132938012655595,0.001128252815617952,7.75
0.04239414638723093,0.07889456264648054,9.911637923392345,-0.0034284520324959645,0.005713648746506486,0.0124896527397184,7.76
-0.1341243489878405,-0.038909797267043855,9.800194009510662,-0.00253407360340232,0.008054581596832866,0.00630728492079795,7.7700000000000005
-0.05460184108658475,-0.011268719365741246,9.678860349458786,0.0056684470733396755,0.006808711136733804,0.012138096592182221,7.78
-0.11724947620912929,0.003666969884062803,9.895180762045074,0.03418064739278271,-0.01231861427667989,-0.0042305075646249446,7.79
-0.03234595083671882,-0.09000796832223945,9.751384414889584,-0.0029913256992125836,-0.011371570437819901,0.021365069559528934,7.8
-0.0010814797737742662,-0.008314310469764516,9.739311153370753,-0.0005312613547926257,-0.016858007890202368,0.00016434391431976718,7.8100000000000005
-0.006711918124536605,0.0438784817683161,9.856295903433884,-0.007878011269223013,0.007417529925036887,-0.017428862832689244,7.82
-0.11392431395181889,0.22359526429525048,9.904287139703808,-0.005553381055370112,-0.001203792120352111,0.0003877116077853199,7.83
0.12422665847907106,0.08288564590227164,9.732735168361385,0.014415223523215882,-0.009097355701697408,-0.0007039056407284847,7.84
0.0044221927068874576,-0.10848401537969742,9.80083325228157,0.006095308905509049,-0.003242399423138703,-0.004874696790051942,7.8500000000000005
-0.005108257310972904,0.03840559117540103,9.990650385216039,0.006045912495692654,0.0011838536173851852,-0.006267043052603964,7.86
0.09871282999161198,0.04864613312393707,9.725152204518672,0.0013438823762728425,0.0008582766942715812,0.009575556738298397,7.87
-0.10679056835062249,-0.06189936303564078,9.739707803288493,-0.007512925575369921,-0.004867912764787816,0.0021939994736112265,7.88
0.09438510459201806,0.06863281735771458,9.76849081791374,0.0035935660533376267,-0.013867673014919818,-0.02090842762332747,7.890000000000001
0.029313830289588668,-0.057905364314524026,9.854264887988762,0.009451164141635798,-0.010732064291482461,0.004960115100404627,7.9
-0.1540390072780984,-0.03147737660023714,9.877989338209167,-0.011543917987736248,0.0011909260999733448,-0.004823238459172216,7.91
0.01080624035444673,-0.0991116669218674,9.626306036627346,-0.0016150104845955371,-0.002345624758330663,-0.01615148611658745,7.92
-0.10149995476404368,-0.20151833185303644,9.795847047592432,0.0015696795175729479,-0.000155802545895769,0.007668435954190779,7.930000000000001
-0.06208072959704911,0.05749139632683647,9.792561654856556,-0.005329355195418317,0.002379931539742004,-0.007626657832425677,7.94
0.053046243819897226,-0.008768604247557118,9.86894329389098,0.010539283000123951,-0.008939880062281687,0.0013702025759362074,7.95
0.040571176301277205,0.049584567179826254,9.960688580949757,-0.002131474245334668,0.005716362707083629,0.013057353691838728,7.96
-0.02656497428380258,0.10388662760021201,9.737028227053026,0.011952058480324448,0.0008965628541519426,0.016201091535623116,7.97
-0.0632934449720065,0.08983882195829211,9.722684848959737,-0.007890728371151302,-0.011143790537420421,0.002631084755949289,7.98
0.0075392460499250765,0.12106017578774911,9.621414431835479,-0.007456693641193359,-0.010977370214247405,0.004490942368956863,7.99
-0.1833591777544999,0.08889634172743781,9.819910817104807,-0.0029393051499646146,0.003993935309685558,-0.019577716809465656,8.0
-0.13836407898393727,0.26855319930663896,9.91945276416517,-0.0010304905825287342,-0.007420459391650953,-0.004471607925589787,8.01
-0.08295689997160723,0.03589028430739877,9.739532539031586,-0.0014452602326922393,-0.01317315031528765,0.007546187125234195,8.02
0.08464000305245933,0.1548566538376784,9.787577052351873,0.02147409448563232,-0.004939020462258701,0.006288786958883759,8.03
0.08939730738864468,0.1048328080064555,9.785407639546168,-0.0033195587198242126,-0.005213728664157452,0.00020125912835585895,8.040000000000001
0.03911661446441839,-0.04314050190400555,9.74740339366533,0.010355669269240956,0.004265125656538144,-0.011679492386064588,8.05
-0.15763403674027088,0.04290927399972333,9.844689467958451,0.003927107534713499,0.023718874671929586,0.017863736053499883,8.06
-0.1487092546966396,0.010587359623817846,9.843346765020707,0.003115374109718441,0.016093276155557116,0.022882489478703538,8.07
0.006008858616749815,-0.04250838815019715,9.795602599002532,0.001465940945410123,-0.004729774996043027,-0.002180606649102507,8.08
-0.030059298008103464,0.04871888532328892,9.633380346871895,0.005028028404772208,0.015852890161078867,-0.000814121555549397,8.09
-0.037647650889845875,0.08686116197707643,9.926663589648527,-0.0041639812923654615,0.009293283283520267,-0.009093213014805155,8.1
0.006510783013316789,-0.12686300229940614,9.780488120204563,-0.005036401435816084,-0.0018155811714167039,-1.640946412390341e-05,8.11
0.07769347538751213,-0.08298326385980526,9.782140486214631,0.012479716932967969,0.00034425822755166995,-0.015947210043286423,8.120000000000001
0.005938310502384796,-0.10132628364778191,9.947314491582798,-0.009046871591123004,-0.014749099381987846,-0.004256967327128341,8.13
0.04136332353414465,0.04444254674890731,9.734619272015465,-0.014305383076118098,0.014108587342678287,0.02089272078024234,8.14
0.03522032821367201,-0.06789330313274654,9.766633677836648,0.007561151726227729,0.005126771826352592,0.004549468147668615,8.15
0.013341844311907054,-0.059631489686702045,9.700275066555687,0.012199568458698004,-0.0001417805378486733,-0.002216149522986374,8.16
0.10956640718276041,0.039832850896108524,9.672661131492987,-0.0050200459225488115,-0.009586261983256692,0.002110621594826237,8.17
0.0696545011984093,0.07335571126086922,9.808098437902284,0.013474898464490473,0.005832104820841354,-0.005707325652931007,8.18
0.013634328967284804,-0.16096435817230825,9.823276524002974,0.017556395285586054,0.005999037688898333,0.011756776674768628,8.19
0.02729847845398589,-0.008517386020057702,9.819140771884294,0.024579894529827676,-0.015629144739792537,0.004017120442630123,8.2
-0.026882911093834373,0.1298548617737632,9.903608663664302,0.0019309809344296392,-0.006886251900041954,0.014382045897596025,8.21
-0.010064156457592205,0.07051427504201718,9.918770594951262,0.004002714692068138,-0.01847300000033963,0.0030721193713102437,8.22
-0.03086181611776456,0.21303781727343224,9.818831947136196,0.006179014087280878,-0.008789432847765373,-0.005195344816537162,8.23
-0.09413868016484525,-0.12654397669764902,9.849136576731759,0.006575498908194524,0.005647463752378308,0.00041005842070575846,8.24
-0.14968881470043782,-0.012884477855506378,9.836708684977546,0.011695669027633547,-0.00592446257891633,0.0018392725630640696,8.25
-0.08424574453827177,0.01747031677144021,9.692618336216247,-0.02553889991132025,-0.002630795897140658,0.00780737175939964,8.26
-0.1319868712375701,0.05244709491623666,9.83925370678088,0.0009538104702851919,0.011675706809910162,-0.0048363955721426564,8.27
-0.1477975403738065,0.08096780402176773,9.743462251837261,-0.01022988288896729,-0.014705393907950979,-0.0055088609982740944,8.28
-0.04973697023576749,0.1485987265136235,9.868232427766467,0.0039895317344257435,0.008594598228896584,0.005363249462084943,8.290000000000001
-0.1755856358724957,-0.05747049833736454,9.65802507398832,-0.024991508799152476,-0.003808916879761961,0.006820068923678075,8.3
-0.16476661520631686,-0.04370471944995642,9.884447031740704,-0.014285322607075462,-0.0010595581598252962,-0.004195351572724711,8.31
0.13514029720081044,-0.01827496475774287,9.759267503474783,0.0034595368429319218,0.007495767873044362,-0.0040941475963309475,8.32
0.028606835661316665,-0.06525659258607776,9.78879685298606,0.0023500144309049073,-0.006338966213032693,-0.003222341415214899,8.33
0.01076949335030383,-0.044693436426617716,9.820634432204699,0.005965234545589283,-0.0022807369426414625,0.02959483148231932,8.34
-0.05377952878603309,0.10488860909206499,9.896530103034255,-0.008323655805340946,0.0023828010795277246,-0.004399878138957012,8.35
0.15494077932437836,-0.09454251991085738,9.863000957361114,0.005286925640005367,0.0021845153348099677,0.0031566493474251447,8.36
0.1695609093246304,0.16188885020293842,9.84194410365095,0.008674309811098653,0.002480038422100486,-0.0050551115853520855,8.370000000000001
0.009509989320674398,-0.009957546125710818,9.700006031040468,-0.011237207214896624,0.013516998438243322,-0.00452429929857474,8.38
0.020244613496403063,0.13934365843320387,10.056653591969472,-0.0012493447043642417,0.003996437189399875,0.0007167791196225415,8.39
0.10199341533143234,0.04531247960315907,9.599757814099789,0.013816150464084593,0.01577752298055062,-0.012290571644417561,8.4
-0.08855396736095106,0.122598262454452,9.7757527986766,-0.0007760609519314632,0.0069571150122504765,0.016149311638096277,8.41
-0.04914748313232827,0.18262197753375015,9.778983344968456,0.008333955178576756,0.0010433957454806632,0.014894806338012217,8.42
-0.0885147076074874,-0.05126909358981481,9.88152980782385,-0.0015768242822986364,-0.00019048357919653844,0.0053707792033889715,8.43
0.18697625014202784,-0.059925388140328245,9.81212381467733,0.013223901724063566,0.003020699403040757,0.0247473037982928,8.44
-0.09108217832093564,-0.039714873640524104,9.833781400672436,-0.014265200663733539,-0.015414313670801282,0.00859437443082372,8.45
-0.05929276252092959,-0.1030594499818722,9.845626931611369,0.019261608604961247,0.0025544137816952777,0.005765181822628246,8.46
-0.035772534738948335,-0.059931116128837975,9.932262198367393,-0.0038691521521854355,-0.01121545247880115,0.007259659997144631,8.47
0.054572074720471556,-0.025139411550562624,9.724045057856484,-0.008503701551308408,0.011285454751774256,-0.020273618730847667,8.48
-0.07174671591393332,-0.08171022859093835,9.781220665267814,0.012507610610251343,0.004296985526384485,0.005911863152731776,8.49
0.10751328871691596,0.22642839064973677,9.665979090211524,-0.015295841734235828,0.021104708893995638,0.00013424662026073736,8.5
-0.13601635730279957,-0.28923444909891066,9.836313532418671,-0.014622065335432852,0.01435323173708765,-0.010466175742141018,8.51
0.1859041786896942,0.006442291148920816,9.759697262535886,-0.0024104096496753284,0.007856194062381364,-0.006994970975531827,8.52
0.0017563930783889754,-0.047915836920589566,9.855640613387521,-0.00015709106115121738,-0.015317446891193104,-0.005715072216717266,8.53
0.07751765909065186,0.07624868718855159,9.644513096142537,0.003946589926053295,-0.0011956765111856267,-0.0063273242309654365,8.540000000000001
-0.11346234196466046,0.053644628464135584,9.923574477455526,0.0049732476836164006,0.002230252638316999,0.020414896960055412,8.55
0.01470652844046414,0.020082290921159873,9.812938341380363,-0.0030068414228430567,-0.005516559110608579,3.2217727771864454e-05,8.56
-0.13675818084976643,0.09260464731995058,9.716897992898437,-0.015754870019974457,0.015317169407223054,-0.006191406824841907,8.57
0.005116342268670236,-0.14747301349323858,9.86964836316054,-0.005125411964530014,0.0030052010171496253,-0.01421636724230093,8.58
0.03242204584964952,-0.04573820871768237,9.886599994681776,-0.0032969825653236255,-0.016071200574032666,-0.020349610464968276,8.59
-0.07492846361913773,-0.10954621732511782,9.758790754547753,0.005576445772134888,-0.004138129603516143,-0.00289847337800558,8.6
0.15913597825023137,-0.033630734495869424,9.809860913277012,-0.007736239127570343,-0.00038133932229781676,-0.005466791325272195,8.61
0.0276405499704139,0.033542190959660594,9.729441620721316,0.012346469989869286,-0.013838985295932813,-0.01421631423438674,8.620000000000001
-0.06681249799509276,-0.20416593071962344,9.714789224584651,0.0010853408379661719,0.0024799331331700008,-0.008474811413017478,8.63
-0.09909931285289925,-0.07204754993945928,9.753139756827876,0.0018658454011569662,0.000520956438683716,-0.005757919372834098,8.64
-0.18181785287563126,0.0012103235806325647,9.869046787880869,-0.005256232033410493,0.0004031482446963935,0.013206007699780975,8.65
0.10472035985773416,0.18726731715432443,9.848972274194168,0.008013465384843717,-0.013629246823734018,0.002142800563418281,8.66
-0.14870534071014835,-0.1824838762153921,9.803032302611811,-0.016600595677194935,-0.006416145172298135,-0.0017520128040150167,8.67
-0.06319351458060486,-0.11354373215676883,9.713698502165267,-0.004510991366761809,0.017542296253763405,0.013514232000660755,8.68
0.15935891521230153,0.08799927469364599,9.772914817086683,-0.002330642936914574,0.009311236289122844,-0.005591266196624074,8.69
0.032675167253554085,0.07195525796723577,10.051116565495658,-0.003188412942315416,-0.02463176979111541,-0.003218509803520855,8.700000000000001
0.00038702414614162666,0.11495597083476763,9.761625793008152,0.020130148404188454,-0.0096341861074629,0.011078009146084112,8.71
-0.1458300207297386,0.009544700164542059,9.782706626498818,-0.0028233368685282156,-0.010127704584381328,-0.0018217250485612533,8.72
-0.00981671900028156,0.09030633773699978,9.844618915362556,0.003101847482167899,0.002815559743840566,-0.011741322056894573,8.73
-0.03755525198170706,0.021929042015695177,9.764828316854063,-0.0029644638162263444,-0.005210934939194321,-0.0025552002201231928,8.74
-0.13350222905353726,0.1846187337873945,9.604761652577297,0.005280600225872388,-0.017281386631374372,-0.00931493826827341,8.75
0.04253342687384716,-0.04148666682791083,9.745870261598007,-0.005521585889122854,0.007879531034894097,0.009953105651930045,8.76
-0.09428415095517349,0.04737800555033674,9.680365467618477,0.003278552167289261,-0.01187191128632229,0.01772713082995628,8.77
-0.09670854293754817,-0.06781087130422311,9.97288670685886,0.01248226526387948,-0.013590739846154862,0.007047070234046004,8.78
-0.1239791940302943,-0.03608078387212634,9.75244134283661,-0.014068653598512679,0.0032258018853634648,-0.006218408442413483,8.790000000000001
-0.09918953355825391,-0.0028709003788621873,9.848020412140364,-0.00012788546479915153,0.0021349572714498516,0.020208043645148083,8.8
-0.1440528847502181,-0.05706957772275021,9.76287695524951,-0.01151402655985783,0.00029836852794353966,-0.014632125134673947,8.81
0.07188136726157605,-0.04334161563500146,9.72744304240263,0.021493880508694097,0.013686837994900239,0.0033871219680356524,8.82
-0.0026882450087036755,0.00478975078687307,9.746901838308782,0.011392996775850924,0.019277936013517353,-0.009466679397567998,8.83
0.12461122037990602,0.014461132402099508,9.781899454633429,0.007121012939062821,-0.007134499076093801,-0.014180871415720178,8.84
0.018511252306450617,-0.0629363082428973,9.7841834340429,0.014718823645191914,0.013113307301851425,0.003704224966462828,8.85
-0.0005078706069629656,-0.11621804372077665,9.819338097552633,0.0011051133990501432,-0.0029349030016395097,0.003882188651289524,8.86
0.018576185344602328,0.25640905458273644,9.7819309146062,-0.005268003330027079,0.01833565962901618,-0.010670340379971,8.870000000000001
0.009965382928845176,0.027186159807520413,9.934363515159605,-0.004360228848389335,0.010502234476631973,-0.0032587243771683015,8.88
-0.05037918602984849,0.07858379327275548,9.908109601632157,0.014648956200440218,-0.0025097813992520927,-0.005269747191432155,8.89
0.027296355907620612,-0.08212050109323342,9.652261087628254,0.009303037666780157,0.008215687678748444,0.0024041638877238198,8.9
0.08195680108145077,0.15410055643843815,9.900433062648002,-0.009911590662371447,-0.014948940336538747,-0.009033761842979724,8.91
0.125443700375063,-0.09276891847465937,9.69610366281092,-0.010888145067677523,-0.014799869888829814,0.0016815225378900827,8.92
0.05682942064464363,-0.12533816267344478,9.786359497538,-0.0009841829248043565,-0.0024168783532870918,-0.00546530974772906,8.93
0.04142674532829177,0.009345971117613337,9.784398452307109,0.0006348904758026831,-0.016171161368477335,0.00293128622770807,8.94
-0.07578565201511195,0.05508663240889296,9.725358162284913,-0.00909278427668434,-0.008599484872812433,0.004349878347326534,8.950000000000001
0.012058705977389436,0.016331524466939758,9.966628997283207,0.011359768701387163,0.003456164197909145,0.0066689241120828,8.96
0.006328672193073055,-0.20795613999312978,9.747963520949707,0.01511283062153291,0.012393192662021577,-0.0025679338917997258,8.97
-0.015160771180780666,0.03252262507895083,9.6399995756029,0.009034756488406206,0.004881796489573596,-0.01472350096523328,8.98
-0.020179479912135034,0.005352011604872936,9.701898548352201,-0.003090591284361801,-0.012267589886285733,-0.012295858493412472,8.99
0.07949871020603122,-0.05217937838371141,9.61592740269221,0.0024180919799716575,-0.024563407857479364,-0.0037097715100230045,9.0
-0.009402704577392916,-0.05804033075606673,9.839512268692715,0.018826013311635956,0.009143824910836248,0.005926675420710733,9.01
-0.2946570126528289,-0.014071570078112147,9.639164229635394,0.001698814509476098,-0.0030027925752567643,-0.004318164564784083,9.02
0.08509830362399716,-0.10574228915682998,9.847484721919352,-0.01405493083366153,-0.0010536809239837176,0.0024688696442047775,9.03
-0.0004962480428938068,-0.13246344268601615,9.796873694114048,0.012869576257482753,0.0014149788043365853,0.009979772014359671,9.040000000000001
-0.06157121160903343,0.15351665642889645,9.851783272538267,-0.007644497259551853,0.009977468505485958,-0.00639878989809959,9.05
0.061761160543621366,0.09813575501383923,9.854366258276922,-0.011670967045078988,-0.009397583764304168,0.0003042476554833431,9.06
-0.025458181669986552,0.047114616038785494,10.056640779717535,-0.003329473318155208,0.01868162223273505,-0.0083577493808734,9.07
0.08007647113848994,0.11832552238035772,9.729759064203128,0.013174899274454074,0.016607973300902627,-0.008312448027988036,9.08
0.14824247597724108,-0.004931657512945553,9.824444404338918,0.011435228225926415,0.01434675568541553,0.001847028843314844,9.09
0.06055820753751904,0.2430056658502111,9.66273529213631,-0.00354660155253141,0.0028311678164584164,-0.008015762654698342,9.1
0.09207951409306397,-0.0035911940556405,9.717079425437166,0.005756447042291168,-0.004116057054862517,-0.024416941613611434,9.11
-0.12565275773884696,0.058529966562837904,9.784180326075498,0.0017660811077240002,-1.7575741415122916e-05,0.0019329051028589353,9.120000000000001
0.01815601041526733,-0.001259349958680896,9.740959337110032,0.0047426841885180255,-0.0017006086407267262,0.004995686454458665,9.13
0.1696513676809298,0.17636293778143863,9.709339878924384,-0.007856423835050388,0.008727986641227068,0.010004383670337211,9.14
0.09379906728530563,0.01017237838236758,9.88786802704943,0.007415911737502653,0.00694600814734736,-0.007262857240178709,9.15
