ax,ay,az,gx,gy,gz,timestamp
0.2220519901012733,0.028338614587376243,9.662032642717953,0.0012321999313111502,0.007060529670100945,-0.00291186711152417,0.0
0.2303668105977991,0.08594799675098665,9.713971372410368,-0.01225989685344137,0.0043633226064324175,-0.0305715047768679,0.01
0.22321684599370376,-0.05386998899756129,9.811914497683066,-0.0018741439805939975,-0.0030395756373599015,-0.0014488624339605097,0.02
0.08209720979077174,-0.06339544203659297,9.813082202080546,0.004274594799115955,0.0005727655375317588,0.006775538311794742,0.03
0.002487680980223948,0.08116966299640709,9.753883140659466,0.020874848088439278,0.009161733253812563,0.004808905261599029,0.04
0.005381646795944536,-0.16124594498315958,9.953754617666464,0.0040777218828991985,0.014517424557812368,0.002298271198500214,0.05
-0.007655046982744904,-0.12162713862023672,10.087702526820678,0.0016473832141826225,0.0029201543897604317,-0.012311587193228501,0.06
0.14828047276397344,-0.13961117527321906,9.833895579819163,-0.008455641468041989,-0.00039263542173376186,-0.008104261839962653,0.07
-0.19917598020603783,-0.004971809812768874,9.732847933092087,-0.002714217423241048,0.0030729128642881104,0.003809747202016521,0.08
0.13667183859867635,0.0446376947014149,9.783888846546429,-0.01524401027518591,0.0034361672111623306,0.011310495389768818,0.09
0.020265966053549432,-0.0038161757054520637,9.838468186822592,-1.4379220598777424e-05,-0.010824941775967227,0.009056176792838657,0.1
-0.005245390706479876,0.09068674101782885,9.69804224700422,-0.004821935329946013,0.007198231310990125,-0.003916888324212705,0.11
-0.20242303557849942,0.1356185645043085,9.962272876637346,-0.013055147056995592,0.005900934030919809,0.00017280087158346225,0.12
0.015662483743781788,-0.06777164097443554,9.881062035972636,-0.005932691107932677,0.002876788474644253,-0.0032587093220918122,0.13
-0.0664505643299688,-0.09063861180021869,9.685947039964105,-0.009947194506913653,0.0011849119980413606,-0.001234351211141901,0.14
0.022144357376107423,0.10367116027640476,9.948271451662343,-0.009704896763335595,-0.011243273793447415,-0.0016985654571491466,0.15
0.18050679223776273,-0.09435532985729961,9.731556947717918,-0.011889183017256584,-0.012171406229682958,0.007536026388502964,0.16
-0.0283954182280031,0.09979944752759515,9.751967290041202,-0.0037946876922553318,-0.012513108048958254,-0.003154028094559418,0.17
-0.0595781573206528,-0.010640475918555495,9.827652632235313,0.013281100399064289,0.0010347075200822105,-0.008041420367978256,0.18
-0.0030862012013454995,-0.12671102888370045,9.824098123963381,-0.017767034944877493,0.0017459037125963244,0.004454642114334055,0.19
-0.3430739585605778,0.006263670329520826,9.696450019018735,0.001770576449532427,0.0087396505514677,0.00850254351249945,0.2
-0.03158474917257111,-0.09428489736572306,9.978416017336468,0.012944030643963898,-0.007024351259324598,0.017452624028531667,0.21
-0.03337255604552248,-0.07288843922849246,9.839468920699042,0.020179725193953592,-0.00026873146458373593,-0.020965219464704195,0.22
-0.10393912317172922,-0.11260092021841446,9.917239666365882,-0.007017907808601742,-0.004714490028285065,-0.005438754828015765,0.23
0.1925145744040191,0.06627677790434187,9.858528484010092,0.00878473356843375,-0.0058506916307466215,-0.0054983743698592945,0.24
-0.00706126416622723,0.08274914484007706,9.9718150133687,0.008181435638393537,0.013590365234492108,-0.0010673166879540184,0.25
0.01937463552232187,0.027563050355732206,9.913216636070771,-0.003243822725692832,-0.007165496016239147,-0.007618493957717409,0.26
0.014687838283175037,-0.17940292603517438,9.862442854520546,-0.0015569981837149748,0.0007330667482003264,0.0022746618510780616,0.27
-0.018937800566514718,0.2642179603502206,9.784150182487949,-0.002983736543270178,-0.004397414190893259,0.0006190993738175519,0.28
0.17621593408256872,0.10009438036441234,9.974135449179858,-0.0163030249450298,0.0041825081849824145,-0.015914138689768764,0.29
-0.04255932400487017,-0.03398347164371859,9.911016713097919,-0.01387466719881291,-0.00619260664181978,-0.006026644456237177,0.3
0.04524798700777417,0.060607193074391545,10.028809210622153,-0.014854344819447578,-0.01667747986044679,0.006299454300875779,0.31
0.034991114647238385,-0.0031306063377596256,9.748761568815457,0.002650921848627153,0.006477338000527319,0.0029354539974551226,0.32
0.02284215965208628,0.06741493767129891,9.628654972124984,0.008544846839004808,-0.0009076774702616962,0.0014258286709092954,0.33
0.059429369852656705,-0.13265276838180942,9.837457068531887,0.023629250463065778,0.005189161080022431,-0.002148911715382049,0.34
-0.22146935422623712,0.04998239075931338,9.780806111106807,-0.016528495405465676,-0.017251502955988485,-1.2158248189493235e-05,0.35000000000000003
0.014749376843659187,0.08498009868141233,9.799919771219269,-0.005220705436769576,0.006343678999899765,0.005857875887502187,0.36
0.036755747749272885,-0.11363516891559822,9.67519250168907,-0.011163260789534508,-0.020501628647080123,-0.006952227221513541,0.37
0.02213184769198045,-0.12424051500908295,9.690272776073815,0.0031444203352308455,0.004780918164078806,-0.0017444433211117306,0.38
-0.00186664429288553,-0.11679949139148321,9.755111996305658,-0.0021575008761915955,0.010324640255343144,0.008691219922856219,0.39
0.04101733851612131,-0.041026509538043904,9.786595893170203,-0.0034552905710547393,-0.006619602117788804,0.0049024376093872715,0.4
0.07085019298233358,-0.15064522305524314,9.974858694435627,0.006981529921005539,-0.014808062353463413,0.012613522319798563,0.41000000000000003
-0.04906399411962468,-0.02050231802475137,9.865252421868954,0.004631551304455451,-0.006810627213168915,0.00023481062805965104,0.42
0.012683873515484445,0.021317382374658186,9.82001596175439,-0.012391126021079377,0.0005090184918865444,-0.007161596962021237,0.43
0.053907042862641696,-0.1817934811728164,9.781761916272135,-0.0036134806307539518,0.010725897908469992,0.015035034701403422,0.44
0.16722984455502976,-0.18134279122200053,9.736596204703794,-0.008757206715518707,0.00701702791004323,-0.00805684479019861,0.45
0.011264912356888937,0.12011789355502085,9.67799372135401,0.004964872408383581,0.0068445423538815164,0.004362281477779586,0.46
-0.02179369718526772,0.06294935898322733,9.815975489270125,0.009425021259850517,0.001760032134447973,-0.0017209092073246816,0.47000000000000003
0.0983954511557498,0.03729821154466891,9.825596849117282,-0.004698468516227804,0.0010671075363287929,-0.005783520963713283,0.48
0.12058862105695888,0.1756212160984753,9.78966552824588,0.015431255379382504,-0.004493197253351545,0.010779858595455253,0.49
-0.10675475817085676,0.15190214528165008,9.655046215226044,-0.02016239456903965,0.00809917028428891,-0.0016739105084482373,0.5
0.13751268814474457,0.0048973559408342785,9.816923148193897,0.006894273986397885,0.0017720645442969492,-0.0008128563203394679,0.51
-0.03553908272591089,-0.009844382578918712,9.863725833503738,-0.005285512864799505,-0.034908724622018314,-0.014654456155839005,0.52
-0.08370703578569369,0.03546271492440241,9.845251397606116,-0.009902141533568469,0.004249510541415281,0.01892402527834156,0.53
-0.044823329384612004,0.15237408902345634,9.611804501598206,0.016111508153824675,6.904050449235963e-05,0.007668900957480873,0.54
0.07951391296722446,0.008665300522821943,9.953889163100571,0.005791401605827858,0.0021157330965333216,0.005609433070447903,0.55
-0.02581422506006463,-0.08243095916651537,9.894428546887434,-0.0025936745139663953,-0.004882677628913289,-0.00139693528594895,0.56
0.06000644934848154,-0.08543697397025825,9.838435731887458,-0.0005310819223912493,0.008739754307605025,-0.027556255989157882,0.5700000000000001
-0.02678088681966614,-0.09037925848616268,9.747639792218516,0.0003874632923839197,0.011851659533950351,-0.0023575914721229514,0.58
-0.01474126911391694,-0.0032128673114187913,9.955308461104268,-0.00456217020606087,0.030574830956054434,-0.0006865329750046384,0.59
-0.015052601051201393,0.12005166297571995,9.735723539674755,0.004760969774232977,-0.0043588902975990095,-0.007418936085786715,0.6
0.11165626186010776,0.012881054278447383,9.770990991073473,0.0018778755945009487,0.0016613855438759285,0.012985086641476622,0.61
-0.03135280633202402,0.1963168332451574,9.727430038911347,-0.016166342334669185,0.0072739058247970065,-0.0026032195005511165,0.62
0.05445358651898551,-0.0351735264252282,9.846407747246298,-0.006093764905696114,-0.007130954402688465,0.013954202447221193,0.63
0.12881905660476817,-0.10290575897483781,9.764640942442618,-0.007970777256116439,0.011561589102584915,-0.005494573383905976,0.64
0.11335784290966736,-0.08239744885176564,9.788810228624309,0.013178221449047029,-0.014523292852245538,-0.025177827322553088,0.65
0.010275577282099886,-0.17112597018882064,9.632778128156966,-0.0008565817679369548,-0.00032580888892975855,-0.004450382123741684,0.66
-0.03303241382360207,-0.02757301596469452,9.942085805165263,0.000859918126881224,0.004215151515948747,-0.0077757118004676065,0.67
0.03078247748343544,-0.013619118050914493,9.751136458535687,-0.00046310121552023745,0.01575310755664537,-0.0028652308046229424,0.68
-0.052387342180616886,-0.09170165516493752,9.825613664292497,0.00011677409536068329,0.0067554533020892675,-0.008114730407215644,0.6900000000000001
0.04034321396230767,0.019804317577537773,9.752368908762907,-0.011122792639467312,-0.00018908749682817715,-0.003301801246158283,0.7000000000000001
-0.028904404104590494,-0.08480130798708238,9.948214407863292,0.012202380535492415,0.005754856584765371,0.005549364124625076,0.71
0.05087630234540613,9.914971638607102e-05,9.76799004006158,-0.012278056161698357,-0.00253047260661588,-0.016323555388802,0.72
0.05979328722508873,-0.004172882711168693,9.727613224394174,-0.006050133929177279,0.009195300517633167,-0.0012900560071346444,0.73
-0.05141057956200756,-0.024151300601953515,9.679256658912728,-0.004488653059012095,0.005083265840935958,-0.009082468868053431,0.74
-0.020344047054251496,-0.07184469210411207,9.89956631437164,-0.023927257843091968,-0.004839826004575366,0.009508478049976265,0.75
-0.018830636321057928,0.09907137417085163,9.662306343775056,-0.0004651017338778993,0.005091163676136766,0.010020134927069355,0.76
-0.03171046843684711,-0.05275820268274709,9.854431379656656,0.010716495819213932,0.0033374401718707287,0.0007736629610447625,0.77
0.08257936464527796,0.02560767546308791,9.895678081353132,-0.018401856365325667,0.00921481467774263,0.0022405815518019043,0.78
0.02281076602559868,0.019249312015716183,9.837354964257774,-0.005394746324696653,-0.00327990801990314,-0.009846140515737572,0.79
0.011500987683150237,0.141272543951889,9.883765850045975,0.002035558710711107,-0.0039512634538970935,0.0014489101902878667,0.8
0.028270748168118982,0.15506269006770163,9.717630798412774,0.011500778936804469,0.0038647099950259575,-0.017845034082020088,0.81
-0.09716390984669314,0.03635475589680364,9.81336953885441,-0.0060679971569666535,0.002170816149627683,0.009743816241899314,0.8200000000000001
-0.06236210955011369,-0.02064642268450645,9.700923190674404,-0.0006978356409524485,0.00021598036013707988,-0.00825739010385602,0.8300000000000001
-0.1659734462641123,0.06793279030728257,9.784961654727638,-0.012767380925239345,0.006978598229280689,0.006248499988316487,0.84
-0.0009000668259354302,-0.15849473473624398,9.769940334830206,-0.0015817817688097268,0.015341585128824664,0.011684813442794317,0.85
0.03515944746016913,-0.0783567888623899,9.943295162676941,-0.0018225353235224457,-0.004512644642012681,-0.004363744031975273,0.86
0.012735398233003327,-0.029029429652043023,9.694657179114872,-0.029710469662600325,-0.0012431122545311947,0.01140234230657081,0.87
0.14520496060207497,0.06954400160383414,9.82091921440404,0.00935999665021607,0.012835741212532194,0.009648362888399917,0.88
-0.10289423805987608,-0.030585949230549015,9.626926208490094,-0.0012590250705982059,-0.007805095195632675,-0.017907883845394885,0.89
0.05224265467780884,-0.22541900945314663,9.684468805772994,-0.00954993102239695,-0.0036870101013476166,0.004526416794159343,0.9
0.14363314216585302,-0.10322525765453279,9.702951836062466,0.006970649411075755,0.019424779784389327,0.0032026058655816553,0.91
-0.23877390474197405,-0.12312184550813282,9.736592357544488,0.009579120155209562,-0.01065782464265296,0.0031597906300341546,0.92
-0.10645014386024365,-0.09316641168376938,9.812773994716864,-0.011332411064894089,-0.0011115263862277816,-0.0033436190763523423,0.93
-0.036067711967050324,0.008603777770309105,9.626896655604588,0.0005847051651283447,-0.038898626802721055,-0.0052785047764534665,0.9400000000000001
-0.019387040273994852,-0.021395714114448898,9.838386363336731,0.004765757432444359,0.003920687797487182,-0.009979150499456482,0.9500000000000001
0.04615718730376269,0.006707104432899139,9.920107396383093,-0.006013410372852435,-0.007098969216461748,-0.013752193603948542,0.96
0.08442873310922469,0.1452937101001378,9.835575160926759,-0.0030072538941505766,0.012408652096263198,-0.0026512579216416993,0.97
0.001109928389896818,0.03725062446083324,9.906748730990154,0.005851256065719027,-0.0009050589384551959,-0.003257567342271936,0.98
-0.0017584924453351337,-0.13195784183602496,9.705899264076303,-0.007683240483824421,-0.0034972630026553738,0.017527460336815886,0.99
0.11756327166630649,0.03146669946582545,9.820800549741596,0.0018135248631064806,-0.009984054401023486,-0.02466663823284613,1.0
-0.009565813934317793,-0.19686933545236013,9.777552506058374,-0.0014173232228118188,-0.019827403580045373,-0.0025885499593671685,1.01
-0.06984771943585215,0.010359052959891273,9.856094412602735,0.007861128715677323,0.0033059007896695503,0.005565509959816713,1.02
-0.14157853518039626,-0.09570624244287657,9.602710245799928,-0.011586135998410406,0.016044736388795455,0.006521934738110742,1.03
0.13497806452611583,0.04026389335074218,9.791186278526052,0.002764546498485602,0.000903679288899085,-0.016688588091671244,1.04
-0.21020265484575087,-0.02162408042676679,9.715991598060754,-0.009908290232056674,-0.002738649322128839,0.0033630712156984426,1.05
0.1319076028424493,0.09406607348580132,9.860969170730026,-0.010868140805046346,-0.0034216867242829402,-0.0063660819003667195,1.06
0.14925093545969811,0.04939450774615958,9.892762744837084,0.011826317513669611,0.004853935045139291,0.004819898324701624,1.07
0.083760695890633,0.03493141955091141,9.851015555860473,-0.009694417645108986,-0.0014016000438908122,0.008959536985820122,1.08
-0.0807096482272439,0.08010151908382088,9.739145042803282,-0.0007174590704001318,-0.013623216180444887,-0.013433791933376148,1.09
-0.11719358424050103,-0.05402452762840794,9.786533363719641,-0.030482245591152337,0.011309125088142637,0.0038862709800607997,1.1
0.08523262027559791,0.026837423383767045,9.90058736667228,-0.021013295581126107,-0.0005565353279243685,-0.007885818094607514,1.11
0.14909753202394097,0.1555993485885191,9.806011167330928,0.005308775056410416,-0.0040692872675858706,-0.009217516367101728,1.12
-0.1509702287575302,0.06774919723043145,9.784928549495119,3.3158063612636585e-05,0.0038455248322861292,0.010975701157665123,1.1300000000000001
0.06843337074895978,-0.08325556751400447,9.924963195896302,0.0028595187116127302,0.008423121413040286,0.026364987798210397,1.1400000000000001
0.042882647540299655,0.034263380629462145,9.844986160780186,0.02077782376631803,-0.011171712297770134,0.004174700315392442,1.1500000000000001
-0.03971040407249039,-0.05451705924416628,9.816721994350688,0.009371444356357015,-0.008274967037965968,0.005365145643105103,1.16
-0.07839838203236144,-0.018035207581945514,9.838750936630857,0.0020276902937596494,-0.00428030677661808,-0.00017619827275898147,1.17
-0.025083943672000387,-0.131049635140265,9.703819641053677,-0.002250904859330693,-0.007687975696302968,0.004030119312714033,1.18
0.10237887201760104,-0.0005235196325490648,9.660207611874732,-0.013133786359273083,0.00015536938147665046,0.01076541221799473,1.19
0.03090807899925409,0.09509704302261054,9.895663855431888,-0.0011652057865281019,-0.01072058752248157,0.00784648398775431,1.2
-0.1082018272382016,-0.06543817132967408,9.845421192774568,0.009988087566891292,0.026329132108074877,-0.0022578899612566926,1.21
0.20175267748447112,-0.1112153636115037,9.893686046987867,0.003926546518480685,0.010667190409401592,0.016734928743418646,1.22
-0.007270069354083435,-0.09945265012972584,9.82544187088499,-0.022035214894217364,0.0044880655176329125,0.008813799160264571,1.23
-0.013867925573970387,-0.01723185270495535,9.716665347882504,-0.009312730807328187,0.0024695303139174057,0.00946909777597327,1.24
0.2507856641831087,0.04678096270520698,9.936920939628695,0.004637803351593896,-0.00951697185982724,0.007017783825212129,1.25
-0.131464279174666,-0.021405204960199577,9.826093603512097,0.011362365407714911,-0.016404256260271196,-0.011948145109121,1.26
0.04253825650161549,-0.09941643617726606,9.629651464483517,0.01457909396911126,-0.007938994949312824,-0.0011037257877512458,1.27
0.059202450221005926,0.033782852224477494,9.64843653618608,0.005371909654314885,0.00556324679179722,0.00975519382815585,1.28
-0.1036339658485159,-0.06758721948363812,9.759626933255747,0.00919178772414041,-0.009936846535334998,0.0017746584638519162,1.29
0.13250970399522122,0.045211090220676195,9.806217203015715,-0.01617701651868305,-0.019545524439911886,0.012802604586181099,1.3
0.0641158286583833,0.07113178960400593,9.69353964275358,0.008327304454088063,-0.016316003828384124,-0.01771917441335293,1.31
0.07620826140987037,0.08186996150757943,9.678695677056343,-0.0036960274359507917,0.027760262564491774,-0.0236563326815348,1.32
-0.022048156249425466,0.13535716553308472,9.634089028895737,-5.236508516807274e-05,0.006980325234500239,-0.008318947027230041,1.33
-0.06110119892372502,-0.14496979038029167,9.76090910982193,-0.011998693450892977,-0.015335474393681917,-0.017496897010571978,1.34
0.018246527988253335,0.10912816489384064,9.878994816640708,-0.009860160450788767,0.004716249741532564,-0.01574258291619291,1.35
0.0053907559404998764,-0.14558291023496917,9.772643855642983,-0.007790268456558152,-0.01989485774900301,-0.0031605705134390193,1.36
-0.03360659202708633,0.06271277272311102,9.85287468913131,-0.007429355633537383,0.0011744084602231136,0.00566424513087148,1.37
-0.03269535427256342,-0.08721554361206935,9.76156030587267,0.00467603383507417,-0.005292870356066109,-0.002938079318496295,1.3800000000000001
-0.1441390452576141,-0.01679582557511688,9.674268351022404,-0.011761668030740984,-0.00486762404100552,-0.014708711432489325,1.3900000000000001
-0.06850519579316112,-0.007070740733387377,9.845511966703874,-0.004598417330107226,0.015319643444608136,0.006524146243317778,1.4000000000000001
-0.01820391684294902,-0.02149653212743786,9.906727005926612,-0.00725566677399635,0.005916820008013655,0.002886438646917422,1.41
-0.08345041750767203,0.1816830848040209,9.58660364028235,-0.0021260445328572567,0.004248184311586624,-0.014388244202670488,1.42
0.009879632137650843,-0.015384063213475949,9.761267301573357,0.00037857332954428644,-0.008436214509071201,-0.007944875429631317,1.43
0.04533748118420314,0.003078402365761219,9.781287432587085,-0.0027241423019438607,-0.008492881386662172,0.0035048463577214647,1.44
-0.17616932505226005,-0.11097890903691782,10.074383621112885,0.0012359437460413036,0.005060274511453284,0.007072196169102848,1.45
0.006242987199385712,0.00826538113495148,9.855068745461267,-0.010820619054718301,0.02311940507855997,-0.0012128006036111034,1.46
-0.014016101443668286,0.0211285152465894,9.740789875729567,0.014255746625888249,-0.004421740018210728,-0.0036798505216968044,1.47
0.0633502252362521,0.0678158080057943,9.804166261785776,0.0007647279146544445,0.012830537728989512,-0.0029469277503445944,1.48
0.11868031331724962,0.09193706471807471,9.858651473113328,-0.0039005833837114402,-0.0012668017786598993,0.0026365993826810248,1.49
0.09189860081213658,0.044704378096102365,9.778938284098738,0.0002748905485952789,0.013271031733701451,0.00790770658627402,1.5
-0.013888187648521106,-0.11030820366651967,9.824374739949837,-0.008694342989560571,-0.008974373368274573,0.010557975444409135,1.51
-0.18920613076309156,0.11628634621138743,9.847349082669623,-0.007092197274936572,0.014223225138209086,0.0022057983335487734,1.52
0.20000993577072299,-0.13688518798281904,9.801848726017704,0.014177133235494372,-0.007837558372860858,-0.001708574781819643,1.53
-0.1555374161230939,-0.09790359793012941,9.839526208856427,0.008022878538469044,0.004870054529712505,-0.01399919376283282,1.54
-0.1286445013058708,0.028249449914492825,9.700240317748626,0.003959672417158542,0.0025562157455248768,0.003009840088365901,1.55
-0.00847416826737766,-0.17356554502281357,9.98541269825769,0.0072971717424285855,0.011636598733423912,-0.005543964264932805,1.56
0.08564301926011436,0.1325625980801869,9.782336824161613,0.002435724864566955,0.007320806539586187,0.016483734331697815,1.57
0.016326960991403763,-0.038281166950351414,9.971324274945317,0.014906891403389817,-0.001445824195827738,-0.0072464754120241896,1.58
0.02144304697427174,0.16819830563290783,9.677053370982527,-0.005722231834866484,0.017705640959220767,-0.005164100393565692,1.59
0.08467678484298412,0.009748939333788773,9.839489654427865,-0.006951396203380448,-0.006861276919306836,-0.002209685271691917,1.6
0.23686543470732235,-0.019327194316911857,9.787824112115384,0.0004801212780826662,0.005773372274629171,-0.00542206957166622,1.61
-0.007457606820987671,0.0850978796590754,9.635239217653165,-0.0026202702680794884,-0.008850260213503788,-0.008024203963343841,1.62
-0.0738261279125134,0.09538919901990615,9.797021956080195,-0.005239691181203055,0.01021204838442344,-0.004570752404257059,1.6300000000000001
0.11553620152173256,0.02298687559499115,9.961055958599001,0.014322807076758592,-0.0027032265983578225,0.020119966245499356,1.6400000000000001
0.01860815656482633,-0.010645662500624396,9.675553032685407,0.01555033182031923,-0.01494447535208049,-0.001245529357827964,1.6500000000000001
-0.0033720524662629358,0.015041032696819077,9.941386040904025,-0.010018704312985157,0.019809803242632866,0.010737920412314597,1.6600000000000001
0.012053529930482768,0.01572862548910182,9.852939494117413,-0.0014548912212002385,-0.01334972143469653,0.011833116170998848,1.67
0.020090739367580296,-0.13636503394160052,9.817823822293143,-0.011794493286699015,-0.009641763219751647,-0.002565385355409225,1.68
-0.15506566438339245,0.10935564919734996,9.83165310975095,-0.02855135382421319,0.0025967532173850776,0.0008608510262287079,1.69
0.13109026864252252,-0.022013764144062392,10.070332683275476,0.000322529151927237,-0.002161712936851641,-0.015507741585683387,1.7
0.18283482586636393,0.02274871563979388,9.754480147645058,0.004946795457913495,0.010789302519925761,0.017992324793564635,1.71
-0.0828480309626923,0.05762213296839195,9.80146640666736,0.0043612361237334715,0.0002814739299706606,-0.0064943058051859575,1.72
0.08242913713488084,0.03924100453424088,9.845664683755363,-0.008535220018426395,-0.011552961120688326,0.0007988745860110719,1.73
-0.1426517904390412,0.04361085068832958,9.835050082345877,-0.010340486938196128,-0.01673985808553217,-6.835498778309697e-05,1.74
0.14802395571534854,-0.024813869426001313,9.723017731418677,-0.0007802858661476203,0.00521859687924496,0.006604880722522032,1.75
-0.07571714050756057,0.050385094263629915,9.731136757246144,0.0011084283221365543,-0.0033720640654285867,-0.004135713114652635,1.76
0.17862190163735567,0.030791214917842286,9.8593772512568,0.01603564958169254,-0.0070582579943439016,0.0018280595391605148,1.77
0.10057420844033033,-0.06932374127935721,9.924708427493359,0.0027290422165167907,0.004212024930729351,-0.00583891886828431,1.78
-0.13613649938671457,-0.02348473361450936,9.8358970680391,-0.001545181083347719,-0.015136390368845749,0.008421101989459525,1.79
0.06172285515926667,-0.04020734750559971,9.85520628471064,0.004709897897559487,0.01370808681387054,-0.009229520747337716,1.8
-0.21084494376361912,-0.002579760926330498,9.706533366796446,-0.026354916269741322,0.014518938293516675,0.003618891540855711,1.81
-0.03517655547392073,-0.0890994925477867,9.750275568973155,0.002631524493536854,0.012090200105674069,-0.004135772604440951,1.82
0.10026877756793273,-0.047028537861385084,9.816792315148284,0.007878492464989697,0.000594164558445604,-0.004482940839475589,1.83
-0.03338380739829474,0.019856578201650706,9.69802280248413,-0.010158076381041626,0.025008779372494273,0.008996273800718463,1.84
-0.20847717318656933,-0.18517559683492393,9.758365061165769,-0.0039148646914390645,0.008833265428199979,0.004823159962378929,1.85
-0.049525441581067864,0.08900535859977293,9.764406436483442,-0.010392630484269185,-0.0024789907916782637,0.010809790016380641,1.86
0.04896110547780627,-0.03478649562848095,9.56801584324186,-0.004277187908976387,-0.01012295439155792,0.009100078758836226,1.87
0.055015592951619764,-0.055483827068986774,9.852476351086445,0.007862899597400422,-0.0010048912586496533,-0.0003568598653958445,1.8800000000000001
0.0685626085821642,0.03138144480367627,9.853137057223734,-0.005127919248869204,0.01815928126082738,-0.015073725828445373,1.8900000000000001
0.0541741866920891,-0.017350520081246375,9.772988914460871,0.019271147225845966,0.005047519585352139,0.006229526498944188,1.9000000000000001
-0.0035266661611044006,-0.15501404155903445,9.696320929039315,-0.008400676378290313,0.010550411963699751,-0.01736980015570797,1.9100000000000001
-0.06535027926354349,-0.16090015878813557,9.844164081699908,0.006807204009190345,-0.01293202720838537,0.008887053589303346,1.92
-0.01602645302534519,0.017762807272733005,10.061010955920326,-0.00961681112278992,0.01019258285200311,-0.003950114451141264,1.93
0.08566528960858669,0.02612171156453172,9.802271852240622,-0.006402248053968995,0.01903161827606929,0.013120403648363215,1.94
0.10527484840721446,0.060452844018364864,9.834821462608733,0.009217756902802757,-0.01232864558883978,0.016488721219297932,1.95
-0.05668294139125161,0.057845935846959254,9.738829742499032,-0.0013980935652024575,0.004814544557020349,-0.0024286165095679184,1.96
0.07969527169709156,-0.18745219876130395,9.669116380871971,-0.0038834447649541766,-0.005266142081709003,0.004995054638744955,1.97
0.058723236958680015,0.20683480092451637,9.838883786333987,-0.008932852247426556,-0.013217447764890653,-0.0016709190202398544,1.98
-0.02830403494815576,-0.06212228398951458,9.839771908434301,-0.009818607559959062,-0.020633551247636623,0.002393697927499802,1.99
-0.07330956218686588,0.1211946701106022,9.832518175029813,-0.0021567607797061436,0.018193520459885128,0.0028900591287570917,2.0
0.015015051937457431,0.018644343002252046,9.8228098805796,-0.0030240922587949567,-0.0029977079953590825,-0.006717055328324069,2.0100000000000002
-0.1372101733426194,0.08407929891275434,9.803169033463766,0.004423657173499509,-0.004768656482203791,-0.022342509673001238,2.02
0.005158360694339184,0.06050794303824798,9.661979338954579,-0.0014885079521357104,-0.003773009462829479,0.005008526739379606,2.0300000000000002
0.04222367387466635,0.06514748135710355,9.720564507472151,-0.0003803124512327825,-0.0088965120557247,-0.012680123605769145,2.04
0.1071246427619833,0.24375018710678137,9.735859544556229,0.008512449223837088,-0.005580234288996882,-0.002215016129269846,2.05
0.19321942843243706,0.06396655542526115,9.684955816318121,0.008571701746821656,0.005746548980134372,-0.004196227204209177,2.06
0.03965367408437547,-0.026629280184636624,9.749555878748918,-0.014702774605953626,-0.019423079573208483,-0.0008071352885844649,2.07
0.15578164900102634,0.08328284901666667,9.778219545039459,0.0027348547330520384,0.0036030573382577593,-0.007960646096746135,2.08
-0.03952388882718578,-0.06485151249310805,9.683881618923685,0.011268590709703555,0.006751287646981217,0.007107182501693529,2.09
0.10139442901089524,0.10018413723275431,9.945918173941765,0.0017315124247530994,-0.011440834989845468,0.017474018205818807,2.1
0.20657241110250799,-0.02348013832620436,9.845785499919149,0.006686976839876343,0.0036171652600325206,-0.006788703652281037,2.11
0.060232108696099435,-0.07566687712317927,9.81921078188133,-0.000984067876789623,2.6965086636999468e-05,-0.012414837467834474,2.12
-0.033676918086439,-0.05210946912031962,9.732804272406705,0.03139502006822895,-0.00025354016600921437,0.0061610872861609725,2.13
0.10557330563407015,0.051855655207518184,9.761370129194129,0.004768536531042748,-0.0005032069452158053,0.001346744077701695,2.14
-0.05303351907257801,-0.1505520903253157,9.895612859264881,0.014117308176632993,-0.0012451012084016542,0.019411528378721576,2.15
0.07665522976066785,0.18867943921904068,9.885084725898396,0.0051469287992680825,0.006484603343755663,-0.019082583962267,2.16
0.04622754697915012,0.13742145707155462,9.974142586354983,0.021801500006078927,-0.004773446150807899,0.0018709237469493913,2.17
0.06496310026932776,0.04848583511534754,9.970743105481096,-0.011692507946237536,0.00022071991072929227,0.0026531811896571985,2.18
-0.013905463577845292,0.011975207253706138,9.820293462136318,-0.004674076059494277,-0.0019114207363819847,0.00897346354038284,2.19
0.04255481357240361,-0.03736905236826316,9.775349583523969,-0.019177627672581556,-0.010564147861635736,-0.00015012918117874671,2.2
0.02587088284060687,0.06422934996856483,9.947086250338641,0.004583029806702057,-0.0036324779614034133,0.005991071069246649,2.21
-0.05302027114062988,0.03294933964838596,9.861823891353215,-0.0028438157432865425,0.007684914012062273,-0.005265009092561413,2.22
0.06037876181855559,-0.02192903994215995,9.888348242792652,0.007224833926172522,-0.010882262054627239,0.0034876198549371328,2.23
-0.014735543939312876,-0.036348080591395465,9.744996088558317,0.001354747822755803,0.001177996761033922,-0.0012142345808435584,2.24
0.10009801173264886,0.15913376060946138,9.68981220933339,-0.004621618367102087,-0.0042630131488356785,0.008532022721778387,2.25
0.020455516369839166,-0.008359305405492418,9.899136232759917,-0.010388054135199682,-0.002518704931565095,0.012419432216244562,2.2600000000000002
0.001738033626601348,0.026096005795850308,9.874857688380645,0.014044612263104375,-0.0008523766739310153,0.010817305127995995,2.27
-0.06740859738416143,-0.08129790853848268,9.868989946425929,0.015668398019844973,0.006579474085403152,-0.01735887098810211,2.2800000000000002
-0.04613297179688293,0.043521269592638086,9.789632063718889,-0.013718505839101044,0.008626198654957777,0.006126705762829128,2.29
-0.06330191651782585,-0.05833905103556887,9.764728613743408,0.019689115521852773,-0.008306399382741405,-0.01452839872234178,2.3000000000000003
-0.05899059657982808,0.029524711572954516,10.016786122530306,-0.0017260808290561636,-0.01048927043209617,0.005664001578170932,2.31
-0.023289562877574877,0.11982962433468068,9.583780677952461,0.0012126159259601597,-0.010195150390863111,-0.004486109142093836,2.32
0.22653852541352282,-0.019653557681971086,9.772491057919206,-0.014498696520870576,0.0036432469069779894,0.007165874519616405,2.33
0.05615236932698145,-0.05531665404627548,9.816341146078209,0.0049976926688387,-0.009818637033587284,-0.015989380177087606,2.34
-0.12702703158961062,0.011263717071091799,9.953217073376237,-0.021460037160632335,-0.01659304638947518,0.016861222931595178,2.35
0.06962387631800569,0.0472841182871322,9.711586842700433,-0.0015603209453749142,-0.007031519567839837,0.026895201355088178,2.36
0.13915885202757336,-0.04302441205463908,9.770106756781237,-0.004071412714047742,0.01348195643808844,0.0004569182448012145,2.37
0.13765648390235055,0.11796380877596234,9.889388929883305,-0.008461253891375897,0.0035313276039378007,0.007130960965773361,2.38
0.09486680912859095,-0.032412079238660414,9.828083647201856,-0.001289173217615807,0.012750630569544702,-0.0009075375938487875,2.39
0.07106241532835166,-0.14777823333482054,9.811321578956676,0.013996182537593762,-0.004821498540039116,0.004680694923163573,2.4
0.2504109989412085,0.1052614411667002,9.737506394722558,-0.0005922001666792711,-0.00420585828257403,0.01011239691465973,2.41
0.07489834165405304,-0.029417744701051175,9.685436450724573,-0.006256969281206104,0.006962864737597523,0.007958558591182413,2.42
-0.004462012602871889,0.005262128266615671,9.7760872106843,0.0004963676185944659,-0.011359207590440996,0.007678302470350156,2.43
0.06589135751856759,-0.3209897098838186,9.830870933836147,0.006885128525417498,-0.007440189158793312,0.0006261567310342418,2.44
0.08370865607609287,0.05060193096202781,9.866300474881204,-0.0075445802447254556,0.00015759266416657955,-0.000959016546087118,2.45
0.08838399116838629,0.006592465466159306,9.833478425777285,0.0022986281920504893,0.0012004817936949862,0.009609558576729696,2.46
0.03269456933257647,-0.07138944371659307,10.073351736231313,-0.03110405913735326,0.0011598699797905512,0.010517294278254081,2.47
0.036005929747258414,-0.07577148336473255,9.88801836663617,-0.007549642390274906,-0.001635616196863424,-0.01262177589679827,2.48
-0.010979909507384828,-0.05354385060753605,9.688827988855792,0.001613038704805389,0.005157480252710531,0.0007368491560027787,2.49
-0.09911971552652729,-0.13536792657604876,9.86224544038831,-0.01979468506059819,0.004028363493858607,0.009293278822559252,2.5
-0.01214541626123729,-0.0041041318386578025,9.681157945019851,0.008622019331500946,0.0026445835945090035,0.007451426555833845,2.5100000000000002
-0.08077285682833613,-0.08447632270655246,9.882584542076666,-0.00470422862801035,0.008397917533387948,0.0003134899358700721,2.52
0.21604083887810185,0.06506795866774334,9.943642295953214,0.007127379657633289,0.007858443273423622,-0.005250655556071922,2.5300000000000002
0.07724510410413113,-0.01788281225361812,9.855587417142159,0.0054916075625336125,0.012391932059510368,-0.015975727585117887,2.54
0.11078010637056256,0.10452945678990494,9.896504568808275,-0.017337711646149424,-0.000282504058667173,0.012337243581869817,2.5500000000000003
0.07394643012747226,0.09135594564013681,9.706487422317164,0.0008657396505049958,0.010808427009119976,-0.0011144219217562677,2.56
0.02465331341810366,0.0034106827108919117,9.850936431279191,-0.007365750061933214,-0.005906461802684968,0.01969406610774853,2.57
-0.15680903495176338,-0.022217176154286228,9.767789881861962,0.003482385719851284,-0.024886046047975743,-0.0045511848036222545,2.58
-0.037337503356980654,-0.08852293796600466,9.769549926046537,0.0005478144354184004,-0.011248899099876745,-0.00119077474800041,2.59
0.12503769703372491,0.05460511819058233,9.727921215537439,-0.0009010145148157876,-0.0022986370265636806,-0.003435494556632749,2.6
0.08149735735108263,-0.007645139618169522,10.157727801797227,-0.020851854860307238,-0.0037485297577034573,-0.0024349362441384755,2.61
0.0021229896241634987,-0.1776911579744528,9.832405662910226,-0.010909908089367959,-0.030869238261322162,-0.0016871916974451682,2.62
0.01389598884343977,-0.026850265797894513,9.778976768297252,0.0016665543635436993,0.01618941590890309,-0.02700259384377991,2.63
-0.05026131131012356,-0.17047942597248267,9.93110194045004,-0.010938782905818787,-0.022573968213029753,-0.020737203785930438,2.64
-0.10427310448759451,-0.027232102712373515,9.790329812245758,-0.00480264077423202,-0.011864723011427682,-0.0007443789962581727,2.65
-0.06773823048588222,-0.06610116274246851,9.728003685924786,-0.001817178623854984,-0.007327710434569781,0.0035427274577613313,2.66
-0.015253361109926153,-0.09125876832187935,9.823271781504722,-0.005550554215154739,-0.00132290268055502,-0.0025257356040018788,2.67
0.0006233941655011574,-0.05353161973763282,9.801967795486274,-0.01631815563190965,-0.0021131476568239972,-0.018071900591849738,2.68
-0.0435398655780961,-0.020883787378249908,9.838728275320953,0.0016224582472217403,0.007535530178921627,-0.011850769008817194,2.69
-0.03493720709925614,-0.07879457337931073,9.884216980780954,-0.000815411238318139,-0.006842382926933667,-0.002873073639478162,2.7
-0.16700358924089873,-0.0034320704819203645,9.89359912545628,-0.0037782644263134554,0.00719841325249729,0.0060735857554355555,2.71
-0.03691834447545058,0.14105810559278076,9.965665147374098,-0.01322424454563505,-0.0012480421559163647,0.016492797117101096,2.72
0.034913800090315264,-0.11856852358094412,9.874054801529018,0.008488062746278986,-0.010774153629792798,-0.024110926006450508,2.73
0.006366235945018692,0.02619014390993082,9.783868616463307,-0.009089085047735083,-0.010136181362683062,-0.013111773371497293,2.74
-0.10110256314527799,0.010700192112253447,9.907646124068588,0.0008639472256441023,-0.007105072552122686,-0.0034286152739852853,2.75
0.034526148085820045,0.03766278084924303,9.752776089541234,-0.005888388006475271,-0.0049039225161720094,-0.010033721861127337,2.7600000000000002
0.19506882577211393,0.06508254062618574,9.724763360764102,0.0018916372330687495,-0.002064109701254592,0.009054783222452487,2.77
0.03389168244941953,-0.08757018233638318,9.92783385564965,-0.008219118189966033,0.009359735484378321,-0.01213871045618058,2.7800000000000002
0.04279982124692001,0.16976332949014103,9.621747431901936,0.0024432035839998733,-0.012628152735442374,0.000707262994058416,2.79
0.006707903038170201,-0.120325865207978,9.94015306953328,-0.0019516376911799269,-0.011017237765645602,0.006262155187252683,2.8000000000000003
0.07441546696494394,-0.0758577150242018,9.820668646880398,-0.0022239135189689803,0.014945267817150321,-0.024531204915630236,2.81
-0.125803939702834,-0.1299531888135558,9.724574865721307,0.0022891849221558565,-0.013169080814496461,0.0024798149532693527,2.82
-0.021290506579561472,0.03427900726778726,9.78567174686096,0.003250576908634591,-0.005305910383808088,0.000256951148543077,2.83
-0.1647234480311953,3.093051434463473e-05,9.770372548712416,0.0032762552463542777,0.0017610234132886882,-0.01147870299948516,2.84
0.0897790067713805,-0.024770532214735883,9.83743289670235,0.01377093542437061,0.004437800898003761,-0.015128117364950693,2.85
0.24515840992945048,0.12533882143314193,9.741618079869879,-0.011484303194611085,-0.021815054676147864,-0.004904887044869376,2.86
-0.11115550428007413,-0.01705934039190942,9.818307219529764,0.012024799935605096,-0.0007667791076734825,0.022774019683196815,2.87
0.03800736640687286,-0.05473688327635127,10.101827419837608,-0.005431293554334031,-7.664759584192121e-05,-0.012613844912703254,2.88
0.2156197675416745,0.051804942413728086,9.790208427667654,0.019194274907427752,0.003223126982414691,0.0003039961803190899,2.89
0.02254920679889394,-0.026193290533504384,9.774681277748556,-0.0008939331155861107,0.007128899081734017,-0.010309376288679313,2.9
0.10096875434926825,-0.009836280805865613,9.854401067835099,-0.005087039962064943,0.014849884584530008,0.017512166481555094,2.91
0.016843591615594775,-0.13819036099187593,9.879905922323628,0.009449782293806094,-0.006093340582766851,0.0095588485310267,2.92
0.03152999612502249,-0.018219895386313634,9.711549727255344,0.003819358373208729,-0.01933079548210262,-0.010373768109498409,2.93
0.06849228797769971,0.10348440245270255,9.62971359076048,0.012125916323286863,0.014910780058454792,-0.0015239522608677517,2.94
-0.13517884521825205,-0.06976306615032637,9.934049298773305,0.004160038240099532,-0.002008116937182883,0.004167789906471912,2.95
0.14788090424485364,0.14527895021895545,9.80408888341805,-0.009752940655705816,0.012103618995545332,-0.015763490930157685,2.96
-0.042868063925905676,-0.21734656840400476,9.85971896819791,0.0044993226176133026,0.007443894711836783,0.008691679701075171,2.97
-0.09546275198326155,-0.0371702909231754,9.716453725345746,0.016098085413505117,-0.009903400043765491,0.004892585879859508,2.98
-0.07090931480288044,0.02764303540688841,9.845604376935922,0.016727949119938367,-0.0023606582767197455,0.0023438415498565784,2.99
0.13304773948447532,0.01065286546432898,10.082609316146126,0.016359824612575843,0.004629817748092171,0.001363904667995826,3.0
-0.10327662168067978,0.10968912343553844,9.909270371381943,0.020969682146490313,-0.0019019996636981179,0.0014592110503558334,3.0100000000000002
0.16280945731457844,-0.025663522050683115,9.807437357323671,0.029759330568852584,0.019937620023412317,-0.009571623927180603,3.02
-0.04176530546463217,0.027200149631528656,9.775223629289254,0.0006932422370673878,0.0030717728708687087,-0.006790965419444394,3.0300000000000002
-0.0764638649429699,0.08313257888457792,9.919604927034342,-0.007756330665311353,-0.006066409742986972,-0.0029193537944486674,3.04
-0.0765322297817079,-0.05998576107288577,9.903625673649623,0.0062036447148370545,0.015171492540394634,0.02036879931068602,3.0500000000000003
-0.19652731726586276,0.06098352294824268,9.809215763561996,-0.018377161849323784,-0.007066120134586611,0.00041312684198844033,3.06
-0.10819654215535848,0.05661812201938352,9.810106132081062,0.00272341611762333,-0.0029049195400898,0.004535544275874524,3.0700000000000003
0.019390424214316956,0.04227797093266259,9.648767729385028,-0.0034252698815094114,0.013230940351160235,-0.008004910190738738,3.08
0.08548352600375643,-0.04566105735356095,9.867740522628324,-0.00711389270296691,-0.007143323979453748,-0.004488085859432794,3.09
-0.16870330469122322,-0.005053621746670746,9.945442245460878,0.0035088025907311893,-0.011976816918205646,0.006371876655842546,3.1
0.12752352322735871,-0.05544289094979681,9.816443980606383,-0.004076364604442617,-0.0002116121108004533,0.0034906261410655704,3.11
0.14018288661711253,0.021236404052649316,9.94718155695115,0.002116177609524115,-0.003877313667830752,0.004292461567829691,3.12
-0.06479860248103107,-0.04739898950846891,9.906828957403285,0.0030308073230118273,-0.0019240323100621333,-0.006895696740804971,3.13
0.11027376204955758,0.18187369732846836,9.862178027280487,-0.01284843852930019,-0.004063128143053665,-0.011207264139366327,3.14
-0.033991314435420784,0.02113217326790656,9.839951728401848,0.0021826890298140508,0.013309275954516551,0.0032052118103208676,3.15
-0.0006216791499552091,0.1290855552204476,9.584157238353257,0.014657995825826678,0.005401526368489658,0.0007037956105065299,3.16
0.13525889381007491,0.1849570974504704,9.912925300853294,0.0007742040589956977,0.007977635460698856,-0.018962895294370043,3.17
-0.02477984128922725,-0.10828044181699313,9.90668091309885,-0.0004836880780078803,0.003450846232168139,0.021077956876722207,3.18
0.18529797088192382,-0.01996646090628496,9.802685009776557,0.004877396250146767,-0.01653070063763673,-0.004075121469343591,3.19
0.17279185075587727,0.1810711869564563,9.823846515148137,0.0040756128575693065,0.0017141246713438558,0.011224502616367671,3.2
-0.13334118928275437,0.059754519157797184,9.69473173306942,0.0027944277990453997,0.007930251181989935,0.0019542729613814926,3.21
0.08693605708371406,-0.16478154097093028,9.80659566684372,-0.0027318070080363395,0.0030661584775403955,-0.00742684694907946,3.22
0.02317327094666405,-0.037233123359104996,9.708670923590637,0.0012657311607019712,0.006562285584542702,0.004311306163885099,3.23
-0.07880643825798016,-0.02563077499337856,9.715895722834826,-0.0012427674483986358,-0.003067072111304684,-0.015906891423889784,3.24
-0.12172918252145458,-0.23791961786711138,9.768535989598583,-0.0007957614677701321,-0.00035460972769522676,-0.025034272196123652,3.25
-0.12912178962390325,0.017947455324412248,9.764079961984413,-0.01998761138809505,0.006050783488599163,0.009898683092827303,3.2600000000000002
-0.008031083002946726,0.1393319753209694,9.823278867362973,-0.017344261114335954,0.0028570509462891363,0.0010647677419919827,3.27
0.056503688313736436,-0.10464897979700485,9.688977572907769,0.003899850166125707,-0.004423465884906969,0.005571849526905442,3.2800000000000002
0.01235168061274352,-0.16416209507857676,9.941644540237785,-0.00968752742159021,-0.005529707624968232,-0.005383005217727015,3.29
0.16316146403399084,-0.12882937891541177,9.628320622698789,-0.00028574984510560417,0.017725941704562202,0.0026518679533395133,3.3000000000000003
0.07584641081487248,0.19394560433433014,9.990226203156277,0.00856272074273732,-0.0018009043994861402,0.01779166807953617,3.31
0.10883300127919056,-0.02400004128996706,9.81706118468194,-0.0011581998215612886,0.01343262975475458,-0.001305367948712156,3.3200000000000003
-0.1525362207288682,0.04197939901395541,9.878498383698254,0.0019524978338801117,0.0038759528063576926,-0.008679336033467901,3.33
0.10500235439313553,0.0848522665377494,10.096415572482288,-0.006997688017786321,-0.0015736104363006907,-0.010879285199152077,3.34
0.0021955074458629917,-0.05561666221434482,9.797760624943471,0.005237176388835347,-0.010278465084053013,0.009848332987803717,3.35
0.05443057654379292,-0.013569015306049296,9.817461726744256,0.0030080554032243484,-0.0028959048099143525,0.016672555644170323,3.36
0.0009088867895290006,-0.013135283515061694,9.89882851734062,-0.006831913155533243,0.013949475510562937,-0.012378642883382411,3.37
0.04537942599817606,0.0865149550327621,9.773266622312887,-0.0010474406880281333,0.001831255374177786,0.0008630580665393641,3.38
0.055738661039900696,0.0218739621697305,9.94016960145895,-0.01034101768415249,-0.010521717222823088,0.016902936628238007,3.39
-0.01706056198702886,0.06264831429063099,9.739542618467441,-0.008768881722297199,-0.012939047730845135,0.0165274284945475,3.4
0.06775388112023821,0.0024984980921369604,9.710033341658331,-0.012863822107597261,0.011397535292866322,0.0030044390864022836,3.41
0.03210722346414855,-0.017598955133912145,9.719912776656473,0.009242896442997682,-0.009139490642927546,-0.002576358644309497,3.42
0.07486220004387009,0.14906063879331882,9.7529396688316,-0.0011479408679049758,0.01845608365396059,0.013273614947694183,3.43
0.12759609983727738,0.12905754614050527,9.761084985958218,0.005131126314375938,0.003398990064874487,-0.0020946959357719987,3.44
-0.04303841639723291,-0.08806439265629207,9.892177789781003,0.0044401343357627744,0.0034760622143094927,0.012963569097547072,3.45
0.12394609948324219,-0.09324198309627119,9.769128785223673,-0.0036104684127905235,0.0014923677469697598,0.020913684018981988,3.46
-0.03889755660581653,-0.1789356829838626,9.757606278758352,-0.002883547235239274,-0.027733494838540502,-0.0065272422434845215,3.47
-0.1124109388098916,0.004365072888290027,9.900333597667986,-0.00596499826908832,0.007197933554584713,0.017179596218499057,3.48
-0.11199330130137941,0.035237757558356425,9.713848512974906,0.001782825773469061,0.011360667173405097,-0.0076461618486219855,3.49
-0.02248707219433389,0.1525650876936459,9.725754152556213,-0.00969025319776058,-0.002039966872335948,-0.007321449783219739,3.5
-0.15908993130775165,0.07267717939176101,9.966834021446022,0.0029283097879918064,0.005232701775367291,-0.005629432164178307,3.5100000000000002
-0.04497401244936431,0.13526472291492211,9.84648458623921,-0.005964998453698023,0.014007071976232523,0.011175198763576165,3.52
0.055439181468434476,-0.14165836203441326,9.870169865027213,-0.009410770785827612,-0.005821182181304918,0.002811161274666482,3.5300000000000002
0.19383588254944825,0.08613512395887031,9.784587455769712,-0.005536367186224871,-0.021463081229065987,-0.00670462744510942,3.54
0.05102469917582578,0.05492597556672492,9.609353449257377,0.0050174046993639665,0.001472212743562602,0.001996439608920888,3.5500000000000003
0.05864665400373488,0.0038422127124755167,9.65349240386656,0.0013059338306415122,0.008172831136953534,-0.00972825877311964,3.56
0.07711979331367307,-0.13954539373560595,10.103030365720555,0.0008879403664184756,0.0013544936336207407,-0.0016013788369620653,3.5700000000000003
-0.010671925896226196,-0.00018812269410112552,10.013143514093526,0.01434732306417855,0.01428728488374481,-0.010031359514148906,3.58
-0.029577311990465024,-0.14594188049284137,9.684725149966292,-0.005357109776282858,0.012557508784909866,-0.0035879879770197914,3.59
9.526373329209167e-05,0.0017877949108692866,9.749411149923585,0.0031020942758062664,0.015414892434536741,-0.005965923378521321,3.6
0.03351061412153531,-0.14368191328461097,9.622320517965605,0.015256649931319338,-0.005639691544929956,0.018928224815815985,3.61
-0.04640084575939797,0.08190976484602519,9.670405350171013,0.00842598539464794,0.0021448263784196574,0.013247989955322004,3.62
-0.02173121630522,0.016673752857709556,9.867949188017946,0.007690538864182899,0.01376665041458379,0.00846027185901324,3.63
-0.06960344478536565,-0.10870221398798874,9.893141597994305,-0.0032481296694497354,0.0167713243975227,0.0037180618702572234,3.64
0.03948552501026754,-0.1596052551199084,9.867898886226369,-0.0010411366481961315,0.005598629036272374,0.0028828929597184065,3.65
-0.1894123028649802,0.06403173710183299,9.746997805919792,0.008492237884649118,0.008594282958038487,0.00029104240360454777,3.66
0.13020488173079042,-0.1270957477453932,9.883582286023321,-0.012729329977541082,-0.004184612167552483,-0.010334398970522421,3.67
-0.13617113287582577,0.006858035439506709,9.86843497736786,0.006765944719986479,0.0009672506395242385,0.0024930457491942515,3.68
-0.03677597864328832,-0.04518785130343498,9.82455451573152,0.0003225044400174735,-0.015085939390292258,-0.002093552111365644,3.69
0.04447099357390244,-0.05676506892492962,9.819318824081158,0.0019065680797862412,0.001662026879926825,0.0029035015068343056,3.7
0.04001459919150145,-0.03952631356861944,9.786135856499415,0.0005931121684500504,-0.00992332977304945,-0.00022701925256233898,3.71
-0.06195347385756757,-0.0016471887958415133,9.957171965243576,0.005409393694511762,-0.013761976635744062,0.00867768195806398,3.72
-0.04234467548599122,-0.011718236973705502,9.89541499193785,-0.010853923013406507,-0.0214863101487213,-0.01379848137591315,3.73
-0.012526412702736077,0.025948242000609717,9.759828527052452,-0.00447106785933108,0.015605521235636058,0.004251411214747709,3.74
-0.08715048624436345,-0.02589073005055329,10.109586275822304,0.010257752471708063,0.0054087015090861805,-0.004797328950835131,3.75
0.09262993278837998,-0.17936119772880005,9.904563439324988,-0.009521310755432024,0.0022833838932716016,-0.00968518145464163,3.7600000000000002
0.07902752762035557,-0.12816061624280084,9.823377484271575,0.0073120415206559255,-0.00986797687040668,-0.001438478553109825,3.77
-0.11456257946192686,0.02508879463412529,9.797274280198081,0.007306629487644061,0.004126387656382715,0.006019586375746653,3.7800000000000002
-0.25957792410111474,-0.10691857078293909,9.840129235228641,-0.007882828620478068,-0.019785885666667294,-0.014716496807615994,3.79
-0.047853646312142534,-0.041680211794790006,9.619811230260684,0.010545779717934608,0.0018568797180462293,0.0016675312795353685,3.8000000000000003
0.13401944947462371,0.01331736219676649,9.881122461309495,-0.011218904135405787,-0.0006437246969561846,-0.0013599492838321323,3.81
0.0008078904757698829,-0.06016674450453799,9.814905856222731,0.009425759073993413,-0.005261799836500805,0.009037756018796096,3.8200000000000003
0.0451378435583289,0.235217314355551,9.897951914724509,0.0069864504733829075,0.013478341307389832,-0.007973789200935841,3.83
-0.07059016025990218,-0.039668006481923965,9.800534170420693,0.016614542450736722,0.00336349314876611,-0.001304623632720795,3.84
0.03289688728741511,0.06103252416908146,9.829128895275032,0.006887044288049096,-0.0097466731988415,-0.0008050307173366502,3.85
-0.003576544888687016,0.14547748680921785,9.85121481980497,0.0023363826464481673,-0.006311316672746294,-0.0038330762566141656,3.86
-0.05476998508921336,-0.049778963080755134,9.877286389509223,-0.008977647451526707,-0.007709648970665529,-0.010229453561404131,3.87
0.013579771093240432,0.12518942339813774,9.700969939341537,-0.017681834908806704,-0.005036469294628517,0.00972801832859604,3.88
0.12637807512878083,0.03992318922761992,9.994393295031674,0.00023259992823102002,0.0017959010672084447,0.008431296538817225,3.89
-0.06483358573386742,0.046909978895720544,9.992765757395322,-0.0072326479691226684,0.0063011955282537505,0.01072717452403569,3.9
-0.2530174954659684,-0.05402052313635252,9.520645911947282,-0.02399044603015466,0.004590414346593546,0.008911148714815782,3.91
-0.12525654018825072,-0.12467025803387735,9.865527862306836,0.006965130386390259,0.005716249743882414,-0.0063255849143616935,3.92
0.11754999963495145,-0.11404254007372427,9.677463421606108,0.00949509728953635,-0.0005673855270327011,0.006240155686657825,3.93
0.02322815301010525,0.05413525869132472,9.673930484595942,-0.022312295173043114,0.010077814504509838,0.008302606478758124,3.94
-0.06909755525900643,-0.075092393119297,9.86826689536782,-0.003029912339958293,0.003665419387252624,-0.01487056983930745,3.95
-0.17102527819957625,-0.018794656863481266,9.756260108499918,0.0019020293663615968,-0.009673731699573479,0.001399510549526486,3.96
0.09785058026279214,-0.020297058752336315,9.817651517618392,0.005747724117964272,0.004609496779956044,0.011756491911082008,3.97
0.053832871899688176,0.0011541335140005929,9.900694330447324,0.00020110967515752214,0.020894272548846064,-0.01025164730685148,3.98
-0.1347268217460049,-0.03120420021891049,9.902271224742531,-0.007770085921807782,-0.008957242350509544,-0.0057995135706606716,3.99
0.026171895099379103,0.07326272924249905,9.893179728290253,-0.0014841105947070894,-0.006535851031293373,-0.01243339097471734,4.0
-0.015558624432776912,0.03137672139110945,9.873921363948462,0.009235547036045875,0.000404019241617129,-0.008185576256346434,4.01
0.14907515043262315,-0.06112730230877233,9.874495017065467,-0.02141905718458375,-0.01724134558431991,0.003798933263130031,4.0200000000000005
-0.045197819564225104,0.04788883601260083,9.914897932676588,-0.0044994078964662124,0.00647125310391731,0.0022242787276424195,4.03
-0.055379209937256896,0.14592801881823667,9.844696525146299,-0.010706554625817656,-0.00035912913188343535,-0.0141445751903401,4.04
0.026194779185956276,0.02669000091794558,9.83600345147716,0.0069023395674315926,0.004777285209969837,-0.011657234396463807,4.05
-0.07779721404252236,-0.01979878416384233,9.762407642896129,-0.004505575963584265,-0.008434058916216352,0.01331915631624265,4.0600000000000005
0.013819927823226955,-0.052591360377492395,9.674340668517814,-0.005139641261923761,-0.0012521992252537892,-0.00015995146335855015,4.07
-0.1743060121280806,-0.11810454579300256,9.834765721166232,-0.0012139782410644131,0.006700972681881051,-0.0011526562496733924,4.08
-0.025805065165751703,-0.01917705108321545,9.941362573949634,-0.003156856830109875,-0.0009385819153513821,-0.020275972555386428,4.09
-0.008551360852527305,0.07483058381478418,9.835793220548119,0.0026101239842366963,-0.0028172438934099923,0.015128479070229224,4.1
0.09150069973661665,-0.06101542488043809,9.752638555142484,-0.019993174556625505,0.00474483289615945,0.0035032033065489155,4.11
0.004656534410773231,-0.034906155759719934,9.884292522660536,-0.021643753153040516,-0.002636888758937846,-0.00019268416167078121,4.12
0.09360814217868554,0.032619432543403076,9.919751148711107,-0.005925455724552069,0.005309977335305015,-0.0008839154862286406,4.13
0.056320108516951996,0.0406237152099257,9.891186959934979,-0.006779933611026958,-0.008859156534039387,-0.01667587576961698,4.14
0.20740022088822854,0.008875806738496387,9.742522025195122,-0.0025576430245216487,0.010761835875117629,0.012973768746646993,4.15
-0.024328630630882267,-0.06259015943190042,9.856243719893486,-0.002707187153379896,0.003282581426654472,-0.018728107447069393,4.16
-0.013904019743463858,0.0793613647746259,9.699570330134764,0.009201557112475958,0.01510348619886056,-0.015170449323841125,4.17
-0.08259852816437425,0.05721058805837766,9.800090345146723,0.019897944281686803,-0.008023619266125248,0.009158874018715648,4.18
-0.03128804233484066,-0.025482514074091175,9.787785437709838,-9.148648736594564e-05,-0.005071313319663281,-0.006356727293901877,4.19
-0.04482310540057152,-0.06356306812468544,9.69338819010646,0.008217794948065956,-0.010285342255911507,0.007359446873860071,4.2
0.16461368186157802,-0.05675647886409764,9.966359777946586,0.01883302723374349,0.0073956939388396285,-0.005448127303333802,4.21
-0.02589763679485432,0.011749104037707004,9.815527405027503,0.0014532142789212563,-0.009585293066755398,-0.020202358722622986,4.22
0.14330813997729566,0.003412421380125664,9.799112833832792,-0.006599170836736849,0.0056694442210162115,-0.00920710292634043,4.23
0.019136045527263227,-0.08892048222862368,9.804863899244703,0.0010314171179350122,0.010236008133766865,-0.003450217218839112,4.24
0.06710212189001155,0.1563294595140447,9.920063683572891,-0.007355110040065798,-0.003192578565666237,0.001566266369848366,4.25
0.04951710521136655,-0.02139337735897451,9.761668270718848,0.008392578309354215,-0.00839096480995259,-0.009345849174724384,4.26
-0.0859695127274304,0.027670610058682883,9.761807037812641,0.017198701818223954,0.00603625759991216,-0.0007648456041542285,4.2700000000000005
-0.16773418109292024,0.04666196356727922,9.908382692980375,-0.007309730330471206,0.0036381284124876903,0.0009386170279000261,4.28
-0.07159307771289873,-0.2073204584662277,9.759386641976118,0.018582967667508162,0.009313770023818495,-0.01365327370543999,4.29
-0.08562960236069943,0.08330592156305666,9.867207441261401,-0.0017600589509557793,-0.001409029084886955,0.003732334925943035,4.3
-0.03934933974194534,-0.03304398550051909,9.871673220318597,-0.01839477359724703,-0.0038526302725667744,0.019487723392364514,4.3100000000000005
0.0007513827120094928,0.06291499758122697,9.89246187533463,-0.004707965601630937,-0.00482877901214783,0.0026593549658463127,4.32
-0.13776767514575103,0.04931134913666202,9.820409861534738,-0.010999556188569752,0.0064647478169438015,-0.02599306111273219,4.33
-0.08163432860191068,0.08579722571578464,9.880995243654061,0.00403439782175825,-0.007258857312420697,-0.0006175051075767124,4.34
0.08001960774902474,0.0013551102081778082,9.853990448847563,0.0020711992855700165,-0.007080817286212964,0.0004976994057620526,4.3500000000000005
-0.17419873217249154,0.036681490805320925,9.812941104766585,-0.01698446127963176,0.020824628925377217,0.014103451579524414,4.36
0.07463154735163255,0.013297100068368907,9.688828799538495,0.006630713992925673,-0.0077511304439881,0.03481828773218813,4.37
0.004846388801034596,0.08067858797570066,9.813973394156317,0.0013292184674639526,0.022164915346750087,0.010966606135476682,4.38
-0.08982877916098764,0.05793303959156896,9.699752953472673,-0.014300461048147384,-0.0021133063298784983,0.018386310789692353,4.39
0.040383089381474634,0.01641984082787153,9.862717299118518,-0.008280874120806374,0.020593126371305878,0.0017215526318246758,4.4
0.007052084215102398,-0.021966958366264572,9.788215274211025,-0.006872775166953863,-0.0047513117155617585,-0.014312309798457915,4.41
-0.13842717195344784,0.11151951845500255,9.772095599397199,0.0026952036905203126,-0.005077564421586457,-0.01374018376826916,4.42
0.020327314155455023,0.07770134747762339,9.79662868097667,-0.026813865758729665,0.0003089629773729716,-0.0021664149849289246,4.43
-0.0292875644932466,0.0238755337439326,9.816982397446843,-0.0007507391482718727,-0.008670575103772699,-0.025427438609684966,4.44
0.04895811238803071,-0.06700893254324902,9.78601776403203,-0.01218887291618534,0.001394175419028144,-0.010445409604401497,4.45
-0.009100826750844466,-0.2812522802048189,9.662254666438308,-0.00022172889839739898,0.003685311963856884,0.015572410701556398,4.46
0.07356062374947799,0.08075720588942481,9.811818911802265,0.00958785567740893,0.010598725962119849,-0.0015175209577917616,4.47
0.003947251388646435,0.04009048729708717,9.79091195764981,0.003979886341341669,0.005880597984384909,-0.00585723089236094,4.48
0.05149452786295166,-0.05938135268604451,9.773963510497513,-0.010895170642044467,0.0021105408588648305,0.0037992981943302086,4.49
0.14677548117506078,0.035944118785316614,9.833252816241156,-0.010276461804349239,-0.01892020050045491,0.01833020729425338,4.5
-0.08548233412748776,-0.08854458119374181,9.684936233956758,0.018089562117213288,0.009217193336257755,0.008221627926234513,4.51
0.23145130339657394,-0.11442513951596985,9.591130871678368,0.004195715788803502,-0.004767233569051256,-0.010162511493374866,4.5200000000000005
0.05654620538815769,-0.08563497426918737,9.953032984174735,0.03100933093164304,-0.003073063157119219,0.002645693945301213,4.53
-0.0840262552764286,-0.04802690666062716,9.95536944614433,-0.01155300435106179,-0.0031630265425613923,-0.008753082465321095,4.54
-0.042873165463627905,0.14042327619709588,9.88830312685971,-0.0006692182310496811,-0.00268939063513219,0.0005565800190746224,4.55
-0.0005054353712648922,-0.008275576876655758,10.08017220499426,-0.004469703117405836,0.01683707819620844,0.007341674292774856,4.5600000000000005
-0.011445746684631355,0.11025937191613605,9.913086493341012,-0.006406450828820723,-0.01676768217500225,-0.006606590874192917,4.57
-0.0025277811698664206,0.06727740073094746,9.71468246241359,0.004643516795296195,0.0016808261141473227,-0.0011787149265269693,4.58
-0.07681517198772896,-0.05127660468991884,9.817743577237353,-0.004532014799708035,0.007736675817315994,-0.011578474607648057,4.59
-0.014006082041382982,-0.0034588502649498007,9.953258013250986,-0.0026771025785150672,-0.005289424957296208,0.0007808818836484477,4.6000000000000005
0.022433996080983988,0.1287938289647995,9.701209423252601,0.004721164394361088,-0.012883780080144368,0.004746422932613663,4.61
0.059409904365736205,-0.051073136156446736,9.846303334797357,-0.004109691170977319,0.008656863825969753,-0.007265115436001556,4.62
-0.12519539348253889,-0.1409781813781648,9.856682616583727,0.007293986684828684,0.012693750985813584,0.00308824686004776,4.63
-0.1565557488053077,0.019142866672942408,9.880350193157218,0.006289714239481615,-0.0010017631630391045,0.006862954091552568,4.64
-0.009207715440248026,0.011678331786923807,9.906194738934413,0.01354041884842471,0.011670421898781846,0.018876332293648067,4.65
0.10619015909913923,0.06559151435605097,9.753118790772152,0.013419069212662598,0.0024155479786225824,-0.0025195182080372043,4.66
-0.0908583726081477,-0.07383589445645515,9.754675415058543,-0.000507412583421021,0.0010434602486531258,0.002843482703456154,4.67
0.032569468241904584,-0.03645829196104918,9.71924267390667,-0.010816713040475935,0.00591357068207434,-0.0024786231354063703,4.68
-0.16250036654779848,-0.02360498215292667,9.647608792464414,-0.002055229251438967,-0.00057285403612131,-0.0015042827287996023,4.69
-0.04569314425461012,0.026632709472001293,9.948201795120825,-0.00039068945042314854,-0.0184951551309077,0.012049740360469132,4.7
-0.0004942322080605047,-0.15103981301170047,10.025998347195708,-0.01734838505804981,-0.008529467277160412,-0.009123681878911237,4.71
-0.0010422382478609091,0.010231154706039823,9.74741852948978,-0.010163785663862923,-0.00935294974967073,0.0005598390880957443,4.72
-0.15246690378127226,0.12335417703692209,9.756092620097677,-0.0019209851331963598,0.00115431857467686,-0.015793059680740573,4.73
0.08745968364099514,-0.12159024462499524,9.792338368823806,0.006271039275954324,-0.008690212288625234,-0.007847880411066363,4.74
-0.16558868011722397,-0.05210361894251277,9.80766405565916,0.007671257968676323,0.003977998324060325,-0.0031933860650370446,4.75
-0.018620559618372026,0.06455074925545844,9.765963152391882,0.00788337157594529,-0.025512636158970394,0.010225222845084026,4.76
-0.08452155899422993,0.16332826645688006,9.884031687198485,-0.011112218652021116,0.007239191524808062,-0.004430070432909816,4.7700000000000005
0.04085172099457102,0.050299411655441564,10.081883565195254,-0.020937249379982027,0.0009122382694636218,-0.0067008664405825945,4.78
-0.01748535695759223,-0.030823130094834096,9.872159910204083,-0.0018783310519456602,0.0034011554805138873,-0.001091046168279426,4.79
-0.01866057318291636,-0.02960007795517446,9.842138901441121,0.005259415999855493,0.003257092775642817,0.0025110322252441535,4.8
-0.08380297129376102,0.022863276935904106,9.802460998243792,0.006962984863455486,0.0018421897118706702,0.008066948076705304,4.8100000000000005
-0.011995187817115624,-0.06526366581772908,9.776274947983989,0.00837581551291205,-0.002904004910109874,0.019274575296245825,4.82
0.10060853640217149,0.10599627267160812,9.785252330919201,0.012518251541885255,-0.009544597432910374,0.0028865339778713574,4.83
0.1201107806511218,-0.09226323592974081,9.698233270406787,-0.0012061842580886402,-0.011116414226038467,0.007708877863044658,4.84
-0.0544798631763241,-0.03291012150435912,9.9473504198499,-0.00951760626986086,0.009397393746296716,0.004589065455384868,4.8500000000000005
0.04307822095119288,0.11645499227406511,9.866214788674702,0.008461612266208191,0.007482150769361633,-0.003951190461693725,4.86
0.05519143611397079,-0.11249523856182356,9.658635620601196,0.004800684390160548,0.004046472688255717,-0.007544234135432203,4.87
-0.19122538526404553,-0.09429890988385,9.811738036787347,-0.0018444690330957682,0.0145656721422202,-0.02448166555916923,4.88
0.06823706636657846,-0.08664200177924936,9.92539219059514,0.005720177691479517,0.002739032031695464,-0.007192985541380872,4.89
-0.0713371061550506,-0.06106617918146873,9.853452342100574,0.001083936043202973,0.004259347121763267,-0.020556532820008223,4.9
-0.0952016863846263,0.17247874587636164,9.814969552350206,0.009505074209592896,-0.0015167589681386602,-0.008108675093997044,4.91
-0.0879778437917422,-0.18607138444907415,9.809115744882275,0.0071043543446289575,0.01035715694572853,0.00273589635922048,4.92
-0.11824669455738245,0.11091706818620584,9.870124807445563,0.0070788128459678135,-0.00044897713377971434,0.01605717480194886,4.93
0.003692772137397332,-0.1331001402696848,9.85106314831264,0.02195671882914513,0.007704490814758476,-0.010460348877209914,4.94
-0.08203774106641791,-0.0830147695192799,9.944698299455863,-0.0018722010694348988,-0.0019013848565138792,0.003255742036347661,4.95
-0.05132337679451027,0.13370529297526138,10.030950551025402,0.012147339057549446,0.004735619211265251,0.00854080773489902,4.96
-0.24488390830276147,0.013585941421869863,9.713605602777495,0.012675148638841336,-0.0041247434814799065,-0.01365264010960216,4.97
-0.11896455263514652,0.1717315566038865,9.938751290455032,0.006347077801144252,0.019174193974620037,-0.0018547378789648713,4.98
0.20450784991690127,-0.11177581933627888,9.686204745621865,0.006057588023374708,0.0034622804654950573,0.0003245936959058964,4.99
-0.06537461904977682,-0.048436313692377345,9.81416353948343,0.007126110698326466,-0.001423238769250915,-0.01289903434686957,5.0
0.04840477059271811,0.030253467450856743,9.782900647547132,0.0032394068660213994,0.015188677741490821,-0.004526241314637515,5.01
-0.05244239841298335,-0.1284378355451448,9.795465612411668,0.0004839049591640515,0.0061772884625183,0.0035824265785730303,5.0200000000000005
-0.1544755784479955,-0.19276707492626036,9.718459401871288,-0.003680199864299771,0.007693333028095142,0.0006200737573646679,5.03
0.033658567522863087,0.003867537699573792,9.92620410685349,0.015058634841998358,0.00847375409058749,0.017162606755492957,5.04
-0.11940667575819519,0.26173856610665397,9.926536558010952,-0.0017189571140006831,-0.006958129758467701,-0.013931140282970475,5.05
0.05122196765357795,0.08215640502984099,9.97453688543693,0.0029713966919713386,-0.014213284516565103,0.004919823933965362,5.0600000000000005
-0.0784379195949601,0.0074534148337484845,9.756586744752534,0.006966510177073405,0.00965417974994929,0.0018934788135839063,5.07
-0.08153306220071338,0.09136772596525791,9.772027666342483,0.019824284097627355,0.0008972795012195757,0.00968617254558111,5.08
0.05094723089021589,0.008343628041495922,9.892309593894536,0.006882734963770354,-0.006144888811956089,-0.012955323064462081,5.09
-0.018480920463504243,-0.023707852109656098,9.894039000360777,-0.014917366064833753,-0.007079222824503161,-0.0003625939746928015,5.1000000000000005
-0.25199496342752775,-0.034421735638638186,9.855273411443138,0.01589588344692277,-0.012781485334472376,-0.00418748917573347,5.11
0.03063572190335744,-0.13212814806568837,9.515146297191684,0.0022066170499068674,0.007229226992970186,-0.01444140405488542,5.12
0.1085511728803472,0.009665557114855396,9.965779979316984,0.011545343739767623,0.007344794801866908,-0.0021515529855859095,5.13
-0.11827660715774575,-0.020883163093740453,10.01786481356351,-0.010492917796703492,-0.021210934124536,0.001864758871502092,5.14
-0.03607392725160469,-0.07240585550646518,9.745936381892225,-0.004225856732965554,-0.020301998145923084,0.0011373734676473426,5.15
0.15870099673703963,0.1256262842392671,9.787856663572123,-0.015093559567571508,-0.0014662127822008925,0.01895540157039396,5.16
0.08107894193860105,0.13911269755175837,9.872996181545538,0.00986423429475529,-0.005954343365596584,0.011684203798699366,5.17
-0.06915945024673582,0.011453063911681036,9.966188438052383,0.005834464058664837,-0.004146730681696956,0.006138359324271454,5.18
0.01884591274615363,-0.08793629923788121,9.73872570238432,0.004966953784914027,-0.009527002261912037,0.005376436847619489,5.19
-0.04339328106591977,-0.09366875243624646,9.681366352975628,-0.016201626337107162,0.007030420741201893,0.00015359480523030798,5.2
0.027950513658102166,-0.015149072822878203,10.042944390438974,-0.0014061246996947155,0.011755318825477819,-0.010508952753226735,5.21
-0.1672954072774911,0.06342191136793725,9.619044690139043,-0.0006413494955769895,-0.005916243534538977,-0.01728132848295648,5.22
0.1000038817522152,-0.12114164787736502,9.610930691971227,-4.11133985476618e-05,0.00861102076130871,-0.001394651652339797,5.23
0.07503532165692343,0.0502896727446728,9.891435773473189,-0.006596164891301671,0.006671865880102326,-0.005198847081672175,5.24
-0.038040424456431604,0.06463692994103985,9.752789228593604,-0.011021315549671007,0.008870515934373626,0.005055463788170848,5.25
0.10125492685412696,-0.05842425504457004,9.93312251140145,0.0039100612014386985,-0.007514867528984896,0.007658363942060355,5.26
0.03026352484298596,-0.035355448490210065,9.937745585256799,-0.003637946090755632,-0.007443181470615657,0.0022091871705229625,5.2700000000000005
-0.003277729123236978,-0.12703347925250977,9.737040938643972,0.0011153776139804746,0.003519117740159679,0.013559543021065022,5.28
0.09166051492983224,0.15125594179332894,9.708551290198486,-0.018120128173663385,-0.005481290276794888,-0.008103227903549984,5.29
0.05411044777047565,0.10668635545448324,9.996666992025725,0.01284899153950717,0.005137844130686273,-0.001708165827826155,5.3
-0.1449866678962476,0.15007077589530476,9.700714106637834,0.011325615544597982,-0.012288188617145049,-0.006102468413317297,5.3100000000000005
-0.24141972251730417,0.029843729231207674,10.039467616046437,-0.02560141671986619,0.0018783887907630526,0.0031437537624279914,5.32
0.024599303654630936,0.07610586851013709,9.8095812392379,-0.004692090974618065,-0.016089657959656924,0.0017596274170883202,5.33
0.16174725620169633,-0.01230620310655186,9.713098184370462,0.004912036149354373,0.0020159536687584675,0.008902126980257916,5.34
0.1432933779066827,0.1823783549124493,9.900300236537081,0.02787651515445396,-0.009142086558541651,-0.01453470369738794,5.3500000000000005
0.12389148377744941,0.0917816029819179,9.71956891930561,0.0011295878323954918,-0.0013790171604329154,0.007984795043745125,5.36
0.024287345294498337,-0.1488390796249842,9.804857340862565,0.0008640327295173577,0.012856821040099149,0.004196647523463654,5.37
0.11905783142733886,0.12128260686025927,9.906327483893202,-0.004960942891434343,-0.0019624594220481297,0.012623180546882981,5.38
0.2010130068844822,-0.03295775410776322,9.778873214721324,-8.16411510353496e-05,-0.018010392461131636,-0.009152422987406124,5.39
-0.20838692698220132,-0.06780569504653554,9.689146230185916,0.0010025959667833856,0.00206668333711034,0.002912546779181741,5.4
0.07324266426292632,-0.06538930763801071,9.576153458925837,0.010763213739180457,-0.010495594519061935,-0.012538768551034545,5.41
0.03170643949072351,-0.021502552794097126,9.790790977034384,-0.005461023900911456,-0.008142940798482266,-0.004734564783461646,5.42
0.0008244239699921176,0.06846955598743401,9.966772088964367,-0.012275319766501949,0.0014188119783657709,-0.008796927967663865,5.43
0.06938813501450929,0.11845745880541553,9.890289219871578,0.01675343515316659,-0.01983005830342989,0.013820193639752733,5.44
-0.004632127451118923,-0.09733384776628021,9.89251994742309,-0.0008668236382145965,0.014163568078942397,0.0017580063653498486,5.45
-0.031044895374442157,0.11398375012152716,9.80481101882985,0.012737778783554338,-0.0035984947069984635,-0.003629835137769984,5.46
-0.056979947278954536,-0.19035075698663875,9.850925394667215,0.007623612937369315,0.010912622116801735,0.011277376714194196,5.47
0.08477955873119032,0.1439453278235604,9.839475966654177,0.009533171169549683,-0.013746877600173789,-0.0018703246974034133,5.48
0.07632251398689514,0.019828831717071366,9.991998445236204,0.009431249379366732,0.0016156810897213017,-0.003776979885893358,5.49
-0.11119903367153171,-0.06704901497235341,9.830496331469945,0.00026511862144274037,0.016789231863402955,-0.0024014096525633005,5.5
-0.16567868363665586,-0.09146330114303039,9.98073824155175,-0.0016352671631396734,-0.011254413072806614,-0.0079878335787092,5.51
0.024437976143766277,-0.061290757581691,9.969002559931331,0.00687069485402096,-0.0002063888147278687,-0.021478825964816393,5.5200000000000005
-0.1000186571681389,-0.0534760886575441,9.784942924781719,0.027686435350726037,-0.002919626782614339,0.013388986718415484,5.53
0.0012072034824976354,-0.05954345378258105,9.805529178039032,0.0004291312504494627,-0.015481082629098848,0.0014638760407414983,5.54
0.10995453535711251,-0.026878209338446868,9.798899496835153,0.016351701750695984,0.00030119025058970465,0.0195815453248231,5.55
0.060717613062912415,0.13374903719836814,9.777168849798997,0.008868325969586656,0.0002498958735471372,-0.005854647553976376,5.5600000000000005
0.1720744936274537,-0.2016643396861229,9.844197463553321,-0.0033640552294080584,-0.005907021210539569,-0.011100692643282523,5.57
-0.12753812761291664,-0.00750041278177906,9.684589706528556,-0.026325538154862393,0.009430916702882226,0.0056581117842136285,5.58
0.15964905505564558,-0.08774338916569849,9.78614772639038,-0.008360927943794068,0.01820636847933994,0.0023661888862208827,5.59
-0.10543311100871602,-0.018095132893773774,9.824300790288252,0.017400042434398105,-0.004342890311906155,-0.00034920937637008035,5.6000000000000005
-0.02308905141756527,0.03239651003735361,9.817446312154772,-0.007207039615040868,0.006839006288973312,-0.002470798498514976,5.61
0.013724565449199966,-0.011861860316975299,9.981306031947588,-0.019869258553066007,-0.005562808693803688,-0.003437248192342553,5.62
-0.07984952239789671,0.13437513256180697,9.697140001247716,0.012410826240024238,-0.005417685730080993,0.01681556586921697,5.63
-0.11583486433541607,-0.06542326447296133,9.821286709332895,0.013901129407129413,0.00334274669143772,0.009843558252059927,5.64
-0.09657034024112655,-0.12794277960491504,9.876313473997024,0.01964373494942351,-0.0016234742504199593,0.003200604522390066,5.65
0.13475553039920313,-0.035091330297708154,9.830347183076066,0.0078050576004865735,-0.003628724010551308,-0.0030941077242570138,5.66
-0.050122611445946874,-0.019753912598162313,9.75147607053727,0.024124092752823453,-0.004946194070988617,-0.01974829606310372,5.67
0.1365343164219269,0.05595363169890343,9.760118367895558,0.001182236374456735,-0.007016407304751669,0.006796316808445225,5.68
0.05626874483393734,-0.0007050131543039533,9.78339479765201,-0.0008286257806089617,-0.017343630437036645,0.013760314710255486,5.69
-0.11233887819719034,-0.032837864681709426,9.662634361915789,-0.004910749505347095,-0.01442828151761508,-0.010317032740969307,5.7
0.09064446020885887,0.13958455366474984,9.798974074461814,-0.010181145310547503,-0.003389229303045838,-0.0046236208033616655,5.71
0.12851203101790654,0.013984422735387204,10.068020405955178,-0.004733005874779824,0.0004726637410942637,0.017025837312787295,5.72
-0.1202459392557837,0.06824616413208534,9.737501605374064,0.011892303065923154,0.0012803559723454602,0.009493031861308327,5.73
-0.01623200295003823,-0.03135662206147842,9.740673651754097,0.004329720586077715,-0.002798042262926598,0.012917795869557241,5.74
0.23552236584240835,-0.04060374427800654,9.762689123331599,-0.0043091961601308916,-0.00583417326376019,-0.01311514255335623,5.75
0.19461059219790106,-0.05634597299342349,9.837057504102448,-0.0025987036244939673,0.005677376906916921,0.002174074583466708,5.76
0.06473797190476227,-0.09678319935448453,9.61995066187011,-0.005877420647353859,-0.018099403873924575,0.0032125446312823657,5.7700000000000005
0.1600594391956637,-0.026852952988608122,9.620529032660608,-0.0033473671715221077,0.0011203717440485276,-0.010158213373207518,5.78
-0.08312860709799165,0.05492477386711937,9.820438425777446,-0.00798992059375374,-0.006917005127213596,0.008602407766748272,5.79
0.00326387751542215,-0.17755321563988263,9.766370055141415,-0.014541163689392195,-0.003767670461331034,0.004319681491639059,5.8
-0.08372001707736021,-0.06770715677354232,9.664098680382208,-0.00702795707857439,-0.002426703878959518,-0.026492802971712776,5.8100000000000005
-0.19029007679680798,-0.023717742009351478,9.926286166607943,-0.01387328273323743,0.0013491685513601027,-0.0075905533489184895,5.82
-0.0013552707795621995,0.052590002417504694,9.808749046636745,0.011212849144037087,0.00023995141851866617,0.022549907725311194,5.83
0.17951674086506944,-0.003940115614516078,9.854688627393276,0.0013911452157048582,-0.013512180406799924,0.012890163946277448,5.84
0.06284339450726378,-0.12428874480493968,9.946051573963071,0.014818147934817085,-0.005434717647949532,0.006812191386268862,5.8500000000000005
-0.009220986865649676,-0.15345668448921745,9.594987459137851,-0.01097974976299682,0.007289853222539715,-0.010414597038973445,5.86
0.05928823846271121,0.0742259032175471,9.769233245947008,-0.010656645126369378,-0.0006293708474764734,-0.005811200335561567,5.87
0.05725226070729289,-0.21886631086328123,9.764198687012906,0.014487279981192001,0.026599233935090033,0.008315296514268248,5.88
0.03220624638754915,0.07994715468333541,10.0340170897925,0.006087795670958011,0.004409603985013112,0.0012455207885056195,5.89
-0.06841636767559033,-0.08000222450979036,9.720817306049597,-0.019652471738922345,-0.016142786469152005,0.0089089990087703,5.9
-0.023023766598672165,-0.03238317448418177,9.885908379701062,-0.012560948461451223,0.007098243492961465,-0.006351559581592891,5.91
0.051021629785451474,-0.10539308774906529,9.950719799562627,0.013999667139048638,0.0003968139243059489,-0.00015839929106907188,5.92
0.1312826747160604,-0.039321847118134905,9.843902231662868,-0.0044211253952565,-0.010534794637724658,0.00454568180110712,5.93
-0.09573301546836889,-0.0963890149588789,9.798294486501037,-0.0049004912498276385,0.006644191234563401,-0.006237818781522078,5.94
0.032365987210065505,0.09489361680059465,9.676602684966694,0.0019834183976065274,0.006391735249524673,0.007944091113154637,5.95
0.02252321552078468,-0.09606009296847051,9.926411141958233,-0.001778604330696605,-0.018970204914148043,0.00555280138486422,5.96
-0.13382499809003856,-0.06868758191201678,9.909476178690628,0.012650361739889513,-0.009891180264289746,0.0006901293040500779,5.97
-0.12040061668530865,-0.038263705108973985,9.919165318024238,-0.0043061478261141066,0.005886511938721765,0.00027165483820211137,5.98
0.025286464233520507,-0.05689219189926762,9.863306162422663,0.012945819443096779,0.005712503516749246,0.018307566725803383,5.99
0.03200484385274165,0.07453252901722417,9.700425580495502,0.010315386548851927,-0.01851010948038651,-0.001519268523715753,6.0
0.023697425025135038,0.11010750974503072,9.798028057432761,0.022212395580124486,-0.00439229945494144,0.019581796789909265,6.01
-0.06413400576834875,0.10142425063865057,9.815153287740555,-0.01412226955028993,-0.008915628893173001,0.005398740034125092,6.0200000000000005
0.0053336007736381535,-0.006763808564909295,9.641192079722636,0.005486841755237177,0.009744968970364124,0.009706393657129412,6.03
-0.1748463721298008,0.05697087813065469,9.843550136222426,-0.003435856069671486,0.01647911988135183,0.010810934919174049,6.04
-0.011487292120619795,0.04347179341875279,9.707354431226351,-0.005983593443461419,-0.00801470282627693,-0.006223567644400803,6.05
-0.08144299515133897,0.12673114107507497,9.838120424223792,0.0016968235201007013,-0.009453310459532922,-8.15329716627124e-05,6.0600000000000005
0.27049600196197293,0.004751552844997342,9.737863803312926,-0.024929509000877523,0.003119579904042683,-0.012242034024725035,6.07
0.14372360254827757,-0.048629866941364626,9.670212697739615,-0.010049159207995097,-0.020388214763973816,0.006274310365948114,6.08
0.07712962388884184,0.2310950594548151,9.82625098084093,0.003070727058354122,0.0031363664408267677,0.013322587205032018,6.09
-0.09781683393025109,0.1186709372779094,9.883866571177926,0.0030609429355049323,-0.002651841255960259,0.005646542316534843,6.1000000000000005
-0.029807903450085715,-0.0280647854235198,9.69755973929694,-0.0018936275092406045,0.0035742583414523246,0.018325290887165356,6.11
-0.1261462571405659,-0.06615337984096421,9.768559877588256,0.0034551071428918123,-0.005926900170466783,-0.010219403307030417,6.12
-0.13697694316282338,0.05143671073387989,9.69931150638408,-0.004429753655914703,-0.009486584185818457,-0.011163363847727632,6.13
0.012987780563256841,0.1509161410334097,9.927288739339826,0.016015102784662498,8.457432885603345e-05,-0.013632271466894857,6.140000000000001
-0.1788915227194734,0.04164753539641835,9.716976264890365,-0.006265187969713937,0.01301064023711218,-0.001013670156688151,6.15
0.13777395673546008,-0.058133231265770004,9.823266981624919,0.023657565857160796,0.0040860868372222395,0.02399635240670751,6.16
0.07021715367665415,0.23656225176717816,9.742469064316182,0.01826558928788957,-0.0025138074167667607,-0.0028470196140450016,6.17
-0.06749325801144031,-0.0543180569024788,9.642188626365396,0.009302294728934858,0.007227677572354611,0.007358395364756648,6.18
0.05120790182429868,0.07334010349984148,9.744492586961428,-0.007857759621333584,0.0064523036873661115,0.010906430124912365,6.19
-0.044115034275182846,-0.22058562909724239,9.86661997500253,-0.008298694952164364,-0.0023704255602294564,-0.00026765615192477697,6.2
0.1170385406203352,0.041498296988071226,9.657272694177914,0.014368069731199223,-0.0003774643562080805,-0.0009652751990945585,6.21
0.03203374873935039,-0.16722569862201858,9.77090442887888,-0.020424142498155506,-0.0019629007994461005,-0.002117073221304827,6.22
-0.0778961126646652,-0.09627758972385059,9.957710723222513,0.0026513801246544825,-0.006474712596109798,0.014176058921153185,6.23
0.09825813310800911,0.11219320357180483,9.785099704802645,0.007609168133376713,0.021069420714441553,-0.00960085178088876,6.24
-0.08744226229044302,0.1268013570788131,9.92095154989603,-0.029695054580119735,-0.020607810391372286,-0.0015219095511016698,6.25
-0.04711095685985227,0.1893188477982497,9.74182427883795,0.003240700883032947,-0.0006877254901529245,-0.010916296291748262,6.26
-0.07090369232094239,0.0015330669553231863,9.86136535672949,-0.0024401734401997013,-0.019126185381607624,-0.00856043079883379,6.2700000000000005
-0.1537799122292627,0.08402288237485162,9.740000632946744,-0.007128598503638006,-0.007232498516408899,0.008199468505757077,6.28
0.05203273450803856,0.043128544910089564,9.508104310438409,0.0047308325383767,-0.016870117988330737,-0.00011220596041307386,6.29
0.0034199413692624775,0.03338591718678127,9.731903396149052,0.0003858980027284429,0.0005225564194084562,0.0080000362959082,6.3
0.1421285164797121,-0.11326294716079173,9.803754700522624,-0.00038962467069527827,0.014461817267419115,0.01068635222247519,6.3100000000000005
-0.036976645997576905,-0.14808340743408036,9.577360901216448,0.0014870432451519946,0.003153680759330939,-0.0083351008562194,6.32
0.024683146994202126,0.18121775905915014,9.828543803196942,-0.00246451210868246,0.006986013983484244,0.00499982010939199,6.33
0.09358581979247285,-0.007427543283897925,9.734971878216813,0.0076925673503547174,-0.0033752930830358114,-0.006471035373931537,6.34
0.23044011108969806,0.08956689411741349,9.887217370259487,0.0117918484498097,-0.00225404270515477,-0.0036628184692662487,6.3500000000000005
0.0009953058883791488,-0.055849564342325554,9.763761662744132,0.004828879788611741,0.004243291191944679,0.018447689612572586,6.36
-0.13467244621609975,0.242284008609273,9.908866320865622,-0.01365671835132122,-0.0025027368391910797,-0.0029812934690915476,6.37
-0.04209204367791827,-0.030386826684787507,9.865515206143488,0.008695998686140223,-0.009781181313783109,-0.002828398045254433,6.38
0.008285494003644664,0.020663802685369794,9.964100555630331,0.01356349426873929,0.01808308496967394,0.013828334102897542,6.390000000000001
-0.04917825900941756,-0.0005872003129240467,9.967555187375103,-0.004441014204061919,0.011220455114441566,-0.007724714053728165,6.4
0.17783850642674182,-0.08878070509790777,9.929625996491156,-0.002827981347490167,-0.006052289415408512,-0.0018696801430713214,6.41
0.020923685132589617,0.029611410405561422,9.72992025714646,0.011790917971357048,-0.013942608507589216,0.02274626725646654,6.42
-0.07507411972226723,0.06047033348813046,9.752624891246754,0.0047988857522333,0.010585370589695546,-0.0108834397973129,6.43
-0.13097928701009875,-0.11234655363324297,9.816937129088155,-0.011806699841145263,-0.016665326394866804,0.01385856984933137,6.44
0.012512518795855299,-0.07461479240992293,9.795732418815966,-0.01699565858632556,-0.012441262038199473,-0.006041399443192875,6.45
-0.06394455361713668,0.004186715433163213,9.856020892924398,-0.0016328872688326807,-0.004042917176021689,-0.0001883531511803394,6.46
0.019285676638337315,0.12243816180394772,9.805693944307203,0.0029974929914100873,0.0033999389704046984,0.0003577689011675759,6.47
-0.0320766753460274,0.05144946594203803,9.648206518399498,-0.001203573878366451,0.011069915188406913,-0.005790989044729931,6.48
0.10187923930506189,0.008960780090567335,9.845623853967115,-0.004241144760862013,0.005059905943673582,0.004062530577908809,6.49
0.0043952900683136105,0.054780096086063594,9.821554631420069,-0.008972530990878323,0.005999483304579064,-0.0030406477434023983,6.5
0.11750309726766661,-0.00795180812192799,9.561061255827948,-0.008808355270235067,-0.003309705544455718,0.012295177143096794,6.51
0.01958370549642061,-0.09278223599880615,9.532233979462834,0.0019011975706812914,0.007143222937522218,-0.0088310948553414,6.5200000000000005
-0.0795032764722741,0.020260592461928094,9.80357992993686,0.003157362070150881,-0.021572474661351763,0.006414691661948643,6.53
-0.1576517184535447,-0.04301744784874639,9.776002088014595,-0.018221370276198676,0.010677775675941976,-0.005383338180105575,6.54
-0.06633747115990636,-0.17360449101065462,9.736260716353936,0.014139751018572504,0.008894030230355288,-0.004555557017172638,6.55
0.11236024974301971,0.16520348047024158,9.875899596420167,-8.301208793810775e-05,0.015533026139684583,0.02523568369062739,6.5600000000000005
0.08158555179101182,-0.07394015207819715,9.822288517030229,-0.007650800311927572,-0.00510099943520552,0.004684165555643427,6.57
0.0628533146823064,-0.0051311253761509076,9.789952150022922,0.01629524317034806,0.00010033138804421265,0.017979581791229028,6.58
0.04508301444476653,-0.008762265381230507,9.809239672599295,-0.00019114817649822734,0.001021218586970326,-0.006412868793274201,6.59
0.1007978054049794,-0.04302474595885264,9.946283302676033,-0.019790820538655992,0.0011273910862911944,0.011623622730929517,6.6000000000000005
-0.07492880649259191,0.12785063051433784,9.772569555014668,0.008124401430520444,0.020455869760875992,-0.007215884240688053,6.61
-0.10561391022072744,-0.17564621841790867,9.719009610759604,0.020787779533727166,-0.0073704685689784276,-0.005078503508799882,6.62
0.09579000276462507,-0.021706428897437638,9.976790861118477,-0.002423873775896843,0.00850658513263618,0.0005772838873248576,6.63
0.152438394882832,-0.14913869351027892,9.687682834265864,0.008236866162556245,0.0011319446790776842,0.005253268127662785,6.640000000000001
-0.18678593107400526,-0.046774620064474505,9.853108468994169,0.01593124745085039,0.002395948963459926,0.007752641083339654,6.65
0.03255819455772474,0.12219013850712389,9.959171810093174,-0.020126165900138597,0.013358590504877602,-0.0038730303043054645,6.66
0.024874122830592326,-0.019262105260278786,9.851518503599536,-0.019849842846142596,-0.021851820700127703,0.00741014139906492,6.67
-0.22043330502962438,0.05480617838995891,9.975487967496647,0.007315350065809228,0.016864591625336076,-0.0048782683272155115,6.68
-0.10858206626476077,-0.025348601359628943,9.926008871428477,0.011570474463555944,-0.0035783448384757188,-0.007746302321925325,6.69
-0.08249387179919422,0.2678280488900923,9.860857116245894,0.0037526849253934932,0.00783774037010136,-0.008906458862772068,6.7
0.14926792200447067,0.12486918729473358,9.861189555029227,-0.019289336659097413,-0.013702856028881057,0.001506185000151579,6.71
0.001954646036983262,-0.13370397020942473,9.86147750426779,0.00487590483173865,0.014462544052659903,-0.007484586305035237,6.72
0.05045588959505487,0.10033616789409072,9.953176741849745,0.01620457597789477,-0.005328733046122846,-0.021008618565096088,6.73
0.01256675175969612,0.024231186141343328,9.858286935803811,0.02012124511181422,0.007348957680236633,0.007285913345293752,6.74
0.04284404681035423,0.040303012810736866,9.894271923268967,-0.006845209141092104,-0.003380644325147274,0.0009560360823926653,6.75
-0.01111841881983789,-0.10393162370967367,9.82330738327348,0.016959916822958162,-0.0044482965508035035,0.0032015394504709056,6.76
0.02005151616729773,-0.0847476022003106,9.921819306865414,0.007687983839553809,-0.0020568486732719365,-0.0021761452308397106,6.7700000000000005
-0.01686969424389157,0.02008470808358581,9.652276518022584,-0.040142684942979005,0.007697280425536887,-0.009581064650449486,6.78
0.0580933125730591,0.029661158238327257,9.797536948112576,-4.337013484486744e-05,-0.022606048227862056,0.006459431961560106,6.79
-0.001675504423336938,-0.07166673696202784,9.879391280963246,-0.014730353396354784,-0.003307385908037066,-0.008076313251684595,6.8
-0.04642616248729336,-0.10538243295369797,9.793737934545746,-0.012966391805192266,0.0030020817199498747,0.007699971627337927,6.8100000000000005
0.018721845368224087,-0.005368608608572527,9.637702454700586,0.005370812150063377,0.012904024164203911,0.004718848336402536,6.82
-0.14835463863372544,-0.09282817086919501,9.709297227735435,-0.001486633392802129,-0.0011260656540080392,0.003509396698102442,6.83
-0.010398919949105271,-0.03743256203425198,9.672928882694062,-0.00030603310893883564,0.0046980910615846095,-0.009291368302907298,6.84
-0.018918217767312052,0.05125720672592826,9.86091453635916,0.007663409154759884,0.005363173376534211,0.0076793362701451096,6.8500000000000005
-0.15964532922261465,0.015235725858506709,9.808694622251709,-0.016667545810486867,0.006608355487292806,0.008799098207407468,6.86
-0.01435139130692475,0.02512494198319301,9.866377723055082,0.02517347693161,0.00947745761526605,-0.0026353898508018497,6.87
0.02113511038356936,-0.09547203249114783,9.776867318555208,-0.0026970165486737865,0.004981936761877843,-0.010022061500309236,6.88
0.06048312819277413,-0.0637498591677568,9.776464750858135,0.00887773853651055,0.00189981684481596,0.0010121898567826673,6.890000000000001
0.14599065248060125,0.07474866974651787,9.70010025076548,-0.017989950848690796,-0.0016732341410450216,-0.003967507288963446,6.9
0.016700262765604674,-0.21828988870677166,9.814091190506462,0.00764198058998001,0.010390240466144071,-0.0038211097132038498,6.91
0.07088677503619403,0.0010484694734743496,9.91329314889954,0.002803266552517978,0.0090702673580763,-0.017643242993803845,6.92
-0.11503181010624418,0.019470633902505974,9.966594182845474,0.01468231749151283,-0.003291970408163298,-0.011582819386539014,6.93
-0.06465060831171775,0.01385800712476116,9.522260076405724,-0.016976657805195465,-0.01108022676944968,0.0037506005192801295,6.94
0.028281031561511738,-0.06991992605531928,9.68842599000487,0.008588087815415603,0.008006202301271968,-0.0014634197024224992,6.95
-0.12654611574434715,-0.07833187313603063,9.77655958866085,0.0005498042695912251,0.007929806386257477,0.008147596773836162,6.96
-0.06242737628743289,-0.01911061667851299,9.919232464593037,-0.012758922194887891,0.00875024521194188,-0.0003125308600934123,6.97
-0.07368803626975277,-0.019073022730547753,9.77856379913208,-0.006175539251771128,-0.004491185284297487,0.006925893011279972,6.98
-0.0264370356548113,-0.025357243658771317,9.823889832555121,0.0008830845497578826,0.004453494907119175,0.006506472265112799,6.99
0.1099494363619264,0.052756392150011766,9.60631410536877,-0.016163032359297835,-0.010517406296979113,0.008335819074324964,7.0
-0.03757245013784654,0.10329459935017621,9.867286157369612,0.00736897927818106,-0.006333419955607963,-0.007902927131591724,7.01
0.013792360660465791,-0.29215344887176026,9.801386860341744,0.019315345070529944,0.00033798062458808295,0.0072155569116611,7.0200000000000005
-0.007667181417680426,0.10816482215448149,9.932877457598732,0.014081114053832236,0.01350605798848487,0.005227610231072536,7.03
0.1450287506297623,0.049880536661140895,9.894549731806107,0.0007585656001287649,0.0017339748219986238,0.001587544801422511,7.04
-0.03838966755400716,-0.11231682582825342,9.757620097712042,0.0001511534367249883,3.3993703930732414e-05,0.0017592291855904724,7.05
-0.21088418352878815,0.04196796802052544,9.719041652834667,-0.00015794169281395625,0.00029605376022511545,0.006012812698738461,7.0600000000000005
-0.0939193152901742,0.08743090385763416,9.498509212894355,-0.0033222748963499995,-0.007365986356979872,0.015953928157143152,7.07
0.0152970846210427,0.18428504843610377,10.063645217628613,-0.005596657079051872,0.011549642679428878,0.0018787268251650943,7.08
0.0767399960806086,-0.0007848346957094164,9.766428410558968,-0.0015093705958525237,-0.003596331918870789,0.007645138010909607,7.09
-0.1755388505359714,0.07405524546034822,10.003370222905536,0.013916001861026457,0.0035572520133711305,0.0011012596337102547,7.1000000000000005
-0.21802216213473924,-0.011163328956329648,9.710961061404685,-0.007737588750829282,0.008717310217053303,0.008049324443960958,7.11
0.053722078732017044,0.02227725314822626,9.785839259257008,0.02072627038414697,-0.021933016933337296,-0.0018067650574279492,7.12
0.03613899505610326,0.029456070104426108,9.9035499744395,-0.004303130898531236,0.006341840810900565,-0.01415172178893515,7.13
0.10699567405832358,-0.052669308182035704,9.838567032153904,0.00372822027970268,0.013719661918073053,-0.0010173381502784765,7.140000000000001
-0.1279783203599511,0.03700618293887106,9.628205116611056,-0.014784162846616204,0.006230300821279643,0.001035643132853665,7.15
-0.07151832413487326,0.06134022985535856,9.838402181126959,0.0004893696163593931,-0.01748136625084748,0.021259332901971923,7.16
0.06860515965460563,0.11956091091100336,9.836903470528007,0.012087584896214199,0.009241590163893561,0.005584507840817011,7.17
0.03899208254851677,0.09375161799321519,9.861621329663823,-0.009641208307006216,0.004579912429251458,-0.027404446986012857,7.18
0.10236199254083925,-0.044117006741150974,9.927952624160623,0.0192953197690649,-0.010959459587704126,0.010061171979681404,7.19
-0.2273646043241469,-0.02183844324360588,9.671310417523683,-0.004532719245133991,-0.011327750008350892,-0.001903509229735059,7.2
-0.013345151343119172,-0.14812032794135965,9.937419209123625,0.0010800744318776715,0.005112350239090727,0.006929568112582051,7.21
-0.01568738804116507,0.08520064753274266,9.79402364492334,-0.00651276884540554,-0.0033785047015675545,-0.0012420496122830464,7.22
0.024576414135564873,0.06953767048826624,9.928393474319478,0.013557910311929704,0.009872968525709213,0.012121579911341803,7.23
-0.06847578614711307,0.009577566637533728,9.905798361415718,0.013046741517219825,0.005702318401467961,0.0039189113224765235,7.24
-0.029799276560271138,-0.0038494817186420166,10.040433522296814,0.0003945238353505122,-0.021941512426547242,0.00011133883868606932,7.25
-0.057844608909612176,-0.14029525688844335,9.834126550375508,-0.0066855643052747575,-0.005634477665782088,0.0078658424132899,7.26
0.023644302589440697,0.1232891235045634,9.839717974051103,0.003743721509730584,0.000440566902903207,0.012378767818900911,7.2700000000000005
-0.02564708975560579,-0.18958580819710275,9.641372330509778,-0.0020690433283314692,-0.012478512788028489,0.004800700607455727,7.28
-0.03167138732498744,-0.02426371295693724,9.746551965631449,0.011336707634131714,0.001008454675293017,0.01081592720043233,7.29
-0.044405193336107256,-0.1281863869240266,9.776303411503994,-0.001150111908419955,-0.00185810940135946,-0.009958510068801036,7.3
-0.06451574572860994,-0.10469003775925308,9.77514658651406,-0.0033900321929709086,0.0006951538602343458,-0.01863818589066769,7.3100000000000005
-0.2629282786259975,0.005695890021049004,9.781603490792556,-0.0029293914324685223,-0.013632851795001689,0.008334036136885457,7.32
0.1468772470348014,-0.1659164036450366,9.827807548389949,0.016461052870020372,0.012288175761581399,0.00010188286610391237,7.33
0.15570401340436782,0.09775734093827025,9.791797276348364,-0.0045723110372677955,-0.0010664288286029006,0.01861006610026676,7.34
-0.10461958784058929,-0.014120495841303846,9.78455359543244,-0.004418547306484321,-0.017673439951256534,0.003628877166584268,7.3500000000000005
0.08663835691903521,-0.050391889019323004,9.643463173034998,0.0037795128668952184,0.014561799601197798,0.015080291992785273,7.36
0.060812022439605366,0.006763144855469064,9.750147966043803,-0.0174703717766922,-0.00966454619169096,0.005647922829972963,7.37
-0.005367810651627777,-0.04404039272596608,9.890231558844128,-0.012392525564770045,0.005089875634990053,-0.015739515786928397,7.38
-0.23297458658517392,-0.20066270057441052,9.717009977035755,0.003981926975076188,0.0037226375987823874,-0.006680195453571709,7.390000000000001
0.08636331954636182,-0.033468904080272636,9.81240589912038,-0.004332382696312116,-0.005291578820399683,0.019058374140406904,7.4
0.10863169091923196,0.1444767954864541,9.963173705564621,-0.00039847498298962894,0.014661915984668048,0.004194214712905843,7.41
-0.06307831984057803,-0.19513942067211554,9.738874675454642,-0.013043252457377806,0.011782177115014,0.003062227761341331,7.42
0.036229770789146624,0.15303690219019342,9.755199031916783,0.0030456906210754517,0.015797274327243233,-0.01560663098267434,7.43
0.13858988078944465,0.19553592529354347,9.876698239697033,-0.0024030546754418795,-0.008029389789020293,0.0055760330949596515,7.44
-0.12205292516110536,0.07203240383902679,9.904249259368086,-0.0013207921888378502,-0.007168064595536328,0.006473302028819297,7.45
-0.07026716135042421,-0.0461373771547358,10.04960773835177,0.00900621658885045,0.021829020823236973,0.0005482759719381223,7.46
-0.0625756393701221,-0.056716685228387936,9.931692848703896,-0.0016786752504317198,-0.00018824308926680057,-0.01377359457265054,7.47
-0.29835976206740084,-0.10184524102398723,9.770693852799722,0.011602963624972974,-0.007409760856278841,-0.0016064754894759316,7.48
-0.04059182024272409,0.30054573368715454,9.989599964837856,0.0032587948047722794,-0.003186028208749588,0.0074123450914476835,7.49
-0.04439758178208664,0.042985082658918504,9.755378154737691,-0.01136217461594202,-0.00492736740716012,0.008794780076339336,7.5
0.016052560555927367,0.01491694839829439,9.682972053848887,0.010175701961748565,0.00277019150122756,0.00387978713453285,7.51
-0.13294751068165675,-0.017061053300435867,9.803139467848975,0.017084060788499212,0.0023755453133321998,0.003115820825917004,7.5200000000000005
-0.07986420289036911,0.1602557045046944,9.795582244264143,-0.0024983238166891744,-0.002817796502871604,-0.0011293828655710002,7.53
0.0507507808590837,-0.027089080063970622,9.814352422622397,-0.0029624634873880533,0.0034927565936472395,0.0026019183208673986,7.54
0.10328774644185368,-0.1418863505449936,9.815917098856275,0.002904491894328326,-0.008032230624712741,-0.0037409299812992507,7.55
0.08029588050855646,-0.05327709274862973,9.662846322345944,0.012866011973990432,0.003797614839396158,-0.006098267629597983,7.5600000000000005
0.20698738876503875,0.004395492006381842,9.87850863740277,-0.012383702093815854,0.001984330824097381,0.010249001889772125,7.57
-0.009645975470001525,-0.22723747299850328,9.7521344465678,-0.004822212042470221,-0.006535100985047825,-0.0091521046436228,7.58
-0.048898325888947484,0.03817020160017892,9.795933798763645,0.01436679111711729,0.012307758745025803,0.007907145304367601,7.59
0.06755115743205835,0.0004866505026025335,9.756342266458987,-0.009281621473028882,-0.0004522305379081039,-0.001776762893415317,7.6000000000000005
-0.006604846193619714,-0.06680762592054916,9.675663964102942,-0.0030098941026020583,0.013450026857260608,0.012910521674047833,7.61
-0.16017994808705047,-0.01981369043516075,9.887044816338786,0.021776600302627562,0.006251129602984924,-0.0011756291242132316,7.62
0.02933170075105066,0.06759997131200908,9.931438625188965,-0.0015006296972183842,0.012692750691714607,0.010888534147571394,7.63
0.03608179920462808,-0.08752958915510918,9.744879276972776,0.010846458204349487,-0.021770562907644564,-0.011789398458258056,7.640000000000001
0.12487895917457231,-0.09452568200932648,9.80322865475111,-0.005709964905422546,-0.005265557323707415,0.005293261139006879,7.65
0.04789431058059125,-0.07271588484694207,9.72826367736133,-0.0005230557850496742,0.00238326946000807,-0.006479710521107756,7.66
0.02030874802268611,0.03335761594215886,9.90107308857564,-0.007539745230442979,0.012597414139247115,0.00429595674481023,7.67
0.14799200664611292,0.038458807830984314,9.812508114282553,-0.002365042133825874,0.01217799128332208,-0.0013033648556168675,7.68
-0.011628864352773507,-0.031354056072402145,10.00713838372061,0.004052839503239184,-0.002282849690889533,-0.012548714905564407,7.69
0.056750532048767156,0.12753166579217567,9.848466123377376,-0.028082367296045515,-0.011111932968832698,-0.023586828588549828,7.7
-0.02801795023748001,-0.11122259191938129,9.921335606596717,0.0063528918431960965,0.00012224611398903683,-0.020980947766823802,7.71
-0.05874570476315066,0.013175162209960126,9.774664391061002,0.009526147501479478,0.000823301428767307,-0.0066279292374790836,7.72
0.10478828885087765,-0.06301204085756375,9.753081451727649,0.023050491020797637,0.009788830895581406,-0.0033295535543692045,7.73
-0.01723196123563471,-0.030188468454504677,9.876971015488875,0.003246567132425489,-0.005104441057247931,-0.009571448987302165,7.74
-0.06745571278687129,0.09387582751051587,9.693226456424492,-0.002890472008698195,0.01320939155436252,0.0005148504276244255,7.75
0.17618885381470958,0.12350106892804324,9.73296406303068,0.0032306439472774306,-0.008314797635380887,0.003165419377319276,7.76
0.06089358637977296,-0.03047259518843977,9.644491801472645,-0.0051115562618089215,0.01186348227152745,0.0012019941299345489,7.7700000000000005
-0.09440861735756517,-0.014694949843719938,9.871532145261968,-0.005975728318428278,0.002840744373895188,-0.00010093119971361756,7.78
0.13591521607756055,-0.01122893201049966,9.859670245057645,-0.004329137203635386,0.007789717525025134,0.008356238136912254,7.79
-0.04848325425109944,0.08724886380378657,9.677124120539196,-0.01511166087345386,0.004205042470645121,-0.0008854691097018955,7.8
0.09913810831410587,-0.12293171887897758,9.843490453678456,-0.010580402818410642,0.014228131975341854,0.011541895263293016,7.8100000000000005
0.12976518958757882,-0.1183855385986137,9.87438480252934,-0.00030014859888340535,0.001120514231612798,-0.005273210445830926,7.82
0.26059737684476725,0.10260641651138397,9.754856733199498,0.017863627959289762,0.009337172864940863,0.005268586255860639,7.83
0.035412718873431746,-0.016113970734303852,9.921729669548881,-0.015114012896594886,0.008296140996944259,-0.020846436375842534,7.84
-0.00045969009641065985,-0.062412474715748914,9.826889508022155,0.015279782552638206,0.01541299659447161,-0.02606760459811494,7.8500000000000005
0.05811970809780164,-0.04293198210730394,9.895677028462805,0.0029208492501009414,-0.007630877292310318,-0.02074014212718471,7.86
-0.015483782299796123,-0.08025503795728145,9.921993142357424,-0.0028937715801482513,0.012047961108964087,0.007037308548870702,7.87
0.03336878421389257,-0.12115086853208479,9.764680054181987,0.011468667407031046,0.0034812212720061286,0.004338072731134561,7.88
-0.02849226292681825,-0.1840313580610622,9.758611220266094,-0.019107038247827893,0.0025683942061569326,-0.008530777751816659,7.890000000000001
0.06629987191136448,0.04790034627549595,9.777541741805795,-0.00889088597129583,-0.007423684809898515,0.002544175555440634,7.9
0.07668945524561037,0.08131006477895447,9.641160349516102,0.005288318432018547,0.007328457453010202,0.013281409919235786,7.91
-0.05941030835542758,0.0818509309435038,9.902260546230519,0.0013094715725275837,0.017259076926597332,0.006484861320105347,7.92
0.05612751018631529,-0.13410530368773307,9.88341609264972,-0.011588376841054973,-0.007603483832901988,0.005974618840019328,7.930000000000001
0.09900900140314306,0.024796459878471528,9.872011486361458,0.0005532678005155583,0.0018258203157111433,-0.0025661160751826117,7.94
-0.227663448068257,0.08813558379713199,9.687673245804643,-0.018492138741366,-0.012683887460160916,-0.00100319571532743,7.95
-0.05188430561434193,-0.1928976762770592,9.772344108591772,-0.002690447500509427,0.010426810922930319,-0.0015451964978506344,7.96
-0.067039788782403,0.10847520300532841,9.671807649773115,-0.00346194102358778,0.016488054338542616,0.010788561351226005,7.97
-0.22716015427765948,0.08287952214769453,9.7551576120527,0.004151741999192741,0.011892365057106396,-0.006818790033644323,7.98
-0.022699532567677497,-0.012794021501936634,9.904697130504989,0.0098879250798882,0.013609842457351265,0.007269175790512298,7.99
-0.12825958331451523,-0.03684817642227499,9.83329623558312,0.0028108732130352554,-0.006064411850529448,0.011681633138234764,8.0
-0.2224878899368028,0.01828956019369175,9.75192309153094,0.0037802191701609123,-0.0004605665808414323,-0.0028540214370281597,8.01
0.1743931903989872,-0.027930073479115733,9.779409669761485,-0.010818839580453448,-0.016307790747413037,-0.014199079921699593,8.02
-0.27959082474972935,0.02251646165015245,9.789241152688746,0.008276913359806763,-0.010327393216290897,0.00708288249608989,8.03
0.029884355234004956,0.11184523803088652,9.748618541684476,0.012204217475328887,-0.006087305875821101,0.001218362812572651,8.040000000000001
-0.0012160680584379323,0.1366027801332218,9.902969251396165,-0.02714976598260621,0.0019256417091533281,-0.005128259874456788,8.05
-0.02720278733781957,-0.07397534058452211,9.761409324691122,0.003966125871374501,0.001421611136600455,-0.0032866267516460067,8.06
0.05488083031499735,-0.04733413591580997,9.776920569626016,-0.002645853346228509,0.00859937635469649,0.023158346919478205,8.07
-0.13752111109614515,0.11247007534682418,9.679914859288102,-0.015984093715181745,-0.006734234464967581,-0.0017551558686441095,8.08
0.003968112370384971,-0.04755833064542232,9.725378034526782,-0.010219106337982661,-0.01199682374478158,0.0006049098429715074,8.09
-0.2322268321954365,0.04228837150244805,9.967545702292233,0.011493381165935006,-0.011098609422629926,-0.004409306789558733,8.1
0.15151566851416917,-0.06127659695695965,9.892942141023227,-0.0032510786595671775,0.000527955742830915,-0.004100324895696233,8.11
-0.013976332823668789,-0.08887483381420758,9.653857164974257,-0.004204575234840696,-0.0011763766856416878,0.018110434173661715,8.120000000000001
0.0621941620841482,0.1398956870001666,9.615676737199209,-0.01071309884393248,0.014204991560965231,0.0005624256067503499,8.13
0.06357215226573384,0.05316470494396136,9.798813284055603,0.010182371046690458,-1.1321196376570457e-05,0.009418523115112676,8.14
0.08997627399952655,-0.16209054388509028,9.795742054810304,0.007060783959144046,0.012215781974162773,0.0009334310747878316,8.15
0.1150686579867618,-0.06604340478948693,9.708952729277415,-0.01437734472341403,0.010095563407160868,-0.011948407413178293,8.16
0.14746281660475682,-0.031862796853886745,9.82866130940286,0.004253891219635118,-0.006294217469328185,-0.005316187635355688,8.17
-0.10141647764838552,-0.12195322262307284,10.008918735764354,0.010800977323119187,-0.0033993928839523564,-0.0027427935735908995,8.18
-0.017840893645476624,0.04830205259339585,9.866741370787654,-0.011513288988781567,-0.0014789141911391824,-0.0038709132718606153,8.19
0.03406839579856054,0.09665834638582269,9.750099206904276,0.003659418865906296,0.007719927340931027,0.008038629384305173,8.2
0.23867670641228803,0.05654845632037323,9.938280858647488,-0.009744577320565785,-0.00021912029065599084,0.004803801408369888,8.21
-0.03971930833817827,0.083913799414004,9.805588700488908,-0.004510946884381014,0.0013101046309225252,0.0056101323877584056,8.22
0.07869437639658153,0.10581184677929548,9.860093711583312,-0.0021845320556026617,0.010012634681009743,0.010796675861271192,8.23
-0.11783432894596926,-0.027865126494085735,9.831747229171631,-0.02041146664094085,0.016468161336921847,0.0029763489800226145,8.24
0.07665449092118336,-0.07427853232004698,9.683012416969234,0.0028540980561764314,0.009932424361795705,-0.01081082188209405,8.25
0.01815703737486733,-0.02162252738709193,9.859475728747388,-0.0031434589848835072,-0.005559698947222536,0.006640558593839559,8.26
-0.2073826898287585,-0.11828252033165823,9.672804018601862,-0.0012734303850925027,0.005479542848202911,0.007295576907352245,8.27
-0.1238290298595391,0.05500301673870483,9.778690395070038,0.008039803034603414,0.0026678088324269774,-0.009779988335359303,8.28
0.06462546025066133,0.059838983498282684,9.942427963808127,0.010699683423105247,0.0006379025728212188,-0.01441006243085669,8.290000000000001
0.05272696106504115,-0.0030013768551175254,9.872636551912885,-0.005132622647406313,-0.007372343000326214,-0.009944230616487857,8.3
0.010346839013173384,0.012084618878559751,9.858857136013915,0.008422882631112554,-0.01832536231586055,0.012915492604037125,8.31
0.0009727534607331034,0.07029288323820623,9.651144707568733,0.005692815514559916,0.013742103775691225,-0.0016923240075482158,8.32
-0.14350700041394135,0.13808276612044887,9.924190282416266,0.0023916485615291514,-0.0027065619778652694,-0.003600296316968528,8.33
0.03841008063293791,0.20573921510486903,9.855121088545507,-0.00562666080019795,0.013388684670789488,0.0021894544592228945,8.34
-0.09844156074405583,0.021625139109571905,9.760850046508128,0.02605081452032447,-0.009226245249373217,-0.00214225296141893,8.35
-0.14097761940060266,0.09445107427546522,9.990597443451549,-0.0066334458973329605,-0.0016258301873136847,0.00990771864386146,8.36
0.0330839028116924,0.12488505216467588,9.743712988247825,-0.008335539338245405,-0.0006616404598848885,-0.008787956663931928,8.370000000000001
-0.036994121072925226,-0.04530818423383228,9.90180156836913,0.0006162969092194897,0.02010014597688397,-0.014687354991883807,8.38
0.0702124140169247,0.07616271920252161,9.85464891845657,0.007532942355453218,0.0015860763112040262,-0.009260120547280482,8.39
0.02522240009689482,-0.0689488977441238,9.977404652318604,0.0018898343490241578,0.0013673123593115034,-0.005423111270908971,8.4
0.0524984127459212,0.058226375763510474,9.856535518476102,-0.021718303780121885,0.008985721814086854,0.007306240620328869,8.41
0.04419755811993464,0.08881328996341292,9.949080080342911,0.009709684923251338,-0.02690852921729718,0.006955483151797158,8.42
0.20279722455490146,-0.09401855477505472,9.817745571755633,-0.0054074205611253255,0.010139602931861908,-0.004422371816127388,8.43
-0.12048026459458146,0.1315100907435604,9.798664819476654,0.004261260737207088,0.006570715552234147,-0.0027439207688329985,8.44
0.024199377195455035,-0.011827491484223431,9.801706860547329,-0.00010792823741430944,0.015733113732043648,0.01704085957825398,8.45
-0.10633890717228899,-0.20758198432476105,9.879978989575351,-0.012395616979709397,-0.0029236842681962232,0.0025609598619686647,8.46
-0.09178400486689965,-0.19815433303999022,9.834657926804844,0.013114477972279711,0.003980661159152799,-0.006133960755630111,8.47
0.06274934418285577,0.15895700712348138,9.719182767681817,0.006849504319927069,-0.008873741605162395,0.0045127459891078185,8.48
0.04490161502982437,-0.09053294006694225,10.078497506910935,0.002550793768724813,-0.0009192271774129152,-0.001486354301576188,8.49
0.00908095322440891,0.1585561382687767,9.698973466310168,-0.00642831538278509,-0.009483468847280373,0.009544724529796204,8.5
0.06048832316438063,-0.10226917118341368,9.93057208377782,0.02054427941152327,0.02205575054619143,-0.0024249783315859804,8.51
-0.18110497371976228,0.05900244452675316,9.872119207095182,-0.015271828960733801,0.006062819972307415,0.021687343618248502,8.52
-0.16487744903959586,0.03322817415594873,9.807455154756168,-0.00947222705746332,0.00044646681938544737,0.009989222455287463,8.53
0.04136783962199218,0.10486336279517394,9.71121938743261,0.009478405624177873,-0.003910371041698464,0.007226700263482114,8.540000000000001
0.10059753173440389,-0.20457237232075604,9.797233171040087,0.012829317995714797,-0.006485225000552835,0.00750381356436439,8.55
0.07964827367109295,-0.046921408720612616,9.754001298007932,0.00017189197745501382,0.002831096921675099,0.007895847072092857,8.56
-0.17187695900553956,-0.0760753675166596,9.837912638932144,-0.0049311270606917455,0.0053057528397236495,0.02551501786143873,8.57
0.11979235131906218,-0.08478026130529073,9.868960057059398,-0.009413901528664437,0.01272245953870934,0.012432782363423081,8.58
-0.021671861402940515,-0.0822483146994147,9.860512376968437,0.0033191229283395713,0.0035353375477193485,0.019705906584989448,8.59
-0.12406457455982677,0.0663493560390033,9.824036544383556,-0.020259008844633934,0.006915869062858736,0.002620047980988977,8.6
-0.025818617716232353,-0.12875857982647607,9.898085422461378,-0.017174743557085766,0.017233761332442026,-0.005294983657453315,8.61
0.03194654933020257,-0.10776677342964221,9.861122228327194,-0.01915636633773211,-0.0021236779586119156,-0.002961506372046557,8.620000000000001
-0.2722554013504494,-0.14136627713378622,9.837196686621715,0.010862209201447289,0.022113414603280094,0.005197974884205024,8.63
-0.07695089876374822,0.06053075126159427,9.943737276887289,-0.013267712676283093,0.014443411563282984,0.007737449537487219,8.64
-0.1035542765799167,0.11257546559235505,9.77233416886521,-0.01546864598403146,0.0017987223090032646,-0.01100368755448338,8.65
0.07654554849758632,0.14237633925049895,9.768248505904136,0.009258462808005978,0.006696235010221049,-0.006389926643836335,8.66
0.034393446564639524,-0.2844811947214004,9.932366651712881,0.003301079404771417,0.009668162020870771,-0.0003773480656365665,8.67
0.05365574785259242,-0.016453498207033575,9.791890469425502,-0.009410083650580478,-0.0054336092425523895,0.022843964542053462,8.68
0.06863851036042119,0.044036223699819736,9.641862530195356,0.03841433873185232,-0.005640731162463654,0.004646432865129208,8.69
0.035773176742901314,-0.05346510997317586,9.87498957561728,0.023945584550585368,0.0031175783859478767,0.005530581015315147,8.700000000000001
-0.05762030456782749,-0.08842381006226016,9.932309402066211,0.004396749443848642,0.003947373999366014,0.01700044559956826,8.71
0.042650807429270715,0.1340977945101138,9.889498925913006,0.0052739991206948965,-0.0010700859593300704,0.005871897247620695,8.72
-0.03821123550582323,-0.11159286795643548,9.871989377605082,0.008703421968518293,-0.028561858318346536,-0.02135750359501019,8.73
0.017661480536322643,0.022484378577418987,9.815763786367457,0.025875305310502177,-0.006365059844451544,-0.0021133645237345006,8.74
0.07137063592087847,-0.09804496254115122,9.736501479020735,-0.01227807537306665,0.007088745503247309,0.005828345373373749,8.75
-0.006088773100200985,-0.03829648743035074,9.70858726022474,-0.0016381978988204045,0.004733115675958099,-0.008593080369585879,8.76
-0.03626188960921152,-0.019487131582452986,9.803346606707116,-0.0031948612130828996,0.01444042283579884,-0.001000072078537579,8.77
-0.06538646855646078,-0.11618366467346611,9.974558574768247,0.017317088254486204,-0.01183238549627999,0.0048391048537746876,8.78
0.02365924713074095,0.15979385383335543,9.873024048629595,-0.0021255132287986487,0.000834339734815848,0.008798164415998275,8.790000000000001
0.04609579005407935,0.04466891775266446,9.745935816608318,0.01210165514029056,0.004482904067684747,-0.016983496536115028,8.8
0.13541347326852066,-0.06360704155361191,9.877756412207368,0.0027359359395757034,0.002021653665819059,0.006664204289843353,8.81
0.1444788089796156,0.20518050139251778,9.99095743881262,3.710208605793134e-05,0.01628839672631059,-0.003489099860149966,8.82
0.09570045474286276,0.08273094259263908,9.659996891621324,-0.015572003053936204,-0.010447621724154288,-0.0013259049427192437,8.83
-0.0256104709637757,-0.06344225351616294,9.788411552455843,0.012620352134803043,-0.014810592873815434,0.006873008726061657,8.84
0.048445791321458376,-0.11832888276582165,9.769268488023032,0.002554961669452706,-0.013649167904850872,-0.0025352965642199037,8.85
0.03282108099726334,0.050327145923415265,9.908844734432556,-0.0015875401598422897,-0.015777108448853445,0.007791556809972045,8.86
-0.011601083088242328,0.0021000233004650815,9.993676423836328,0.009411794051009845,0.010619549420336088,0.0023302191362271824,8.870000000000001
0.06293182175064885,0.10613053917458691,9.671752163053721,0.004272180690093459,-0.009228485992731196,8.957792005536977e-06,8.88
0.11015171609565451,0.1379459039261136,9.826509561272395,0.00889221377665083,-0.01064808787570701,-0.003534592118169995,8.89
0.11623850280593287,-0.10582685391822706,9.619606510772483,0.010794510189422126,0.009559225273165791,-0.00274549759463389,8.9
-0.007648290415883382,0.12842961484322815,9.808656034604748,-0.005160059147983143,0.015257439658498165,-0.0058443255754942755,8.91
0.014553060586510881,-0.025889302571412483,9.918378338998284,0.015234242688949353,-0.013617420228221617,-0.00987701785523624,8.92
-0.011587817711590898,-0.21253399229719291,9.873578147080023,-0.007651585727819392,-0.020776438768554263,-0.002472671634028242,8.93
0.09666534294187207,0.1291344207248997,9.677106094636729,0.02018756474232673,0.014230370877225094,0.007460277169652445,8.94
0.03664246021368558,-0.11036236760686016,9.908778936404007,-0.010625672244343581,0.0008172838430191751,-0.009232959887879196,8.950000000000001
0.07641497792228458,-0.026672428800341305,9.992455058726483,0.02880062409729238,-0.01041203276435855,-0.013350362619898264,8.96
-0.18956794017039205,0.020688198794144273,9.829982886042597,0.006876887181468337,0.006621627707928679,0.008941449366314688,8.97
0.13983575535542528,0.07304493198819433,9.883066402026667,-0.0033434693033205275,-0.006385564796149399,0.005713378379256332,8.98
-0.0029522188550866243,0.03901980744017486,9.658883712723682,0.011694065031497511,0.004292886312316588,0.011098473902793417,8.99
0.17268330118348518,0.028217841904545512,9.985500044733067,-0.004693979731309472,0.00734498479371446,0.005196025996117801,9.0
-0.1312384119638502,-0.00020449831917865904,9.866029713336166,-0.007427292301310031,-0.0016518346984758516,0.0033637415403536598,9.01
-0.06379441403521965,0.04113456975075122,9.637547454219842,-0.006700449994233463,-0.012734088136426536,-0.0078285900678495,9.02
-0.09660567907655553,0.12551000596438672,9.72680959871105,0.006453292594200786,0.015615674512948256,-0.009897719028650094,9.03
-0.13957088035604645,-0.13256552871903876,9.782742473654627,0.013643040471143801,-0.010713869107719707,0.002977250465307864,9.040000000000001
0.17552245466424882,0.0483520460734706,9.814504821417323,-0.0009103712243796755,0.02008361908278815,-0.0032892989647822423,9.05
-0.11941895164630467,-0.0714650492998619,9.889658612485707,0.012743332107133312,-0.009759042742149346,-0.005018689971068174,9.06
-0.13535576292490156,0.011120921368488246,9.719413900665197,-0.0077951913242020054,0.0022532774804891052,-0.013404678792479353,9.07
-0.10389222186316822,-0.16464373629286655,9.827372093437827,0.01206938331897782,0.009275129080372271,-0.0037073694921503464,9.08
0.102287760793241,0.09761102648084502,9.846669510498641,-0.018556428657117284,0.0027110217146727937,0.0012155542328913154,9.09
-0.18415648490065137,0.192501165036407,9.812074858421605,-0.014324909816155673,0.0012889464432607439,0.012867526597667297,9.1
-0.02647368251098956,-0.003626347375608731,9.814791981768444,0.0031070622333031796,0.008036313870926723,-0.017890294954505257,9.11
0.05702328214082312,0.3038922000528644,9.846974108986727,-0.006979553695951205,-0.00415555525968829,-0.003243953283877524,9.120000000000001
0.02552732828968811,0.1828781358137605,9.809432905548231,0.0061703448089389665,0.009655136781509862,0.015330330386307402,9.13
0.1241645044831419,0.00976276321847317,9.834995080352654,-0.012389912980127638,0.0009906819650698563,0.0005800300757549745,9.14
0.058219457984025946,0.17605911623408124,9.971486001765951,-0.006107957326722322,0.01223792346295876,-0.008912276169163543,9.15
-0.08053191216657857,-0.05380591608082196,9.583390882978835,-0.019297134943134155,-0.010279416304659337,-0.014491411839381171,9.16
