ax,ay,az,gx,gy,gz,timestamp
0.00028040303481691376,0.06417948742435242,9.810505782926445,0.027762445119681727,0.004042848882900536,0.00033499718459203444,0.0
0.1385669507231957,-0.04517323142453358,9.743673698238942,0.012122872826076103,0.002345489171427227,0.015915968083923544,0.01
0.18609765224502717,0.1266628700282155,9.792319521864934,0.012609389125438882,0.006859725955008143,-0.0071973667058794115,0.02
0.08553001608638884,0.12947228765081448,9.900672682555994,-0.004066499894576722,-0.0029834306601076283,-0.006793761475188291,0.03
-0.10600843412366041,-0.009096205883412442,9.697538790018585,-0.003926195903613787,-0.006480732864764237,-0.013034261864496162,0.04
0.08225473427890007,0.002014544088667069,9.887400616198553,-0.009336379582110886,0.0026142781433529582,-0.0023021315566398716,0.05
-0.04355108144072986,0.08442780654109483,9.807868975145812,-0.0029902273400722974,-0.0045851265446280485,0.0034007681010628527,0.06
0.05227630592945616,-0.031900520633695785,9.828579027013129,-0.00734979835278315,0.005942588259605184,-0.00417109342482594,0.07
-0.05779850848102397,-0.05480264208739269,9.827276259726556,-0.005506536975729293,0.010324476581942903,-0.002389530610478543,0.08
0.05986598127838208,0.07738034447295561,9.88635662629686,0.004587601059057216,-0.0013102460495161544,0.004421852573888025,0.09
-0.04348342547676848,0.14248460412633676,9.906204464719385,-0.0007914862998879791,0.0014973867946565954,-0.004434015496814393,0.1
-0.013407971217796466,0.14574329906148561,9.61875628221091,0.002763495182949739,-0.004729406218351772,-0.00801062322600386,0.11
0.04007806260902022,-0.21369066445664223,9.80089988711315,0.0004912506847387369,0.004632107025073522,-0.011192668279724321,0.12
0.08514813887422776,-0.176641523467333,9.926914125007265,-0.02113255942145508,0.0004721510358769144,0.005452221374545337,0.13
0.10802343391680379,-0.0060765987971294145,9.778332152227817,-0.001097487084113969,-0.006083480171095688,0.012336468656327353,0.14
0.020308957112677776,0.017217871789195552,9.783017859847142,-0.005139385025620495,-0.004615399689183601,-0.004436304128301054,0.15
0.014433682598158186,-0.10134210506995232,9.903299731101358,0.016937815725722935,-0.01017454258339543,0.008071816371058053,0.16
-0.05234938121344049,0.10140537293332677,9.86282492021996,0.0015279594584803099,-0.0005998420524115221,0.0024193823924578794,0.17
-0.14721383029672516,-0.07347411241308588,9.844236294007404,-0.010580962466146569,0.00940057161537802,-0.010436864558381973,0.18
-0.06603761625933656,-0.10103450400652521,9.856420899433763,-0.012765817383944124,-0.003481579380634677,0.01195085459215078,0.19
0.015304477920654223,-0.13238077882681312,9.828565358776991,0.006847001352217059,0.003957033000241477,0.0041079086545174745,0.2
-0.029278958294626824,-0.08908891522958773,9.780595377564515,0.0028862120865608266,0.004900055297746113,-0.01474980320460473,0.21
-0.11343641746041132,0.2768693821727272,9.855285013541485,0.006070442049492772,0.012468695527057127,0.008138919203000868,0.22
0.027699029935693804,-0.04515642034947885,9.765583332701372,-0.014961670821400017,-0.01678997621278518,-0.00968025980636213,0.23
-0.09970025751840812,0.097430682314208,9.70605477894768,0.000706463350123911,0.009749231369435583,0.018933118202834658,0.24
0.047447593812185204,-0.06917219080005327,9.818659783085225,-0.014989081519934569,-0.01250447448401333,-0.012049570377023176,0.25
-0.07065010806668374,0.05562701170352277,9.917995597470892,-0.012320528907708362,0.013730815524727493,-0.0006421258170256236,0.26
-0.019498433268103434,-0.0323451180274061,9.878456584102768,0.009066614837917755,-0.006629149881445963,-0.003750034604554535,0.27
0.016877406177121787,0.007239170610277717,9.8504237275362,-0.0017102773568230245,-0.00998096783289274,-0.00915226511230433,0.28
0.06924782680346861,0.14371205670440887,9.744181709533533,0.018421566673246816,0.0031286794191808403,-0.0153566458700291,0.29
0.027226772619689615,-0.17550182579994736,9.913703903629283,-0.0010493280985049455,-0.00941113470069886,0.010447467078485656,0.3
-0.00438285454549245,0.047497380420194545,9.890962372188268,0.0003026877055990537,-0.014863656336655163,-0.019864891842804735,0.31
-0.029443817537529907,0.057775567168185375,9.914059078757662,0.011173676770911576,-0.014195840536181222,-0.005268900494943296,0.32
-0.2474786004270232,-0.05124555848209096,9.67323580796739,0.0021768593678017645,-0.001860032560329538,0.01950723457007558,0.33
0.0821527368836457,0.058346352797357816,9.643621372579435,0.008009986497977215,-0.004741146132269889,0.007588476016099787,0.34
0.06773863531995448,0.17568934530863572,9.772376828447696,-0.004342996566202116,0.002837404170053379,-0.005685265072548579,0.35000000000000003
-0.018761794026933527,-0.05731324977040175,9.784803883906045,0.01178798654344379,0.00629303844031999,0.004678150435734458,0.36
0.011598446934960177,0.21796094490037912,9.748021445018525,-0.001771771299850371,-0.0007698142686050911,-0.025067695574584818,0.37
0.09008253327268098,0.017267144152942587,9.803599218486207,-0.004672935163061004,-0.009832168294918205,0.0027218357927687835,0.38
0.053909368830067916,0.06807061975239986,9.963746936358323,-0.006128454454504999,-0.0020653864143647875,0.006583137964551964,0.39
0.0034817456353360317,-0.05115785686424155,9.77575433947396,-0.006070649766209816,-0.01862746013050227,-0.021130351818336588,0.4
0.0041358533235369,-0.13029066204782877,9.682921129484587,-0.00644040263124513,-0.004567210330950367,-0.0029402029091240367,0.41000000000000003
0.06522105960812118,0.024968233934539518,9.928131272959343,-0.01611029424090405,-0.016546878529414933,0.004865985898732035,0.42
-0.05191458940985455,-0.03459867455623946,9.751600926000798,0.006987088509600098,0.0014656317059970863,-0.00015420254700193074,0.43
0.027330494127408206,-0.1018326810378608,9.841034477358827,0.016672001961559744,0.017449454794003862,0.016657883320842334,0.44
0.07321030509710731,0.019122959080202562,9.844781959302079,0.0016784317558752014,-0.01171929315989097,0.00363581884768709,0.45
0.006916432179285154,-0.024935751952323157,9.743710729011534,-0.004147899103630844,0.004919685341897899,-0.007018988091991013,0.46
-0.13567966008755422,0.061745355529834706,9.876871958066195,-0.005971546031359305,-0.01312670359104602,0.0005842406502855735,0.47000000000000003
0.2691850639579867,0.002505147119936423,9.835349114334871,0.008123182602889044,0.0024842566052987896,0.00148231834588198,0.48
-0.06939747478706694,-0.05999374650260737,9.705407370710317,-0.0036622343752568316,-0.003005541390815951,0.0032633379185982372,0.49
-0.08844025486901315,0.08175623592725902,9.827686895278486,-0.006429720172157753,0.009603029240729285,-0.026275593883263802,0.5
-0.12787929328660283,0.20600768615159654,9.765279777254088,0.006973327273173227,-0.010688547528928723,-0.00519321243869928,0.51
-0.022917531999242485,-0.1400453838276439,9.894430689836504,0.015077235950579502,0.01721035133580445,0.008572200255999649,0.52
-0.12079450066500877,-0.05230643871906805,9.622075318210143,-0.00724075021921991,0.018153385503301117,0.00850517929454846,0.53
0.04187695088841128,0.07977187906938124,9.740989444870923,0.006964556298835937,0.009663042171303995,-0.006351537302305025,0.54
0.033769479538909464,-0.15694874195502773,9.846411536543647,-0.007568291711660472,-0.006449260984781062,0.0023599269511379002,0.55
0.05274518325475053,0.21131557487221825,9.757028596734413,0.0054770647435458605,0.003345755222067905,-0.0005106603914820096,0.56
-0.08915389321231833,-0.03827724161220688,9.883868586856995,0.01258675552191192,-0.006508703419329528,-0.01240459158461642,0.5700000000000001
-0.1385648179873067,0.21272610894017607,9.692757539071822,8.299536728428141e-05,-0.001708363883787492,-0.01642700322071569,0.58
0.060072350237939776,-0.0575828226321212,9.88070365548299,-0.013894277167593566,0.006172434064917455,-0.0016646569087015667,0.59
-0.003976117409475496,-0.09216069967536239,10.044245648165708,-0.0042841681814764455,-0.0010474776855524668,-0.004951293869061658,0.6
-0.08010008805128727,-0.0169272098121867,9.864404544794157,-0.0054921643789652775,0.002062587380693034,0.003436615698461354,0.61
-0.1312368552399499,-0.16811757406810776,9.913597326735317,0.010923334310344488,-0.002180098741137007,-0.002534478250131267,0.62
-0.0097148924394338,0.12910649106318905,9.841152458999193,-0.012044412588080436,-0.014410948971595977,0.0010068091974677498,0.63
0.041155939384605766,0.08395068246296629,9.777856072994899,-0.00040139179779354023,0.00011341683548053525,-0.005307279452609224,0.64
-0.08802672539315323,0.06109840544117293,9.890580878416417,0.014232559857389694,-0.007905788133852202,-0.0027970158136893554,0.65
0.05188499671970353,-0.008233370145672481,9.734026324528338,0.0035813605643536146,0.0022142641069458845,-0.006357828330955916,0.66
-0.07507418660634918,0.023765148367619074,9.774274625796105,-0.023442993732366735,-0.010786627866657295,0.002569454948587082,0.67
-0.15030886282580236,-0.15884779203844068,9.857879635838875,-0.004404437177552467,0.0022133882078867913,0.0014001799930360456,0.68
-0.07053359030373724,-0.13615920903054063,9.655884844780237,-0.002766566170268527,0.003773371502762501,-0.0024441648747528166,0.6900000000000001
0.12356836591890202,0.14939571423597386,9.879655801123322,0.01148765996884515,-0.007296439647412354,-0.00780421057179043,0.7000000000000001
0.15552752558611238,-0.06483082289458966,9.848061230630686,-0.008942024995832146,-0.0033162541747524493,-0.015411397454390708,0.71
-0.03744340016709369,0.09565107987225085,9.837862103106087,-0.00952516074030929,-0.004323639417909214,-0.015324462325491296,0.72
-0.11612370997492245,0.040228555347527895,9.821229965361356,0.013675071014373114,-0.0013880106786405791,0.0029119248397495834,0.73
0.06502375945464421,0.01707942994605802,9.726395405926606,0.01882110103465341,-0.010287253879193624,-0.0022452493784339425,0.74
0.013570588685410279,0.04982020058633748,9.888485061712492,0.005018390479164946,-0.0030336042649669126,-0.01014672740899972,0.75
-0.11250899499003837,-0.0233103114401108,9.953022776079056,-0.008807884068909281,-0.0012795947668268416,-0.0074756617572098874,0.76
0.024132178845867432,0.098674839376302,9.874990192147726,0.011637049232329862,-0.008432151137908612,-0.0024619411673612334,0.77
-0.12032265066867916,0.10652662949101827,9.792900510043914,-0.007523017037924964,-0.008156346220288475,-0.0009392798619183384,0.78
0.030378844797252037,0.09600513286146956,9.812896017290246,-0.0011492704776370729,-0.004465389883928559,0.009355028037011034,0.79
0.15545728324833166,-0.002091030856702427,9.682591109455949,0.008006931048679557,-0.008365000176422445,0.003151680855352097,0.8
-0.04186715686718281,0.0699893676212184,9.914806747915481,0.005043835935281693,-0.008101452633763547,0.010523440337902479,0.81
-0.11988576094909578,0.14808537290237275,9.796310573186263,-0.0027294187891926548,-0.0069298664584930515,0.016729725590962002,0.8200000000000001
0.1403597282874937,-0.13074024455622216,9.941665826048357,0.0037312854728539686,0.003776318917202758,-0.0098526517824365,0.8300000000000001
-0.10977432165442597,0.15074081540257142,9.823429421982954,0.005393562371578438,0.0064643589676834845,0.0015202472453887362,0.84
0.10635339617758698,-0.007129697339816776,9.713795523069418,0.011979822346182679,-0.008658682943435315,0.011308326297658782,0.85
0.025870141114870644,-0.044871409714303215,9.937589391578806,-0.011516741858314866,-0.005887116681643032,0.022227950264135998,0.86
0.04411294006878319,-0.061047399344947906,9.736863060068941,0.013584358449550013,0.0041487576401623314,0.001546373164869796,0.87
0.06774201300711627,0.009355568593870997,9.900188349192147,-0.00014451154752590826,-0.0002524709052183868,-0.007308765163118962,0.88
-0.08424571292136535,0.10381878910486818,9.929011903578859,0.020132725352951245,0.008191453391325994,0.01373196442553495,0.89
-0.09975549437091885,0.005124874290299793,9.805396409654156,0.0043114564894217704,0.004373187682521947,0.01117946537596928,0.9
0.04940095868174059,-0.15191249995568995,9.870688156043018,0.0007557933074056081,0.0027813085552803258,0.0008302468013816294,0.91
0.14399911247019279,-0.09392857862618736,9.742480504929876,-0.00236142955872867,0.0020169220248472215,0.0032251258129907686,0.92
0.14506486521955958,-0.0825031930362206,9.650390623801322,0.0037868156655837476,0.006482848740278141,0.0064005573482284,0.93
-0.02322736986783844,-0.23469022152430688,9.695210196568258,0.017811218172423555,0.011413806001564724,-0.016017905504650178,0.9400000000000001
-0.014208664238631234,0.052566649558170364,9.765427947395626,-0.011461497452248028,-0.003700768164839567,0.009661304660833845,0.9500000000000001
-0.04322645506607878,0.097887971348317,9.85766117746664,-0.007540176617969836,0.006269163272277186,0.001306628761086279,0.96
-0.014141830725840908,-0.0709227652933765,9.889292565546295,-0.009557893141967458,-0.0046332300350692655,-0.012810679675168631,0.97
0.0025971506317408345,0.029023600436974696,9.854305143540458,0.005831414189549161,-0.011670784631860867,0.0011273715932043206,0.98
-0.04813265260937098,0.049551448917792396,9.422071340336442,0.007167166352359317,0.0077325517336844195,0.0028308317469961657,0.99
0.03739249899910043,0.0013968750688499454,9.811649188061985,0.009066483430943423,-0.0017353966704698504,0.008800088260515483,1.0
-0.13420462448248952,-0.010543265744610406,9.880025602938844,0.002481233289545971,0.005730724206855662,-0.0006421660093692912,1.01
0.02803208762837527,0.12315671569965608,9.912187942970618,0.007522695053350457,-0.010250029461118288,0.006149137597255193,1.02
-0.11898910953934527,0.09575669401734552,9.87777560346158,-0.021010048563987437,0.013711750402643164,-0.010641129044579914,1.03
-0.08470628925176756,0.014530410654903795,9.846820830698807,-0.0025095039120214264,-0.0007863999524404575,-0.008155443323375183,1.04
0.14531916308397644,-0.0650611443343175,9.797420508793968,-0.00982449078736172,0.0002566110234628222,0.007752430357551426,1.05
0.051095286729347156,-0.008042507807735706,9.846795805820156,0.005803714083932476,0.010186665639593176,-0.01076254800117219,1.06
-0.01895813395862704,-0.03982309484357946,9.826462744133703,-0.018934839929686267,0.007365996681680734,0.0021021592654483774,1.07
-0.00760401725479466,0.1706276099388265,9.827397352968829,-0.003843125330471286,-0.012811031837555454,0.007720463495722342,1.08
0.09202460696210107,-0.020139599394177903,9.777408901010368,-0.00017155132672609424,-0.00652130489633037,0.023016166984663973,1.09
-0.02860516013887871,0.009003461776807673,9.573399382430269,0.009139268346261966,-0.005022116556513658,0.011368654857530037,1.1
-0.010972848036429022,0.030329200892549354,9.885958391416622,-0.005870768950520775,0.012408583121294541,-7.48595361094725e-05,1.11
0.04843045083805075,0.3699918146021132,9.985708292794353,0.008417968486716837,-0.00862719731170488,-0.011696983081463832,1.12
-0.029378571523220594,0.20738234950083237,9.820049577536842,0.0024804594408884173,-0.011053358946501977,-0.023215080793633606,1.1300000000000001
0.09529882008479179,-0.07768918358782881,9.827883506550734,-0.004294574848958725,-0.018512520090146315,-0.0033727559627826963,1.1400000000000001
0.09876825265939154,-0.045194170276388244,9.819310599851597,-0.0035722981172331986,0.010321157472441672,-0.015034645343023113,1.1500000000000001
0.005856081463007388,0.11605619437191453,9.813546104219984,-0.00180546526931551,0.013189940587590807,0.01194032183658703,1.16
-0.295433932486651,-0.03564828900536627,9.918364993520415,-0.013321718073555514,-0.002171604692713446,0.000585751847111688,1.17
-0.044204066689041276,-0.0669419210514327,9.745052433512736,-0.00949113158098701,0.006550221360964693,-0.005952620336708919,1.18
0.1523533246980335,-0.03523277011279537,9.699268355438647,0.002789526873090005,-0.009571168655339624,0.0068508858035129004,1.19
0.2007928803684604,0.08637718040589062,9.667535397442476,0.005927426327407216,0.0025735582399684038,0.0006818328939976957,1.2
-0.17565275984638112,0.0050198200515979285,9.681012685627655,0.005976002747313445,0.0034555576044450814,-0.00844100467539426,1.21
-0.10145126034961303,0.12892521328008305,9.924883848690309,-0.0052944937495308245,0.0017972737360044111,0.005515310610593146,1.22
0.1268304495655596,0.20307118225375276,9.780193594945533,0.005680962247460859,-0.01468756544462722,0.0063195212561855,1.23
-0.07150672312898308,0.04255360167985858,9.928999531722479,0.022033643019157962,-0.004909254235879644,-0.004442375777831693,1.24
0.017283188302130284,-0.09357106333235435,9.903229408322455,0.002815675604605798,0.030635051262877855,0.009682631154769085,1.25
0.11711189174250568,0.053778106357977244,9.655462380307647,0.0011794400532737911,-0.00905558363540539,-0.005087859365077767,1.26
0.08393331045536984,0.05001342835840124,9.90606116650691,-0.02888524483062623,0.006857882157216508,-0.00590868970897946,1.27
0.1809714995549989,-0.008825148276053888,9.958911627339491,-0.020424187934601042,-0.008170630241136031,-0.007655731741613974,1.28
-0.04816226860200146,0.07459088132411684,9.736644140588439,0.006994072631179745,0.013099682293739166,0.013049954120778098,1.29
-0.09252228298197834,0.04717655024201069,9.84326953582706,-0.010842226401002469,-0.00133589608917567,-0.011977829339698456,1.3
-0.15438439832932252,-0.0069419496763974175,9.830881859137236,0.01711424498341047,-0.013708159480335172,0.0006781029930569501,1.31
0.18460670849543626,-0.16510941158744405,9.85141797585446,-0.006820624731185562,0.01207563776286816,-0.006164231620531173,1.32
0.05706964803975511,0.06693780049827691,9.657643376838354,0.002211832968851331,0.007135785737595102,-0.01817758220472682,1.33
-0.06513412734344419,0.019201927035637695,9.828673161338774,-0.006524142763341821,0.006262859199089444,0.010965775692348734,1.34
-0.12455902135010154,-0.01020185133125546,9.80946894707886,0.01846231746745817,0.007896758342612593,0.0015613769754954914,1.35
0.029701139428706724,-0.040336159335016775,9.620386124744652,0.0029720548583945855,0.002406307572716493,-0.002449170940562905,1.36
-0.1616822182680243,-0.04260502354199666,9.760379381174706,-0.005459086526313554,0.003857842009452492,0.013723994147480554,1.37
-0.009339417276554266,0.05294243604358774,9.723480732619453,0.0035114278723774447,0.003958596301992032,-7.067767993356525e-05,1.3800000000000001
-0.04956131682837023,0.041144190184459924,9.762494817261203,0.004833294751130773,0.004440387507985859,-0.004262372520290454,1.3900000000000001
0.021242241710295394,0.2387781108533086,9.839222657233195,0.02669214553428026,-0.004941734861974696,-0.008188139172888473,1.4000000000000001
0.004883359547589418,-0.10624446179083046,9.667628907299559,0.006506009610303074,-0.004212933142377406,-0.01615608156136872,1.41
0.2984633163904755,-0.18531087937199098,9.778749994615172,0.0008211956346086935,-0.005582426363871133,-0.007942443210114317,1.42
-0.11475148534516899,9.689389337790248e-05,10.012062858316897,0.004673016153331464,0.01819158137872421,-0.01020745836070062,1.43
-0.10186172870840174,0.056831826564013616,9.843682165334853,-0.014651433426576712,0.0007159443950932632,0.006826783336507157,1.44
0.010662174514952997,0.08876749644955854,9.770089553525917,-0.019004798519171126,-0.005757848435921835,0.004916762749858672,1.45
-0.05108208832184809,0.09631644966848668,9.67147788779526,0.0059508991576529445,0.0076919696088863935,-0.015184267642131842,1.46
0.04954204324365906,0.15201148865645858,9.757829430932325,-0.0015608082405708004,-0.002961040102729962,0.009774075344915511,1.47
0.0367723619607743,0.04044860674564532,9.80937694490723,-0.008051905484230537,0.01790622514533756,-0.002195227477914433,1.48
0.019492630604062283,-0.2875549602855759,9.82127200409473,-0.004831378385210773,-0.0022647737343233234,0.003417105084917073,1.49
0.06043235764747784,0.10651601925498438,9.842095602154611,-0.007230885484648784,0.005492490373118172,-0.003959452914576326,1.5
-0.07137166503722249,-0.003949918398912424,9.798088803902285,0.012537032317933522,0.006959135165298308,0.007699418140982155,1.51
0.051101729321233504,-0.09160430410512821,9.873418914398965,0.016176566214107065,-0.005844681967947366,-0.007787253955418745,1.52
-0.07563798375767465,0.022713688224302673,9.763195915321221,-0.014940726303596857,0.01960771126008298,0.009063794541219196,1.53
0.03901552690211379,0.0934911415874654,9.925818813894193,0.0017832412490977525,0.0037181425845268213,-0.0058181852281877135,1.54
-0.08873883092845596,-0.07504654786765086,9.866626165134576,0.006323488160322204,-0.009417117986165088,-0.005808472318485719,1.55
0.06662347351458825,-0.03872401149166243,9.830657979120803,-0.000551142265521321,-0.0004074570710067649,-0.0010203450876397977,1.56
-0.014774962507463855,0.11847106770939504,9.787385581378505,0.00040472640298291126,-0.0015191376884679778,-0.016510284294095824,1.57
-0.035039894319679805,-0.011002318744970152,9.772386878970913,0.012893617992201201,0.010275804594518496,0.002700401779839251,1.58
0.11689473683685558,0.00967988740377631,9.960687174919522,0.011671788726529195,0.00920922111214647,-0.008231480251801098,1.59
-0.03757633146343326,0.043787914506650066,10.078940975282181,-0.005761673643879944,0.003533789625615083,-0.020495716188188805,1.6
-0.1347622017832116,-0.02954493362334489,9.860643627138709,0.0015768573812779988,0.006198055352954658,-0.005914335840055271,1.61
0.2549212178377847,-0.14104083841471807,9.817317452833214,-0.008530419326795878,0.011995651635079404,-0.0018523227714731475,1.62
-0.042111623323922515,-0.010114717829887952,9.880586218765474,-0.0006786905938519867,-0.013741892690693414,-0.0012177259518152978,1.6300000000000001
0.1428030261323777,-0.158624991270422,9.759618314589163,-0.018014750527696913,0.007446575019178439,-0.0008558679498521085,1.6400000000000001
0.0452107363437536,-0.07729270576701427,9.728366456604096,-0.0042734885800668355,0.001034433751989825,-0.004479084014403545,1.6500000000000001
0.0404217848534911,0.21592551724965736,9.843935442562499,-0.005372635480012489,0.0025748515555016034,-0.00817491897950237,1.6600000000000001
-0.05007308438614262,0.10266194284280242,9.630977954264214,0.0063779336486858304,-0.0015559378848188751,0.003697699968317621,1.67
-0.05565077201884087,0.007336432421140068,9.854736554452497,-0.019482150408561324,-0.012145962533297128,-0.008850259622389469,1.68
0.026053233039940504,0.13813769169764775,9.839415634637938,0.005955644597926514,0.026441512483390946,-0.004022708395196419,1.69
0.12114765746066532,0.20167858777487513,9.897428431040677,0.001160195276546026,-0.00922103896515461,0.01637742361471105,1.7
-0.11690812664946366,-0.05631285684435791,9.873814238000575,0.005174547934018546,-0.008192755831537273,-0.005751055129660175,1.71
0.15553665275662684,-0.0628148289406511,9.642279764642833,-0.0024842580039640466,-0.0066900892872659365,-0.008387782917881432,1.72
-0.14982407492529734,-0.04247419838781342,9.984659537358976,0.006035699901626267,-0.013658529606158256,-0.0035191576218504823,1.73
0.14277142005232477,0.050340209447984986,9.66100664267659,-0.003720665964237567,-0.00648299853188882,-0.004521073943774446,1.74
0.007193155546104161,-0.07314717055633459,9.861815183251945,0.0003736854631651566,0.016871540678275253,-0.011165353214332062,1.75
0.17041224010686884,0.07376398038739809,10.021736395081907,-0.005561211874594478,0.018950237742704865,-0.0013381541733005473,1.76
0.12371017829653151,-0.03488206566152278,9.788382140784021,-0.006356356395248243,0.018668337072148943,0.00706039810415703,1.77
-0.10816767441348202,0.03789550533229857,9.820178910340413,0.01050438227531739,0.0018221131004099581,-0.006636773568534714,1.78
-0.045312894130485025,-0.02260939127442517,9.580001860359861,0.004567197506450164,-0.009226816988458791,-0.0064526767386053965,1.79
0.08602888614393131,0.13028344452994942,9.793768599828775,0.007306529348948321,-0.012712040183407564,0.011504708269927149,1.8
-0.03313046417826406,-0.005134283239031522,9.761032141948407,0.007808577734405459,-0.002937267937519995,-0.01304031913254169,1.81
0.0011678863125436502,-0.06003094012599822,10.075491956382495,-0.010926166285735766,-0.011699895049877387,0.023949980824391686,1.82
0.02215308285242056,0.09936262928278751,9.898160788594259,0.0016187607818372294,-0.02209612223646541,0.003133680521025528,1.83
0.019921891220109754,0.028426897946213038,9.813593440761363,-0.01877060704260418,-0.017383617820785,0.0022736790140629065,1.84
0.11792801966451079,0.06868606057898685,9.76910634957411,0.006484572059008219,-0.008169793249705671,0.02133509449271764,1.85
0.07984038743720026,-0.025354010124200035,9.78108700583616,0.006218907980239306,0.003152516032583479,-0.003474433908038577,1.86
0.1872400566483371,-0.0933455594674829,9.741863099553981,-0.0025779990339185317,0.0011466084514137763,0.009058121596695444,1.87
-0.03461655025743902,0.01366846127797211,9.723824268777664,0.010501350073355915,0.005538932586837341,-0.01129327180571564,1.8800000000000001
-0.06600727719163445,0.00892175298546014,9.891013061773666,0.003233741790367902,-0.00409976801196201,-0.013052739780649138,1.8900000000000001
-0.05831218396634766,-0.03859490837999116,9.765603343583047,-0.0020077672092792395,-0.002144037046335497,-0.004426455421677261,1.9000000000000001
-0.0803227830671951,0.07056089511267365,9.831553682097923,0.010998236924142167,-0.010779990207113425,0.005306266590020789,1.9100000000000001
0.08639671406240586,0.16530061929028628,9.99381688836169,0.010668377229436886,-0.003337593077138099,-0.016627895360539352,1.92
-0.09334212120262975,-0.06394336160458014,9.878376200232704,0.005389612685139621,-0.00845766612695576,-0.013635511097029101,1.93
-0.08574517699396648,0.042027546396508866,9.804543621547822,0.005001559789933198,-0.010080890091571605,0.0046818749931609015,1.94
-0.006767571014624588,0.19562672543297457,9.8716139818628,0.011984381362913871,0.007659112962922868,0.0011998960961658927,1.95
0.03418279278534188,0.05539135287849898,9.840211491066995,-0.008381539721949749,-0.0071002517835843494,0.001577569846702353,1.96
-0.12085605827939556,0.05075134726933337,9.917980384050175,-0.01720700535374647,-0.004263684726344353,0.014041705307174898,1.97
-0.03302217940666411,0.048882901323771835,9.727319213476079,-0.0053701038150086875,0.004484850038431258,-0.007537922670691948,1.98
0.0012095745791095996,-0.0658893301419405,9.68700000603062,0.005004440329045459,-0.002655489856196664,0.020180432682522894,1.99
-0.06206728685601466,0.13657712112901235,9.751732060357694,0.0010796982640689614,-0.00252625470126545,-0.005909801082234849,2.0
0.021910069197735516,0.14815000764154948,10.107740031674302,-0.01039572221610777,-0.0003671835752481374,0.010676666384946982,2.0100000000000002
0.01669189812592052,0.10309416768302322,9.843048590158272,-0.015446834463406469,-0.009663330260703002,0.005713619415006331,2.02
0.1149230031768132,-0.10384005690987563,9.849643546747885,-0.004073336060910915,0.0260195903343047,0.008933704773963564,2.0300000000000002
-0.2022606395345501,0.0633875931714176,9.745775643226407,0.00046518605253750573,-0.014208409955252075,-0.003086244655972107,2.04
-0.09126686811713808,-0.14614463388839036,10.00304235484548,-0.004359228990185817,0.009699879022463416,-0.012851387482620782,2.05
0.11069647409886091,-0.023395095405698625,9.881626586324694,0.006155622697334031,-0.003275734356338713,0.015303316522191286,2.06
0.03740201406720348,-0.18845675954160057,9.906457224465335,-0.002343776635079249,0.015977713470875662,0.0013649487241630847,2.07
0.12495932387891824,-0.022647499519863532,9.988533640385395,0.0011093283576883326,-0.002631021511778266,-0.002077426373060418,2.08
0.03436403624029473,-0.08077624275993571,9.68296912931424,0.011339895918561499,0.019210628526923713,-0.004433103494939661,2.09
0.22596149619606437,0.03657759349417391,9.839269192574447,0.014955926711038627,0.0014644152104939141,-0.00615210255304649,2.1
0.07765630796691476,0.05372105982709413,9.615477617465306,0.017383518022796127,0.010924467697099989,-0.01927990530326512,2.11
0.20970323787152584,-0.03600395619769082,9.754660804567493,0.004715385511287966,-0.004367594567336506,0.005240346834780825,2.12
0.07991132161641205,-0.03901472081138349,9.907631466239161,-0.0027319349940586354,-0.013596325138162285,-0.0011259899722856103,2.13
0.15877180188908968,0.08054844147472726,9.827558803577102,-0.011529926547438807,-0.006472812424499627,0.0021709620255950446,2.14
0.040187040591170356,0.05749515741224255,9.675841775789843,-0.00035545491839747277,-3.8554721746403234e-05,0.03106244313316091,2.15
-0.2199758351943639,-0.17103233755544267,9.874141141573176,0.004732889340224804,-0.002794408275693754,0.00387097159464533,2.16
-0.07095922992213365,-0.2099793342821712,9.923654535699397,0.0029927856583936148,0.003037380765012161,-0.006806293757274715,2.17
0.06459196937190444,0.06923955470464319,9.850238335910925,0.009167739388163445,-0.019235104689778477,-0.0011441922372596586,2.18
0.07955387743587257,0.017307393333863007,9.693990624244787,0.006363574257735834,-0.013748543760679579,0.011394524057762857,2.19
0.07904433636464038,-0.04806573341561224,9.852059964935577,0.018593316508327885,0.007885378095712796,-0.005732314183557661,2.2
0.09621261515872373,-0.011818654771625336,9.718403263629698,-0.004774384119095872,0.0008015604944026875,0.025485641484348523,2.21
-0.07064472174783411,0.06501041393355557,9.877537009006431,0.0008646211461942978,-0.011075244933793972,0.010371930726970005,2.22
-0.10921077909451066,0.07431848830576016,9.754094790849917,-0.019460389401173245,-0.007997051147551292,-0.0027352442431304424,2.23
-0.09459951343764407,-0.007714268576184791,9.835909649583353,0.011630009538670525,0.008958414215171155,0.0022460630336999595,2.24
-0.0627555890922354,0.03515790818997347,9.731605412526648,0.004988835323294543,0.0012599638362972062,-0.015813433761014357,2.25
0.031062278095536064,-0.03728434086049824,9.865903867799465,-0.00729091392880279,0.00931110458024915,-0.017514634480372,2.2600000000000002
0.005199429459316788,-0.08973319440798139,9.93164133093858,0.028547815310691546,-0.010780204852487915,-0.013990233214651022,2.27
0.14089396115135472,-0.02775903167994506,9.679811735942025,0.013662678286860755,0.005726792072722221,0.004927395037711609,2.2800000000000002
-0.044396702981727126,-0.06807724091776983,9.740375725115891,0.0012329704327527851,-0.020113663057465443,-0.01402978254637326,2.29
0.06366726337498589,-0.19608016285728147,9.844666126379924,-0.004329614229427098,-0.011941127615876486,-0.0023641560535712807,2.3000000000000003
-0.07203498561535068,0.21047028973988302,10.032803408972379,0.019731516059929698,-0.017650140324898193,0.00973846425445997,2.31
-0.028936190750620185,0.13796372188103306,9.891387061697817,-0.002828703562293024,-0.016891373010794276,0.008805660275751716,2.32
0.015138087332240667,-0.12804637367812152,9.79065807019182,-0.0007476695879232397,0.005864430416388888,0.013812406057328325,2.33
0.06172408659660548,-0.09172060043465834,9.957394048814773,0.0007610886551005966,0.007920034417642826,-0.0007015279154762154,2.34
-0.1195696636128512,0.14332802016053262,9.982853897549438,-0.02123810695017043,0.0015508264386681816,-0.006410854728275311,2.35
0.07700829544750938,0.10187400445488289,9.860258810071286,-0.0013457739660772444,-0.009246489075311313,-0.007795707208289011,2.36
0.13880123020048094,0.038299726189025246,9.86490962699904,-0.00790166655794051,-0.0028613542603645532,-0.013420776957760597,2.37
-0.19265848587481588,0.13417492984384985,9.70402221596077,0.001974482512411882,-0.004985473897248733,0.008324911793546799,2.38
0.08100896009564894,-0.1205632302507169,9.706127656400717,-0.030025755218179077,-0.0024180593303200666,0.006961757603565383,2.39
0.15481036490608924,-0.05144085629064771,9.790678349669298,-0.005197219739164188,-0.019798359168474552,-0.01019683772664464,2.4
0.09552605059396571,-0.01613426223403944,10.021073507881743,0.0031266226429113426,0.0074614670280834594,0.009179326578055615,2.41
-0.07855991388004732,-0.16229086358545144,9.67806002248819,-0.014907693211278111,0.005473901493738986,0.007396326329594431,2.42
0.028207150659584918,-0.00107751274629973,9.787315976596352,-0.0077381550678717196,-0.0059930706715391755,0.012269572351200282,2.43
-0.027669767448044915,0.06900572414041571,9.827767646208134,0.0050501240070714385,-0.012542628769931797,-0.005202079648897244,2.44
0.1391725584773894,0.15059707018685886,9.779079441400725,-0.0008466340346700086,-0.0007147256618333847,-0.006175500973801669,2.45
-0.07194001328159719,0.044369525694315,9.722403743052325,-0.019646074375784275,0.01538078812139376,0.0038338098079168438,2.46
0.09176118995602968,-0.06312856888616081,9.980019855033165,0.019252196946292845,-0.014421789304180688,-0.004678379163691896,2.47
0.1154810001020651,0.0357581319424026,9.812915396961154,-0.007555248325249434,0.0077401669361055,0.010911499186751652,2.48
0.054122748969009316,0.01679774943916026,9.72618018997181,0.009321208708389213,0.005826633612919247,0.010621170802819841,2.49
-0.005993432067215187,0.0385132726352722,9.830402878742504,0.00932286132102795,0.016341282418787097,-0.00869902743903366,2.5
-0.06251439676652813,-0.007139735895672715,9.920317462988454,0.00023567130407588295,-0.01623994318764286,-0.006420635327514962,2.5100000000000002
-0.22948264037442434,0.00447701686935547,9.871167235304183,0.001988768226827905,0.02767693919307611,-0.015543747645808558,2.52
-0.1145288476706889,-0.012228803042036118,9.666094279890945,-0.0024587406188611664,-0.009296203392523895,0.003620949917857396,2.5300000000000002
0.11783507695508955,-0.004455221078622449,9.868582136544086,-0.028510844093597387,-0.013259141920899721,-0.013072146945628594,2.54
0.06639423874524734,0.11857125425588975,9.865513819678817,-0.014521620372328016,0.008457107110300732,0.0038569010387344135,2.5500000000000003
-0.04596133859733885,0.09401555103361643,9.645385939818189,-0.0069670999924080195,0.01896866755195349,-0.026415520173933112,2.56
0.0312451831439111,0.003585624370620154,9.898086542430475,0.0010908594882222903,-0.005490368428800034,0.007776109928346147,2.57
-0.03228738138642919,-0.036290499014573444,9.720720549322431,0.017562495364997648,0.001834374840101716,0.003532520029126084,2.58
-0.007489366050387052,0.06366399643302145,9.630968630643933,0.012175338807705985,-0.009585116547776842,-0.0020465258044254308,2.59
-0.05165076377774347,0.07041728667108478,9.644453132140846,0.008617435960487509,-0.018771435354482877,-0.0008758686938566427,2.6
-0.015106546868580218,-0.033718010658262944,9.885925220598427,-0.002005529608869756,-0.005214306877333009,0.01163362302194717,2.61
-0.08751110382185927,-0.04206971506193833,9.99375932575444,0.02054133752858935,-0.0003472756732718978,-0.0088895260860476,2.62
0.16146197309831478,0.045095388728873864,9.728558015230801,-0.006635513791585383,-0.008858721256391104,-0.009482343727870348,2.63
-0.1449107173122682,0.04738302166916397,9.73337546970708,0.025413581480380785,0.0069044521169048766,-0.006783311805232807,2.64
0.08090226313666372,0.03998196395328728,9.899445211821169,-0.003443228556869921,0.003727312569713376,-0.006264862020112398,2.65
0.09384974883333495,-0.08021356433987976,9.696572412897691,0.0007966462062126379,0.0191309396703426,-0.009467309429803733,2.66
-0.01804144301533769,0.09965355434581763,9.778268883438722,0.014243636303333876,0.013246917980749685,0.008380344030245752,2.67
-0.008139282633938897,0.025183232905489357,9.655358901758245,0.008432929836001028,-0.009037592223878186,0.019242977828247007,2.68
0.03417895341170011,0.06137057808022928,9.92132425890314,0.0007318810605971684,-0.011507015924283461,0.003972107769789698,2.69
-0.12257554190318785,-0.025422872851654933,9.626577796719278,0.006313284039827659,-0.020921925392761685,-0.011408829505270302,2.7
-0.048846737757433714,-0.07664352709011228,9.851116082437835,-0.005404290357618253,-0.004478744190017415,0.017239421677264968,2.71
-0.06446938791525537,0.042577598726982226,9.835672831839338,-0.013663898905040746,-0.01000340338696736,-0.0064252200853328195,2.72
-0.09022554247321789,-0.04563146061337836,9.806316356709356,0.0006313848888336357,-0.006676000662339483,0.011873079746641748,2.73
0.01646866421229643,-0.039980767636003826,9.993123589266428,-0.0030142411337620695,0.0049914190901356745,-0.0042474571805421555,2.74
-0.12147889637298769,0.011218898228998662,9.899975610141668,-0.012794310225783298,0.0022138288588966224,-0.019705384789242893,2.75
0.046178554193288784,-0.07994196564390693,9.90353020861228,-0.011142003747720857,-0.005185045254748346,-0.01539767941401447,2.7600000000000002
0.016330082251659977,0.12748301978412488,9.733429806464018,-0.004576080393716428,0.0026318807881541653,0.0062694334352279505,2.77
0.01878865360183599,-0.19091127989443468,9.703984071009819,0.007415188425579741,0.0017925002921769123,-0.006326465725154496,2.7800000000000002
0.15178156652479055,0.033901148004027125,9.782836294825634,0.007833119743370955,-0.0023410903740684664,0.0011552304937498619,2.79
-0.08922555929637517,0.11872325240758995,9.864261639605052,-0.006987918218127809,0.008430922717870638,-0.008880821536118712,2.8000000000000003
0.09989743409632046,0.02648133119332823,9.788936054682093,-0.0003599320248216177,-0.01434114462921863,-0.004488952820422712,2.81
-0.0988349411778861,0.2520518500037571,9.871823949257458,-0.003650386890364304,0.00033376235712029355,-0.006276244427969212,2.82
0.02863148098543372,-0.017531198758347393,9.810246147646092,-0.010027834800123463,-0.010536888095494475,0.014605061754673177,2.83
-0.012651044289236208,0.054840820956110974,9.90437160079035,-0.00606102657409474,0.005706826455691598,0.0061839860497501,2.84
-0.0694281722959426,-0.009132629879513512,9.835584197801543,0.01266750347826393,0.01597610899341453,0.017375789032081205,2.85
-0.13651121679742584,-0.05184417370023099,9.629024401370254,0.00639224155060296,0.0020161812631605386,0.008007921369135614,2.86
-0.03475191744513619,-0.07788156699665916,9.572561371667463,-0.017435235729407174,-0.007192745196836288,0.015884279359632346,2.87
0.03855441606695775,0.01224149997901482,9.885797261901088,0.013068407018662374,-0.008884147254338972,-0.00480943323463524,2.88
0.03734921876303118,-0.014105408261767786,9.985175485202447,-0.015920163213748034,0.005418570474545724,0.009966744510359863,2.89
-0.0017599623951556676,-0.1088250704582837,9.820453082373911,-0.013546964328486993,-0.006834944476116002,-0.0026401125438009817,2.9
0.005860294280814943,0.005994258045564069,9.71776942713153,0.009738349961596221,-0.027088421781088657,0.01615128684246069,2.91
0.09399733062729583,-0.024063930119050652,9.764078387209558,0.005243560767356992,-0.009823494332932522,-0.008133818316617558,2.92
0.010556867016754045,-0.11890041656090272,9.677223829319706,-0.0081004081765414,0.008193155725432173,-0.005340604114544956,2.93
0.04469738703777189,0.04558690045846423,9.80293751477959,-0.017331126296032055,-0.008344339935482024,-0.01134185784306758,2.94
0.1625678547179571,0.0033539787221963054,9.754365889503454,-0.006763189175729961,-0.0075668058231257935,-0.02431241458576993,2.95
0.11204177536046145,0.05595294318990806,10.003439385164903,-0.0034247949052066498,-0.0022161896512251813,0.006048555648258252,2.96
0.037165166688186875,0.07067703362005075,9.802941248534802,-0.004510399553387523,0.006537252331539312,-0.005072378198203419,2.97
0.1228695789749414,-0.06720585776455834,9.75936320837945,0.005338932115808445,-0.0017827417099712233,0.010718370609469285,2.98
0.05601951905576679,-0.022060243739816056,9.912449236662924,0.005651771925815123,0.0016976422385239524,0.0010270605529641723,2.99
-0.05040052085385954,0.03887342752533058,9.923797720488281,-0.006430477085186701,-0.010003550032518673,0.014060967167195036,3.0
0.011509913044926873,-0.010276042088357888,9.758297320679139,0.00797060859337331,-1.3793984952109156e-05,-0.011312118018583412,3.0100000000000002
0.039116938929939504,-0.03962968406828005,9.777488123194635,0.002444920933474034,0.0037037191683397565,0.004854688054447527,3.02
0.07169793715286128,0.02620667371521824,9.876919105431886,-0.006497073770770828,0.007308240033131939,0.005522714523252877,3.0300000000000002
-0.01449593896937049,0.03620577656261533,9.868988857647086,0.0013131292148334862,0.0036127399347274337,0.0077522104401362415,3.04
0.08375517889174976,-0.22466667985194447,9.835132176570196,-0.016042809837774723,0.022075369435324208,0.0032068651905352887,3.0500000000000003
-0.2116636855174021,0.13533704856930587,9.660801562313317,0.025573695351385033,-0.013181007267023787,-0.005552854161070734,3.06
-0.1075732662682739,0.1182655650049211,9.919297545582463,0.003656930203815631,0.0029415438032734066,-0.0007842457422312614,3.0700000000000003
-0.08287654449694835,0.14498141847552712,9.902952170617342,0.013036591096468689,-0.004710682435771243,-0.0034155592964205633,3.08
-0.013666769754156592,0.003513114653243451,9.836397806727879,-0.00982858778781409,-0.010485082388627607,-0.004782857899480726,3.09
-0.011743919131998098,0.017529801699206954,9.936493834089504,0.01570499143242949,-0.005748234825113674,0.00022764146289180472,3.1
-0.07348696335428893,-0.08096619114860455,9.742695947234155,0.014447872268804307,-0.005096362952380458,0.005464281455209893,3.11
0.02850119396140496,0.09013253480305716,9.692020262330415,0.018042307385052577,-0.007553057705466335,-0.0031133874135083517,3.12
0.047156522151018225,-0.11538007730873363,9.835840015049824,0.0020984022539844386,0.005685477942751457,-0.004144267551531841,3.13
-0.04368144933442263,0.06137298293504071,9.796553232474615,-0.009398284408799303,-0.015385326193188938,0.016174587002232472,3.14
-0.04294065585219095,0.14274771831287908,9.727073170628488,-0.009497862264041874,0.0071548618404152975,0.00820511042888445,3.15
-0.09782809562031719,0.0951641589195078,9.862871207243439,-0.00814824242229401,-0.008592370943482018,-0.005574029570668199,3.16
-0.016388619613497146,-0.02335976599830751,9.791187044802875,0.002251095844623001,-0.026628205733015928,0.028776509672974397,3.17
-0.03531881426704875,0.18743016730621076,9.689506405539428,0.003139483207337977,-0.012163514380901397,0.00038752098801644576,3.18
0.010904394690088914,0.08767003294742365,9.864728103748417,4.8104625510114115e-05,-0.001393863654802019,-0.0019300500098389695,3.19
0.16492991224604686,-0.2060176758026271,9.662754139708303,0.01196989251815481,-0.011994627941117197,0.0007165292616700275,3.2
-0.03174697828727384,0.0705383960513636,9.918262780633087,-0.001127072963020936,0.004845098078068258,0.00789729047079786,3.21
-0.1935402877788391,-0.03065347352183337,9.703824508366761,-0.00789804192344157,0.016695834461049785,-0.009275926530367209,3.22
0.07457217090886242,-0.06244627439366009,9.919695608647997,0.005289543549378911,-0.004344493492772158,0.011002482793461063,3.23
-0.006190314564703383,0.030283458877124615,9.857467728238882,-0.005515801237604653,-0.012644144934005909,-0.008638069863826422,3.24
-0.13295996105965735,-0.04708329909702483,9.875760972088823,-0.01775368207942263,0.016801005256226582,0.027993088777706263,3.25
0.13503035256095983,-0.19875046214939662,9.861635056795263,0.003463077932196228,-0.006201850897130833,0.004800999947997614,3.2600000000000002
0.02628368295051081,0.09442057232616344,9.808503860381949,0.013037600762173116,0.0008034216650707975,-0.00602625957626298,3.27
0.014518442829784789,0.010517823019208764,9.621769834274271,0.014592107074958624,0.002075360167352612,0.0030414060254879633,3.2800000000000002
-0.05675744677142003,0.012861351092214732,9.836693800610353,0.007223044140467511,0.0032355936144797984,-0.008404153251235455,3.29
0.02020127814216624,-0.07635562859289255,9.94416177084336,-0.0001285637105701703,0.013080795413986624,0.0025070594843528775,3.3000000000000003
-0.11785187406173658,0.13189953993816336,9.81975890582766,0.004016422695447192,0.0024259613958938983,0.0020647151624492857,3.31
0.013899683810867178,0.036224867301540134,9.629244819476186,0.015306971918247652,0.026048259318910413,-0.006194084240528344,3.3200000000000003
0.20954800819766467,-0.1943003615731942,9.775394386439947,-0.0057567676674416726,0.005589808843071007,0.022079243978194964,3.33
-0.054356545282840035,0.09792901853217453,9.887069742913638,-0.006150214056979001,-0.0012579232433045124,-0.003674869843433841,3.34
-0.08147260415087992,0.12095764294675174,9.72905850595802,0.007574924523953911,0.003295190976382866,0.00357335965333073,3.35
-0.009473284737727128,-0.009014749487933195,9.776210894780656,-0.006198341750359853,0.0020512181928286385,0.004998369895310746,3.36
0.13886963570908392,0.18077354191753947,9.752895006978955,0.00894536792669564,0.005997516415096925,-0.007135995845263341,3.37
-0.03846750881118917,0.06447498463980543,9.764088459874506,-0.020887015113674145,0.00364137450053464,-0.0005117027856058037,3.38
0.1191052265120412,-0.032680955884760846,9.616054945454938,-0.0010756492359114448,-0.009069156806601121,0.006676839909445076,3.39
-0.11275059565878515,0.08947239253888899,9.790075447411152,0.003972742315928364,-0.007871359294579373,-0.01311000783157347,3.4
0.0007888457270919975,-0.14455701114870653,9.753583746541388,-0.002700081083494525,0.006638222719139942,-0.001742251272794905,3.41
-0.02568529512130312,-0.02834252056983516,9.743895118162945,0.00793172393609545,0.0082552599978784,0.0066511588257413936,3.42
0.03297644180301942,0.06718023817169841,9.91434500476827,-0.011721763799611148,-0.002978856261527866,-0.0037450852903458836,3.43
0.015239271400708854,0.06174593640063193,9.798354924932589,-0.0022984284136796417,-0.0034543548017309496,0.003548230297253976,3.44
0.08801097857566632,-0.07102883630787991,9.901577092020526,0.0024217128703797127,0.011071214079935006,0.017977253154468128,3.45
-0.18663604898249664,-0.0385659485762789,9.80905380544047,0.010079238605445502,0.023156557427653494,0.004899479571288761,3.46
-0.09724517455519996,0.1316725738290521,9.797808641717355,-0.00044404138020553367,0.015055136624488704,0.0033603569628777906,3.47
-0.15234237015509033,0.010782439804920578,9.747042518621669,0.008625217675598738,-0.0038032356251442453,0.004370827453333922,3.48
0.008303354635319614,-0.028877909055663637,9.744316025134419,-0.010383572691964953,0.005327338933675587,0.004970614315722299,3.49
-0.032501550441605374,0.005290518731935277,9.913180561946339,0.0038128055757844347,-0.01056718504214107,0.0018789492645519155,3.5
0.027308366794446867,-0.01909476849381274,9.82793998518812,-0.018447957254176413,-0.002369159888900474,0.0038235295001748525,3.5100000000000002
0.03958626641135946,0.039456847950557844,9.950510070333465,0.008234336434054537,0.01395352325835029,0.00431530693291689,3.52
0.04205991013981678,-0.07674163470922317,9.714099758545085,-0.0028386614617855765,0.0039469610490163315,-0.0016908473458612805,3.5300000000000002
0.012463368838787148,-0.09905579674598991,9.650566194504005,-0.004580804158893136,0.003756054132079778,0.007796260747746641,3.54
0.07212207909988745,-0.13068409084422555,10.006872555226398,-0.0015610099901731843,-0.020623891988873926,-0.0068764702669787525,3.5500000000000003
0.0758112864974829,-0.1968179447954923,10.09163537048162,0.001221151660253278,0.007711154831983055,0.00363220301170391,3.56
-0.03300779190609612,0.08854964453314855,9.863404789357793,0.009611629917601295,-0.009686500918537322,0.008658029014443265,3.5700000000000003
-0.012879453515351495,-0.12567696302404566,9.63246238174312,0.005478552631151207,0.011099934676516819,0.012260210164217687,3.58
-0.026156971190863066,-0.08439873074992005,9.852206270398046,-0.0019231118538759369,0.008598872956755514,0.0031141590334046077,3.59
-0.05011471575324129,-0.08984754940638763,9.734413002489848,-0.0002563972265007648,-0.0029210206206434102,0.0014539641400351413,3.6
0.1293077767647037,0.10997982576454216,9.68150200995002,0.007803246393852179,-0.006508382260968231,-0.007923430170894261,3.61
-0.006617689331097527,-0.09524126568601382,9.849737605553795,0.02005216075562198,0.01761414912420583,-0.0043496163087589365,3.62
-0.19539023672826075,-0.01407252202648085,9.8348533275192,-0.008803753544150323,-0.006235130146516802,0.024684313213425933,3.63
-0.0172416458906582,0.019645708844236536,9.85683681375332,0.021292753094787113,0.0010035195565166945,0.00618945995704968,3.64
0.02985633586160072,0.04855535944530481,9.678183371928572,-0.005201870283313279,-0.00013291784238290836,-0.00414021837428439,3.65
-0.09677894691599068,-0.1444559766904842,9.676205070813948,0.0029739398137844757,-0.006836471820281428,0.0084590917062076,3.66
-0.16717704866139135,0.04267867587733923,9.768522102935378,-0.0006937399731244677,-0.00859202900948391,-0.022527997076786165,3.67
0.12038379747663108,-0.028973845675345913,9.616679932395492,0.010830632553431046,0.006050641054506848,-0.0028906009596257666,3.68
0.06419916484448238,0.008981472131034257,9.726904863759966,-0.009886479935965734,-0.007447773234413142,-0.004491216155101454,3.69
-0.1266961218185312,-0.04500215280640339,9.842448146238064,0.013744007724615676,0.014819474695770437,0.0004459977611340191,3.7
0.0042908568779983615,-0.11007632200003839,9.785547285437982,0.00992795400850668,0.024443707307570266,-0.008886313879551504,3.71
-0.054471179137498195,0.014437386788148297,9.65167474925809,0.0014687354663396588,0.009403278993590638,-0.0008289589429833179,3.72
-0.010521060821241615,0.07975733748043169,9.777225546560077,0.010683572416203673,0.007698989268859126,0.0013987749070870923,3.73
0.2010867486094151,0.09598532712909974,9.87632881591576,0.0013826136561160235,0.007291929849924801,-0.009401554536786476,3.74
0.052774078753095977,-0.08273906389580987,9.918042723307291,-0.024027077291646548,-0.0009843157610787178,0.012868430535407939,3.75
0.08965141085192974,-0.20255420840278485,9.668706785268006,0.0054216805795453335,0.0008693889882464606,0.01844966248391527,3.7600000000000002
-0.02040513427578363,-0.13547000337655257,9.85105259347034,0.00984409291244055,0.02045245489551792,-0.0026875386239937726,3.77
-0.07631101568564996,-0.008021977843892766,9.694630990997473,0.006955127194115155,0.007736402560491905,0.00018651965048653351,3.7800000000000002
-0.00672284979421984,-0.09766419786365466,9.80697185951006,0.002085374862695482,0.004753005976375091,-0.0003611743993932745,3.79
0.014931139136244501,-0.01860773934150979,9.873005264190919,-0.0005046487026337031,0.008664713271232059,0.002733178911043449,3.8000000000000003
-0.08232834468588451,-0.13465076223273795,9.75609578159787,-0.005881148265596024,0.0033394302590095586,0.006434680058753674,3.81
0.05809441286311338,0.01819406613005355,9.79204633141288,0.004731849600126277,-0.010247481214214413,0.010764873142164202,3.8200000000000003
0.02315286691406582,-0.05985638422218059,9.978585515331769,0.008007849222761472,0.015100282371267083,0.002734136578838778,3.83
-0.1227099938808854,0.08702078438207764,9.881890243250378,-0.0028761275036317574,-0.012030545569943875,-0.00236021825911408,3.84
-0.16967117606437948,-0.1098591778793794,9.814951072057893,-0.010229007352623618,-0.008698023831698714,0.0031773665770812223,3.85
-0.10182065099309563,-0.005631933739628629,9.637161329249642,0.003978873207617448,0.0026369115791640995,0.004291626285506628,3.86
0.010013392824842217,-0.13591201183417448,9.845037568545619,0.002073888484149359,-0.012566130815718224,0.013696030651870552,3.87
0.28013215815548687,0.03781947498371303,9.662106314038725,0.0029647292626770972,-0.012951020490589792,-0.00438709628374653,3.88
0.0797807232450656,0.11177951525584169,9.764845277013789,0.012153961057525543,0.0026411861075618702,-0.0007552849126833073,3.89
0.05676981171166713,-0.07824562410013972,9.763930441057022,0.006434685033868876,0.01861454644831445,0.0032930792981687163,3.9
0.07056445165094806,0.0621402782881514,9.9370030463242,0.015785894476382147,0.001453857933233499,0.0037119391298713277,3.91
0.04480124053444555,0.2996017275570661,10.038202611987579,0.012664491129921985,-0.008562986377680736,-0.0009932610831764875,3.92
-0.1527219921040207,-0.0544902272226525,9.750885268120728,-0.004687715153204009,-0.003081713245257056,0.00878505938048225,3.93
0.08771640188975705,-0.013171638572811652,9.763134452032816,-0.0054317221039361895,-0.0033219550324501456,-0.004966090791567145,3.94
-0.06977284441887749,0.017420836041269972,9.767209239159916,-0.005480069039059498,-0.021209731729225897,-0.002780581585689782,3.95
0.19736313175207865,0.015869087439154203,9.798594020168366,0.002319724862474383,0.0061106254200851955,0.007476659816126685,3.96
-0.0454475881075497,-0.042000068760465255,9.796060050816827,0.004845338493515698,0.0006882123577531494,0.01487722213264176,3.97
-0.11515980609502724,0.056186827877174966,9.878198481404368,-0.005811163451706353,-0.00787649128839273,0.000924968345745782,3.98
-0.08305883421534026,0.11544751062127585,9.80147088558323,0.0015705974540772183,0.00345469198355718,-0.006030602631188197,3.99
0.1094604807070702,-0.18132456026106392,9.61118558554886,-0.0008228235307092753,-0.012819499083708639,0.007395832060073743,4.0
0.14035264471920977,0.10497280571336565,9.759470127338284,0.01790538167373837,0.009649453111268441,-0.00154589481452135,4.01
-0.022613817254245074,-0.011274741548139946,9.945342869959994,0.0017797764882623766,-0.0013640522644766324,0.00922742345064457,4.0200000000000005
-0.013388932965003961,-0.06635941652692316,9.716162161521883,-0.006383748782682955,-0.01941610812232342,0.002264807821844818,4.03
0.01222652245937447,-0.12465359127158292,9.894281167557727,-0.0011074061687100616,-0.0056301188982017525,-0.002331459307296307,4.04
-0.08974398179836408,-0.022643062892428633,9.804462491185086,0.02269981303394795,0.012851775211925084,-0.01733822449399451,4.05
0.11724753535743782,0.04383708390990349,9.783541983963952,0.0012128678648589818,-0.002274883832034124,-0.0172416358525983,4.0600000000000005
-0.06498965675640711,-0.05224188448358679,9.651525896363738,-0.004466916684969058,-0.005004562713591669,0.003378038667834147,4.07
0.046932237527265386,-0.006567746982481993,9.661262949809833,0.0032863221562481975,0.022831932829378898,-0.005414352829987258,4.08
-0.08822124227253009,0.0077985138441309405,9.811687196708675,-0.011046471368219206,0.012399547271303964,-0.01336712914108416,4.09
0.036970798673068704,0.04135053105478999,9.902961343934692,0.009734898513862719,-0.013793023947601988,0.008453307799371155,4.1
-0.002483930749312523,-0.09724520110146773,9.838694216738384,-0.0019688566269621425,-0.006521838934292967,0.0026511513261387753,4.11
-0.015689737352128197,-0.10878225071896047,9.926729270586552,0.0002633622218100165,0.02173280795530341,0.012483876926152049,4.12
0.05280987131293128,-0.0697257851160345,9.76416791056487,-0.0025946330764142593,-0.005271779861608781,-0.00412884745861826,4.13
0.01835370259266558,-0.04055497519077544,9.82724954892103,0.006533955813182286,-0.0036748347505197554,-0.002116695659852353,4.14
0.009476767533020639,0.17746377182426587,9.976475660770099,-0.018115881178909384,0.014377515935718439,0.0018248052110251178,4.15
-0.038429139666913845,0.10397726204160254,9.690212878042074,-0.0007540409357683877,-0.0019897955346380998,0.003911751437505371,4.16
0.10663549133677071,0.18589101051774296,9.685017913976703,-0.008779665236116991,-0.005053828822402533,0.00682265024450046,4.17
-0.032435897682024116,-0.04655122996289658,9.759659647502142,-0.009535816371092689,-0.003498503416075702,-0.007274586313480272,4.18
0.07160175270833234,0.006426774464596725,9.789897122419678,0.009232303187338108,-0.010103697370393119,0.001398270843153675,4.19
0.1351821595958239,0.17088517994607388,9.792206784411576,0.0019547253374636664,-0.0021606716201046827,0.013975845147325323,4.2
-0.14171265962268123,-0.09614201916831779,9.792030488134705,-0.004948394503240239,-0.011073346282117143,-0.011021337493827879,4.21
0.03172923307635224,0.028530596619275424,9.745872841692263,0.0031614227563547693,-0.007178102101258147,0.009788390512638879,4.22
-0.1386112796009108,-0.05617367372521427,9.922742002004808,0.005814880269605172,0.0015658347049837846,0.00812714587940868,4.23
0.023111812876500618,0.2622181048058773,9.755130935720983,-0.01055047746104749,-0.00031413425518636736,0.009054850217427057,4.24
0.13120734111637852,-0.0025016771713098386,9.951094135911266,-0.0005902840169098751,-0.003060674282809077,-0.023192115648148295,4.25
0.025812584041342346,0.05024944430012706,9.850996832195602,-0.0014842146468288153,-0.010251425881917266,-0.019005072546084148,4.26
0.008725051063352203,-0.008276573158037603,9.77538474087521,-0.007568553259676179,-0.007751100730556272,-0.021994676395433465,4.2700000000000005
-0.03395577669676784,-0.0098696292146177,9.828975917610276,-0.0010916798419564064,0.0013836757528490349,-0.015392490710772942,4.28
0.08096994608410144,0.056363621247430364,9.794729588821149,0.003684257758421726,-0.010598226232530136,-0.009283494784280739,4.29
0.04759917096497341,0.15197272074491538,9.80658951169693,-0.009823027545956644,-0.0034655169313998592,-0.0034566884149265058,4.3
-0.017678227641911553,-0.10587029412457932,9.852014441080192,-0.008086292064420693,-0.002087504075636754,-0.0038569355404745233,4.3100000000000005
-0.22839015983546448,0.043963645116743194,9.797964120271605,0.01309548855470708,-0.0062726383702945065,-0.0029518375336855937,4.32
-0.10925662177500664,-0.03953423869175361,9.585948085100233,-0.004350977484701929,0.0004527804940821585,0.017941544456433655,4.33
0.13207174464595073,0.11396156274559786,9.653516472226503,-0.013980594315779827,0.011754727695019165,0.007903320909834682,4.34
-0.005870741912710237,0.04944436575397648,9.849186702466799,-0.005489356500410722,0.005113369674487913,0.006867963741508153,4.3500000000000005
-0.050130448132368305,0.1365062255364947,9.765422821549091,0.004582488047544098,-0.00846047970223648,0.005210781271256647,4.36
0.009738595500079614,-0.14087466714747413,9.800861812892089,0.015260998521831515,0.002108641481793427,-0.005068402546196824,4.37
-0.040618237176066205,-0.21684881967082484,9.775965221052756,0.0077527217363137805,0.005911151366428086,0.0010471846653808767,4.38
-0.1660534021708059,0.09927529094507474,9.802724842949383,0.0033705008948232886,0.0074547980635515185,0.011382336987155755,4.39
-0.030862926196640907,0.10979960249613717,9.914499698969397,0.009587237895401241,-0.011701790268449237,-0.0037374329050300433,4.4
0.04876267676774562,0.08697349944787064,9.73567750164425,-0.010987235280857415,-0.006117546671176104,0.005648808638281798,4.41
0.07747249024442604,-0.04045344245429561,9.902336087760371,-0.026915958956070955,-0.010349793434811762,-0.017099311980301592,4.42
0.08214268165889156,-0.02077273484405386,9.707226813555895,0.00523071747886902,-0.012549079018018732,-0.01364497523089072,4.43
-0.07925560206183867,-0.07478703791248069,9.721875191873949,0.008746005405022168,-0.0034011326324220052,-0.009271501929934289,4.44
0.001969671446273763,0.12063543880293988,9.79836321788228,0.004510665395356269,0.0034124361141857217,0.00924529610898662,4.45
-0.02430285088338792,-0.09750229847378211,9.83722007856584,0.01118014501619595,0.007611395490846733,0.0007344494131863746,4.46
0.1693013799509939,-0.0313452723117222,9.787871980640041,0.0014790641914155017,-0.003939770920307724,-0.016000014305405586,4.47
0.03483931302154846,0.058379925008952595,9.996309375689268,-0.01005753310862777,0.010158009311778207,-0.010285028396536127,4.48
0.1906787829369926,0.009196019840308834,9.843099066563525,-0.018355678124054527,0.0014786321829231856,0.008983584459176734,4.49
-0.10385478030625435,0.058334088695552115,9.715703558264657,-0.002874587213141974,0.008215683553028019,-0.021615137493068728,4.5
-0.021014279490381677,-0.03374257646584919,9.862598264452613,-0.0004266081583571172,-0.021991696945906986,0.009570465859551317,4.51
0.06742632946246992,0.1550404707564704,9.842034562255098,0.011178264018079975,-0.0020582098946194858,0.007087680285907452,4.5200000000000005
0.10480131269630717,0.1478033492902748,9.936936340406017,0.004045816460025511,-0.010145574802660758,-0.015887540068263,4.53
-0.1181480250881408,0.0412084369201357,9.823691125686173,0.006320850854574214,0.009268276603421215,-0.003981488396102916,4.54
0.06884492436324827,-0.022459064144111973,9.753256819615894,0.004215050080097836,0.002545556730678794,-0.013088099214524236,4.55
-0.010716444021309841,0.10259119513443915,9.829535090464752,0.015017920334724965,0.020247965373001865,0.014532103766740481,4.5600000000000005
-0.07971296161694377,-0.042552119050219356,9.790490792824976,-0.007052367016641953,0.014522794285021588,0.008309844987185936,4.57
-0.09319529659109424,0.11546569064381858,9.786808964510461,-0.008144824328251756,0.008661005613448063,0.0018999866514236867,4.58
0.050548710141176095,0.13919756025455932,9.712610403054287,-0.002749504591863476,-0.011550644987842031,0.0003662243229886992,4.59
-0.1298096338163732,0.002758567372110891,9.860301711425084,-0.011493233547393658,-0.004153878434080396,0.0009509886185286934,4.6000000000000005
-0.23778071504351217,0.04966987225453515,9.924469730312289,0.001476264597234058,-0.011953149254253599,-0.001325359387707776,4.61
-0.1676580743057288,-0.18897101881867287,9.839755218919073,0.011354869426952137,-0.0010341097946375824,-0.010647563857758986,4.62
0.07271836393419989,0.06693857344557579,9.620132757244518,-0.006657596245002854,0.008487991060270338,-0.008127791310245814,4.63
0.08580982383555469,0.10352508435807675,9.807410288560947,-0.0077962181045263595,-0.008192595794985049,-0.005150259317423911,4.64
0.07964780670042532,0.012583457324157242,9.816741067757134,-0.0017202649691404643,-0.00684926780771414,0.01253767812142963,4.65
0.14705440291131697,0.05834968879069741,9.787969787937454,0.0010760984038153257,0.0037807266708079273,0.007288545401986965,4.66
0.11821347874395041,0.13957532877561557,9.703177683683396,-0.000838361638305169,0.020345648525549306,-0.014593040504615011,4.67
-0.006047734966627718,-0.10637866088530112,9.867021856501786,0.004358542589955051,-0.003450435430990523,-0.007228159902698057,4.68
-0.06625805097740689,-0.06016604644105794,9.913100104507402,-0.0018017385033180949,-0.004328672356008797,-0.017891396800455303,4.69
-0.03422429200659522,0.03461778432283852,9.890192768199208,0.005758294942444091,0.0038869326140226553,-0.009126139826905352,4.7
-0.13470145517900176,0.07433972099665624,9.655665941003663,0.019707615242544652,0.009348695166555428,0.041244737986323846,4.71
-0.10071935345258907,-0.04127290816428591,9.852635350497561,-0.011101157422542257,-0.007415999556385185,-0.008133507901730976,4.72
0.0740915640790753,-0.10539268196483692,9.742992725023987,-0.0031057108179768085,-0.02160374347067638,0.006342545053877329,4.73
-0.08819535563807006,0.1072643001739419,9.810110467034423,-0.0006276286419921341,0.012959623743198177,-0.00012110451158462283,4.74
0.0054763113295580425,-0.04186058728921357,9.995710971924083,-0.0024027100560990683,0.0005790968879014198,-0.0064556448262690904,4.75
-0.1409953629744571,0.08388320495871426,9.793321872865107,0.0020112056836306138,-0.003139611210833394,-0.010646926730284719,4.76
-0.17673472513848945,-0.1349165142468994,9.824233359017779,0.007865938830734637,-0.002733623699693914,-0.00801672749941201,4.7700000000000005
0.0921023843314415,0.06428371196360115,9.938756635200763,-0.012375897448659969,-0.0066406356325335175,0.01186693622946857,4.78
0.018858624842296785,0.03318154958024309,9.670075762521545,0.0020784827237367224,0.006646748782348827,-0.003931228899198512,4.79
0.044046074918090795,0.0388163569989379,9.83716509080778,-0.0006633800039257163,0.011975399539934366,-0.009505631178573313,4.8
-0.11971222877783481,0.03207799602943715,9.628504756290186,0.00032170328848466303,-0.014494617722867269,-0.015915527721505326,4.8100000000000005
-0.06530813067763065,-0.031427853669702764,9.945977345719218,-6.439235201291124e-05,0.005615838038627633,-0.007313062946512495,4.82
-0.07007025064560289,-0.08991152736723405,9.65550671088699,0.0073885311677721445,-0.017776876367796998,0.003896345803622095,4.83
0.04528686701930109,0.033625586609794915,9.697476287579033,0.003696118228558417,-0.008561120968424358,0.01208598214817889,4.84
-0.18707227318854336,-0.14168030235042176,9.641807764022213,0.016853417142150474,-0.01239070417015438,-0.005146072292402168,4.8500000000000005
-0.2033359579029877,-0.006575922304876674,9.79246684329894,-0.008155975200930475,-0.0026834607340077018,0.005082690462530071,4.86
-0.1141929422557924,-0.12937432167976778,9.751429737347133,-0.00748230472963278,0.0036079755925755557,0.005571140504431936,4.87
0.02651553146956906,0.0064377285957988644,9.750296469546623,0.019202067795698635,-0.0025592532426071224,0.003391066744405854,4.88
0.005866854055547747,0.03797516076516905,9.824348921296925,-0.008970496387981952,-0.0061381388165241526,-0.003464043403368287,4.89
0.18823736453406614,-0.042426719940294365,9.555089723340883,0.004998771516107737,0.006708835128226417,-0.0023373073780907643,4.9
-0.06750168118214038,0.022812002042923357,9.98478608907018,0.001197539039073665,0.005934589916448242,0.003971931177679068,4.91
-0.009676037728168739,-0.05338018345112744,9.852327233843335,0.013641567117646431,-0.0025133770654351658,-0.006304311784437824,4.92
-0.035043723076798004,-0.13920219768607434,9.74596697124016,0.0077984949161905796,0.014267387373783174,-0.0018180070877581971,4.93
-0.04359132488674111,-0.13612247268962047,9.855696090554446,-0.010830418657213974,0.013367599309472936,-0.010618634238959,4.94
-0.1171633894452437,-0.06008221328502639,10.000891870411273,0.0038420841130766027,0.011979925150511193,-0.0015942489444549597,4.95
-0.023428206760947083,-0.0026578744866375004,9.78340150066457,0.018565480771861282,0.016498926157694823,-0.004513177905070618,4.96
0.10202588901558429,-0.055113145009353194,9.732769371435014,-0.0031100970038008373,0.009609005109560358,-0.0009802960865358883,4.97
-0.06938622085270633,0.023822093000266303,9.882394227982148,0.022507206769427295,-0.0031175281612021853,0.0009942931114842143,4.98
-0.06567064664880413,-0.05881249869165592,9.993916921486049,-0.011968339000960934,0.004059126383753622,-0.007989542624324894,4.99
0.20471612533223446,0.0593280228290242,9.695681837876386,-0.02094819993908332,0.007301406547177187,0.0006453633919356948,5.0
-0.10980023604640006,-0.02196984271866783,9.887210727365947,0.01418093988292986,-0.0029920098933175748,0.008219632461057653,5.01
0.06424093224817039,0.06496469930182477,9.81248211087038,0.01152831145424605,-0.0011166521124409893,-0.020559239764608796,5.0200000000000005
0.12811955156600266,0.05122393985707775,9.802997592015599,-0.006288843373944855,-0.007167876572883623,0.011491059396428218,5.03
0.04771346267015292,0.028654322493583295,9.989101554261262,0.00888887049362577,-0.008906469246818849,0.012205576880426653,5.04
-0.021230635934923886,0.07806722564957508,9.769285946241137,0.0017528755235753488,0.008045873632907256,-0.002367261371820903,5.05
-0.02739938865809276,-0.018629564220293625,9.651129285497172,0.002717021739105897,-0.005621018043972988,0.014984648894569404,5.0600000000000005
0.22913287460435142,0.06019761002854356,9.631612160113693,0.008525217852211511,0.011327599536869643,0.0019350771515889303,5.07
-0.010510481798834143,-0.05933960896204302,9.747753154063927,-0.004174858124488643,-0.00014709131233884898,-0.015284958879076082,5.08
-0.002666340700141539,-0.02719119884631202,9.872012699980543,0.011102169259757422,4.775808535671722e-05,0.002462119244602035,5.09
0.07092176075795235,-0.0166052256305094,9.991363132652085,-0.012422022840967214,0.0015222763176942248,-0.011360911636401842,5.1000000000000005
0.03548862251094411,0.025780910920839457,9.65316523306402,0.0031605356151660157,0.004617289270159648,0.005554628545619756,5.11
0.1141174574805317,-0.14115151565272968,9.884364662134777,-0.004009710678360419,0.007333680820877003,-0.011822795626626253,5.12
0.10372788960040535,-0.21661602799046806,9.702575348740874,0.004255938182964052,-0.006078529772565835,-0.007509802861306366,5.13
-0.012045695870398318,0.049385974153070236,9.789962707759324,-0.0005232853895057862,-0.0070645040284590226,0.006292619246577562,5.14
-0.1056732850783537,0.06163363889303313,9.666171083326693,0.013018472939164798,-0.0008309159945068899,0.009841835494570485,5.15
-0.048997120371843395,0.16571880630600375,9.891597620615192,-0.009650602115076566,0.008514528721875414,0.009177683976419273,5.16
0.11396837819588755,0.10808710544524194,9.77315369915282,-0.008629507504562374,0.0036481990179864725,0.008636021831986716,5.17
-0.05054631075390523,-0.05512724001625066,9.70256284586615,0.004769440760742051,0.004235616860302362,-0.009902007459568974,5.18
0.11160481691538622,-0.17092120068203245,9.82052045686634,0.005863160222721565,-0.0007477739865547047,-0.019530956328729084,5.19
0.020214203286451335,0.04969233203975282,9.65004594904563,0.003868596391236147,0.005066879971077116,-0.015359621495556728,5.2
-0.12908502499797822,-0.04780767778798725,9.828277295181225,0.014089337241786784,-0.01251582736104238,-0.0040428968345272735,5.21
-0.09968184835613672,-0.02051640523607629,9.722330830969854,-0.002954799323279337,0.008377142728729385,0.007924336377782488,5.22
-0.034792013142323934,-0.03666000549592938,9.796578061370369,0.010473056444860745,-0.02033848742630639,-0.0046095701468755,5.23
-0.0099807972278959,0.02598088981034796,9.785827294931728,-0.004198896293349583,-0.005395177632856086,-0.009915948843729832,5.24
-0.020109852175374726,-0.0036363569128481095,9.731799133551606,0.0047897562358727224,0.006247063418048287,0.0018102692054965711,5.25
-0.044531065913257714,0.06733952942569811,10.02637184354379,0.0018330484985992896,0.005372293704139275,-0.0016793315166542667,5.26
-0.052846485801219326,-0.038383186810589,9.751767223658538,-0.02077110522164287,0.023277238716174483,0.0023491168214821016,5.2700000000000005
0.020831508922298337,-0.06872522113970499,9.913698545074052,0.010307084770723514,0.003918254829569091,-0.01225172438287597,5.28
-0.11900446303015913,0.007415067789843255,9.847435403841537,-0.010790433888587485,-0.004671899123718657,0.016947708567969552,5.29
-0.022897940670212672,0.08364578731731998,9.896778401253085,0.016149588348570693,-0.009276474775799598,0.0029336466776831507,5.3
-0.1894654944835599,0.007453122008467245,9.874089645300195,-0.016366722586557546,0.021806665994466307,0.032768932944821624,5.3100000000000005
-0.07713713094658263,0.025985624695717927,9.841557416054124,-0.003997604242958952,-0.013429596430792902,0.01226811923532847,5.32
0.038043062970082656,0.06462219818853314,9.665086357023876,-0.0006271112891854847,-0.018004848622990715,0.006561371687379393,5.33
-0.015963018518347912,-0.0982983920512184,9.655445361718069,-0.0004942031584118996,0.010348981588531378,0.010709902490619257,5.34
0.15578359799741068,0.051496050915528516,9.689777992250411,-0.002256095094691566,0.0077382043406046905,-0.0034319253127063007,5.3500000000000005
-0.004006861415464735,0.2320871792017178,9.86978519332438,-0.009342256570333819,0.026771991173081516,-0.013702939109854132,5.36
-0.11211121709962227,0.011527101834933549,9.709793722123063,0.0056393461772767505,0.00874870914306099,0.006084356481272174,5.37
-0.04001935516980908,0.1358841968127202,9.870840220884354,-0.008841576233703513,-0.012082256403693564,0.012616895463580951,5.38
0.004607940985005898,-0.048279385375053156,9.857089441769544,-0.005609279560013471,-0.011409745064111272,-0.006651883081539255,5.39
-0.09778332931453218,0.015639245414150064,9.879902216282686,0.008071862356381543,0.019961777068097784,-0.00749950594539632,5.4
0.27741061057319216,-0.0956642816267504,10.009328746034646,0.001741434939780868,0.009691488255952932,0.010326940018930702,5.41
0.11952454634552263,-0.06072239426862103,9.898444780011218,-0.007881846633576429,0.006287555921999702,0.01056387085249512,5.42
-0.10564395711889414,-0.1440608398391821,9.733172039371986,-0.017672507683316848,-0.005676487829299858,-0.007934274813604704,5.43
0.13928696236622642,-0.07142115982608215,9.848794714610472,-0.0024140637382728293,-0.017333115923066817,0.015531228399290243,5.44
-0.03700511547380592,-0.05465222672137474,9.78856581703083,-0.02226508469676052,0.003642975245301694,-0.02028061873778383,5.45
-0.021579529473033515,0.07515889955149652,9.785629961611352,0.0032538273422350926,0.019806872611542382,0.0008463975737453916,5.46
-0.03207799004251682,0.165152212307377,9.802048208544974,-0.006752080826732989,0.004412453740207527,-0.018704221328804546,5.47
-0.009572189441796997,0.044333640597688795,9.928672731696858,-0.009667863861241582,-0.0004742998679851167,0.0014991510032582804,5.48
0.07661782379962835,0.2166909830572124,9.814417628045366,-0.013758169612809425,0.0011337169982269394,-0.007063722632306756,5.49
0.1684280751010686,0.06401834804269636,9.864939655628346,-0.01093025214255425,0.009398549235937349,-0.012715345804510475,5.5
-0.09007159888318787,-0.008064766544741553,9.862721534944868,0.007940077801625877,-0.010969874420555413,-0.01000320048754964,5.51
0.18138236322720386,-0.15352323660087291,9.919868101611794,-0.007876876344536826,-0.002578159224232036,0.001600806887885891,5.5200000000000005
-0.07579173572722031,-0.007298895780963251,9.997914305564723,0.000451259241285643,-0.005430699190486208,-0.004961976673131693,5.53
0.09481386020777138,-0.012601759296873273,9.751317533812689,-0.0012611451465864684,0.008132681054745145,-0.0153748125151633,5.54
0.06838459758020464,0.21765690764867895,9.843162831424037,0.027747092706432618,-0.013569431063620527,-0.0034617308094631173,5.55
-0.06591133638921216,-0.1398848503794466,9.885557405410928,0.004953808412475356,-0.01278010908240827,0.001908931470381286,5.5600000000000005
-0.01861604405297112,-0.04581938142327635,9.757097709676426,0.02030978722929227,-0.00935064484244479,-0.0015302662717062393,5.57
0.2600083816116101,-0.025224874329828468,9.908682616655861,0.00805416289067342,-0.00025872422371059866,0.011680577520232828,5.58
-0.013505867119576126,-0.09325079361353994,9.771647401311675,-0.0015486107392720153,-0.0097239806544048,0.011308186761574858,5.59
0.06787435994371331,0.022970020364241815,9.74099318543453,0.017770126915867043,0.0002023354801273325,-0.006077003310449139,5.6000000000000005
0.008858763307413675,-0.15342027462898536,9.903477822006458,-0.007789391066198607,0.011089246077472342,-0.0054037848657534785,5.61
0.10455497748292104,-0.2313951868566042,9.720061965647183,0.001400230816980341,0.001165407486037262,0.0003311731767018672,5.62
0.027031657910229375,-0.08729047714640872,9.648424094260907,-0.004607506821568266,-0.012929331358523193,-0.006446715993554025,5.63
-0.09264709668990438,0.14836351799970032,10.04064574047975,0.008909136376845036,-0.0034685688353858065,0.002028198686489312,5.64
0.017401883516304333,-0.1348667455813644,9.811939521483566,-0.0022537316037767588,-0.004191665871054003,-0.006814520647813868,5.65
0.010826762680571877,-0.03935494140943601,9.71805710431662,-0.026149989869138954,0.010020941613998621,-0.002395463667079916,5.66
0.0005315496028552141,-0.009187588459674162,9.990191186476514,0.008383505343763305,-0.004013792005745068,0.0018726285617117386,5.67
0.018735388847489928,0.0054482720091637606,9.693966269553759,0.0014564572975424906,0.00036186709952112456,0.007838545931847069,5.68
-0.008207690891997018,0.07657885495428857,9.669869698834255,-0.009213523073348466,0.013287099173512484,-0.0012085037585409606,5.69
-0.015552934001957355,-0.12522120765002356,9.735153542186907,-0.014974295001776244,0.008227558490736241,0.010566261158118005,5.7
-0.26238917961270747,-0.10659240904480867,9.89346864897974,-0.0016092726818215134,0.002640103016647431,0.007325221011195608,5.71
0.03868751689466437,-0.03497381492244401,9.972935559212347,0.005065391465528839,-0.008643995156176991,-0.0033691033692601446,5.72
0.1849709359039542,-0.06219485475221035,9.778410332150177,-0.004102601136553443,-0.011306629776116581,0.006079971178210623,5.73
0.10081156960558557,-0.08532209911870954,9.93852621582611,0.004754825476253256,-0.00020155706938675214,0.008315730915487807,5.74
-0.08467022306447164,0.03304006545469967,9.807524208613883,0.0020269686478754157,-0.0021917249466272986,0.0014765616863897269,5.75
0.019176989922045605,0.12450128008256761,9.644329355574575,-0.0035308941701158577,-0.012800563140821758,0.014861085700482096,5.76
0.10241897650890097,-0.20174579457868128,9.94676855097652,-0.0006892947661763217,-0.0011922997510446752,0.008252803812345725,5.7700000000000005
0.17441040842517863,-0.08204270847825477,9.770410658531619,0.002870317241654126,-0.017634046427282443,-0.014048614406871026,5.78
-0.13026226669179608,-0.10489026535273455,9.887619522259925,-0.027400914783557908,-0.01743319568715035,-0.022870250555284386,5.79
-0.1718936273048131,0.06933949731349434,9.651811676772882,0.015472922018920445,0.0032728199804595193,-0.013302371685466188,5.8
-0.16691346277117156,-0.1008202294132191,9.784670148484507,-0.0025435317353255447,0.02105031482962295,0.0021474909473277017,5.8100000000000005
-0.0621798629722998,-0.05229706274798555,9.806027496925685,-0.006709590720654349,0.007420798519432429,-0.00021706457829195503,5.82
-0.06748425447672123,0.16592128128300498,9.913423884617666,0.010421200909996924,0.0021972042742258047,-0.004315892752449133,5.83
-0.1374796291229436,-0.18875079855969462,9.645850645031137,0.011106081275074405,-0.008005694914257396,-0.0037456073494667773,5.84
-0.01490249337521534,0.04606453481951323,9.944015870131649,0.0028734764826248683,0.005282029054032084,0.008497812237540347,5.8500000000000005
0.030961707058535678,-0.06773947675213027,9.848168329181808,-0.006144433897068427,-0.0057582212484830544,-0.01411490282273475,5.86
0.16564246131227525,-0.027116980740290793,9.864580566444333,-0.010338757802672332,0.0006360382257498949,0.012701530033289877,5.87
0.16714112742278558,0.12867480722608338,9.812062227542539,0.008191390942657532,0.005050759729121421,0.0013860422162488017,5.88
0.08787261862624798,0.013021217351045576,9.8463397078498,0.01751115314677783,0.0017120796758601606,-0.0003612017386294165,5.89
0.014647619795960182,0.006241495328990933,9.892191601897075,-0.011204891126295332,0.0021188072827133275,0.005789247538822369,5.9
-0.02984311092741644,-0.1580214220906907,9.742725201594537,-0.00753260945324653,0.007537773928224166,-0.005053435829921742,5.91
0.12048002148019384,0.04970614115775252,9.751483575921664,-0.003160158049129036,-0.0027578515702192624,0.00874863740560037,5.92
0.020361464400783708,0.046809530988853376,9.88247454793083,0.00033400838489103994,-0.004102220910882499,-0.0014447282123137082,5.93
-0.06437033375406252,-0.051430936172272734,9.906218165982738,0.019805314083060556,0.00691452652806485,0.003159494624097992,5.94
0.0007637867096631496,-0.03693337729405471,10.050854234395562,-0.0065270656618665315,-0.00720213449688111,0.03264829298192083,5.95
0.006321415872556954,0.0003621749958764946,9.760296323550977,-0.022537167931515858,-0.0001131179039543358,-0.013132123984609022,5.96
-0.0396742022574821,0.0442150758379915,9.628710364367024,-0.002577165173226965,0.0076166590298598884,0.003968038731161021,5.97
-0.023793115420268716,0.04350996753766251,9.790791426405601,-0.00307853191712494,-0.004298496419406611,0.013981450435954569,5.98
-0.05806792047062677,0.18707570855677122,9.688956827109484,2.5269447623382206e-05,0.004260609597465483,-0.010931729197420526,5.99
-0.113448810017385,-0.05255305514315367,9.878441401863103,-0.005264567875582524,0.014453030310643352,0.0025754590243597763,6.0
0.07536456362270208,-0.03401279134050529,9.936794940864745,0.009410584781755195,-0.008020896201581753,-0.009138847948422086,6.01
0.01540373558808105,0.04968337401822916,9.96180465763687,0.025132619769963453,-0.006862940995872743,-0.009875060397800693,6.0200000000000005
-0.049887482558817156,0.038048352818823204,9.833948334719924,0.007266966612105623,-0.00821145471616065,0.022434622352652336,6.03
0.05524388128759507,-0.04539349311517417,9.99460782725145,0.003484467904277102,-0.008605728085553184,-0.0036872567431811675,6.04
0.1845980847741896,0.10786402741628792,9.802453702655924,0.007776709450814968,0.010213196565086473,0.018857941790875302,6.05
-0.10060113442736784,-0.026672247038506826,10.031309594927665,0.01530663555555767,-0.0213522633285778,0.005931388420300828,6.0600000000000005
-0.08363457680408085,0.07091913560287101,9.800590116191936,0.01163194758788566,-0.010319219608153662,-0.002264177688326991,6.07
0.04620966310350964,-0.0042706737986655365,9.736595314185685,-0.0012492460354043993,0.005800607149852537,0.0066029978729913695,6.08
-0.05889801942427303,-0.05296825525655135,9.702703038953572,0.018245057274610257,-0.017051366265867052,0.004261528292031385,6.09
0.0573966299203474,0.1433518480940251,9.833379858917919,-0.0035119030608617113,-0.0005441240197256223,0.008911993677247326,6.1000000000000005
0.023598603604341035,-0.07477337962621773,9.723816851077705,0.006632560801471163,-0.010962969325243098,-0.009643497038745783,6.11
-0.056580761791137406,-0.2562865428671183,9.845623308167012,0.0016372089346578756,0.0029215548358887708,0.0012350479452504235,6.12
-0.04765324149550936,-0.12054708458128467,9.701873374676452,-0.017274415520988833,0.005643344457375786,-0.0057166262405610666,6.13
-0.008426241854706532,-0.05240245363658404,9.79936643164639,-0.004310546906873948,0.023228939015482983,0.008324760103929527,6.140000000000001
-0.080732032072177,0.036527702515886384,9.784945464432894,-0.003033355415197205,-0.0003236481494188667,0.015777196180467027,6.15
-0.04320428581402075,-0.050869639072771415,9.905853033936163,0.0028432298531022144,-0.02283496248029455,-0.0008280069150809636,6.16
0.17413893677716877,-0.11303794242919084,9.95486482456048,0.001031908388123633,0.0040057246009588985,-0.0026354668775720414,6.17
0.04207153044264047,0.11413345247808362,9.899698982090499,-0.0005104716852987629,-0.008637225532649138,0.01990101364981434,6.18
-0.021367166599422144,-0.04470581885662539,9.93925675746441,-0.007851641810850385,-0.0002774786863113268,0.010561448642279215,6.19
0.07813225305179484,-0.05610850282537694,9.79421617698769,0.004889003032685131,0.008036061999766114,0.01449228790936909,6.2
0.057437232692631415,-0.0765701845494935,9.889785689807116,-0.004656939652622886,-0.017189780535466756,-0.0011977925376724645,6.21
0.053850893865399,0.06921121995142486,9.752611457649712,0.0019332399568312555,0.012727221253094003,-0.01362428174777994,6.22
0.01928511929415063,-0.026280833158993763,9.766492344616323,0.0053980114851552696,-0.009695229816371586,0.013928901822475788,6.23
0.1161115335282381,0.0429783810876888,9.835064105873734,-0.005947664070219622,-0.009278486718903753,-0.0069815492139292815,6.24
0.062024902091644,0.020545747878201914,9.742482934941236,-0.0067770504557691244,0.023794575018094014,-0.012056272983020153,6.25
0.014053449605470798,-0.037858520653086605,9.856691640595994,-0.004637874899091273,-0.008416123927398935,0.0058808394887011175,6.26
0.09261072271886034,-0.2808958672359733,9.960698721674191,0.005228611863293707,-0.004308693392203848,-0.019235849648230097,6.2700000000000005
-0.098967655215838,0.044470641494584115,9.703399629481853,-0.006090162560953829,0.006972163087904727,0.009024682695528669,6.28
0.14576228254793552,-0.131149392654646,9.79022952366901,0.007688671391456596,-0.003925456351628165,-0.0028532585588636654,6.29
-0.030051616303628577,0.024196949513133073,9.922686642274257,-0.010337969811915064,0.004553365177988487,0.004309852794424251,6.3
0.036247862738737334,0.07209591753166161,9.772979322717049,-0.007182935145928561,0.017492261090674154,-0.0009268455975695335,6.3100000000000005
0.04453455878103972,0.010283628000940433,9.646236620832271,-0.0051808159719421735,0.006040946155414569,-0.003826266998907192,6.32
0.04345407032774063,-0.026370750078291278,9.793297389812807,0.0019304272139563329,-0.0021667501495505857,0.0005839503682874936,6.33
-0.1351915073490072,-0.1312417838462658,9.731081788988204,0.010254536393224023,-0.0002143491707763456,1.7086525700219818e-05,6.34
-0.07792439111883889,0.19007617384065223,9.780982887856483,0.0022742066554594363,0.004210302367850103,-0.005820125289508283,6.3500000000000005
-0.1661018888996032,-0.03131622584398055,9.957102636868948,0.011947351758675138,-0.002367660981535331,0.00031912137559667205,6.36
0.05406194423636154,0.03631377629723288,9.74622065856196,0.02255701087192866,0.005758244829892397,-0.006045652784929791,6.37
-0.09794206480548578,-0.04650047862953958,9.806867012682439,0.010868311834621678,-0.007069126834743571,-8.016120445230954e-05,6.38
0.009255186429409791,0.08160942088825097,9.752290502105545,-0.0034835050021876607,0.000286054973463001,-0.009069414654611455,6.390000000000001
-0.0696899545823509,-0.06218696416029909,9.735825761366192,-0.029478637928834935,0.004853026483451801,-0.0030066371134692543,6.4
0.06414972361470665,0.027134797439908154,9.69874060635137,-0.007207208556681844,0.007371211758156075,0.007010032420005438,6.41
-0.21851826805055474,-0.16843436383068006,9.949319065983797,0.007251106226113584,-0.008880617118416267,-0.011480813661096854,6.42
-0.16670599643950224,-0.06978252771229611,9.781529134966044,-0.011026882253101911,-0.024120327901885202,0.0054021007701901885,6.43
-0.005705351162629641,0.09408027851004665,9.75647991365105,-0.012372609576922386,-0.00524990583279022,0.009308092040186212,6.44
-0.020587212289369064,0.10639869313831021,9.854341999275839,-0.00921588838564738,-0.0012456433660667065,-0.009791520966535513,6.45
0.027851468661021384,0.17899242962757447,9.751730280996435,-0.001585764257553034,-0.013611938797144068,0.016467931121169566,6.46
-0.17737761617435896,0.044824900680929314,9.740298191380408,0.0018381951522638527,0.005179275013264938,0.002415538271003859,6.47
0.07771788991038316,-0.08030163009632066,9.861869018237412,-0.006530122278020493,-7.148709849951993e-05,-0.0228661701931448,6.48
0.053045883059060085,-0.01174213592398761,9.816689814093653,0.01880911583189669,0.009060758372919378,0.0029782035497044235,6.49
-0.007501205051206879,-0.26416987130379993,9.694680010121804,0.008787798507326363,0.0044161450161860506,0.006865632181360353,6.5
0.17329345982361388,-0.09935234091046963,9.807257433129084,-0.0066956214335990175,-0.014320610607118298,0.0020988516885238544,6.51
0.0027425944564371846,-0.03386578380448468,9.83216376349729,0.012146175760929377,-0.005710330270188233,-0.0061555322050372355,6.5200000000000005
0.12331762499085822,0.1420458233139039,9.834402187235403,-0.012668983182855817,0.0012975688858991219,-0.0004271234375266785,6.53
-0.0004427167445880104,0.17057334011236985,9.858418809179508,0.01447560958523027,-0.006550704459231182,0.002927184675102574,6.54
-0.12104590382400822,0.007383997555458755,9.794285666438618,0.0023238856001073552,0.0019322705480584964,0.006351164446737658,6.55
0.11991894509225574,-0.03574156595267651,9.789844459811135,-0.0053172533324950125,-0.004457424968962565,-0.009732328479533552,6.5600000000000005
0.020390167457524713,0.06861528478229864,9.8025524919223,0.0009909527359568768,-0.0010622700628673285,-0.004821477464148953,6.57
0.016434247643883865,0.09278354009203534,9.855800787240492,0.008520087966215503,0.004076537180556339,-0.011948738118793505,6.58
0.10413790039174423,0.04581481788222001,9.73187216229013,-0.0009543035591486669,0.007725918123437421,0.012517737762236223,6.59
0.05629621764834515,-0.009257781217012033,9.766160420372344,0.008872861443814212,0.0031293560783890967,-6.698831236575702e-05,6.6000000000000005
0.012153106014523213,0.07906367592492948,9.697657039359509,-0.00018659139929646165,0.008764927515930217,-0.016949998049958243,6.61
0.05560697538952655,-0.0754779694701388,9.94031842398895,-0.002001644570992628,0.0009170533012586906,-0.008773021583063857,6.62
0.02393720505143318,-0.09375939122583618,9.685302381704526,-0.0021210602402206816,0.008597850719058395,0.011227689412971335,6.63
0.08949299792440694,0.2066078245639488,9.811678084174646,0.006745044699228709,-0.015955690237343213,-0.010565370707142495,6.640000000000001
-0.060840177273447905,0.11192677438905325,9.825848141844112,0.010149317684906773,-0.0013581545904488193,-0.00450923087227358,6.65
-0.03865936775517863,-0.06727019917134912,9.730106233101912,0.002008020764213066,0.002704313551149758,-0.012086862579378879,6.66
-0.09769644981284833,-0.13521178191360705,9.91304661244175,0.005380975626439413,-0.01030709248544271,0.015575613349508775,6.67
0.05894383237409389,0.02310169263846412,9.666446977818728,0.009520292907125779,-0.009292544445506715,-0.011352007909021355,6.68
0.10202972619521262,-0.20560193684076086,9.790068085779227,0.010780735794065955,0.0023374024235372215,-0.02146723736661292,6.69
-0.10359716792101561,0.05788805468341497,9.733171403578254,-0.015884927799141906,-0.005914630448886082,-0.010949938416381701,6.7
-0.10513677649197908,-0.010344724939918816,9.815095090539028,-0.00218467564622361,0.0015818954757403022,-0.005894394253589623,6.71
-0.06566149364364812,-0.0397829838363825,9.951993816239716,0.008074186774586068,-0.008712569058422985,0.01426837007027146,6.72
0.08091526823931462,0.10782709436082896,9.650909961238087,0.005848918900793896,0.0010148794569520435,0.0040922345741280395,6.73
-0.045726502502354056,-0.11741703078000383,9.98977703480066,-0.004838713966717267,-0.009949696194572272,-0.0022652194301509203,6.74
-0.08832238468703928,-0.003259384583708585,9.945010158747287,0.004582374601904137,-0.004192562795523015,0.008789891163996073,6.75
0.028108923785805297,-0.015304190678442398,9.852656329277805,-0.014784057943001543,0.006812418271817895,-0.0016450011398553674,6.76
-0.020861102610056324,0.06538859256320405,9.877912300021912,-0.023689985607767992,-0.0010650906250130544,-0.013412881760708581,6.7700000000000005
-0.06815494769958612,-0.04708849657934603,9.834880777966035,0.009074832859046016,-0.008985286966188258,-0.0029819254945828216,6.78
-0.017731668854699307,0.1244165408694074,9.649227519026468,0.00752427143176344,0.0015457028191126227,0.023715505500786778,6.79
-0.11608363482894224,-0.00515622936985969,9.745254215640358,0.0017546043540198589,-0.0036459982582900527,0.010186952280018216,6.8
0.025625907619370253,0.09287428386282598,9.839373810296387,-0.004741883474462059,0.0017081460631277196,0.0073732964227902,6.8100000000000005
-0.019018516550475317,-0.016859187567568223,9.849724995017093,-0.008415052828497766,0.024816169153256712,-0.01515684901937196,6.82
0.008430467865355208,0.09010808283139021,9.854184017147364,0.016003776615604585,-0.010707165310018401,-0.023012104906254934,6.83
-0.06720484952470156,-0.013017264805860863,9.779590492162754,-0.006363140917863438,-0.01240649430426688,-0.00429286641636703,6.84
0.03609643787566371,0.012928969712445504,9.842335043989442,0.005747915703244607,-0.005511833064521767,0.016599868531912247,6.8500000000000005
-0.004160237478713662,-0.02164366704358919,9.806782604180366,0.012641658078208398,0.01061782008168114,-0.012012142174160979,6.86
0.11648963221473219,-0.067649203832669,9.655112690112306,-0.0005817374674332191,-0.0028424893794046146,0.020353788035091868,6.87
0.06757345157611055,0.1647729194349759,9.802197570422909,0.0007883609853216915,-0.003737705878552036,-0.008959452540771103,6.88
0.03390673390132574,-0.10949589974003011,9.770155567640288,0.013178643567668962,0.015277595601050239,0.0068819588112605,6.890000000000001
0.04953531884756157,0.12182990780262054,9.774486798848065,-0.000619499749304286,-0.007174378281227032,0.01264339113150846,6.9
-0.2093116594709477,-0.00552523728904716,9.817533263155017,0.03417144859515737,-0.007615070973094007,0.005225814256730116,6.91
0.04885014682002939,-0.0018230568133461547,9.772960368305917,-0.011360026738816554,-0.0005130791167824156,-0.00418482287816437,6.92
0.017454246782804227,0.017736034662559543,9.926038415905147,-0.005972798770222058,0.003040030039248115,0.004546460037310106,6.93
-0.011903766414748293,-0.26946576242546283,9.826144795908549,0.008161465099410401,0.005770018500365024,-0.0064045294038064336,6.94
0.007031480215703952,-0.03280901828377834,9.837037611611398,-0.01202264041531382,0.011323882678955153,0.0022431990028877148,6.95
-0.07612136144077157,-0.02134073774479647,9.910667318432248,-0.01357653409376423,-0.015995155364847406,0.0010123992735089312,6.96
-0.08648681673206011,0.02746604688719639,9.835429100871554,-0.015766016073093306,0.0013999248435055131,0.001161695155495182,6.97
-0.11148857432620052,0.1831771588538993,10.024936979245322,0.0017396140187593571,0.014136718381582716,-0.00040379470984747135,6.98
0.06186596876178333,0.11490742552402129,9.718543647028724,-0.01779142495085352,0.026318475726782392,-0.0010114236299499486,6.99
0.01927001783760204,-0.09935499483802525,9.804993255707412,-0.0024277398139009427,0.0014791827567347219,0.01317081107888712,7.0
0.036209943813564564,-0.12188124887214286,9.771712053654301,0.003981570340601354,-0.009789072768627914,-0.019053897304720267,7.01
0.0829651778727748,-0.028647142942776822,9.941901840503768,-0.024743249284854704,0.0018862054583772445,-0.010818748891012071,7.0200000000000005
0.007376976793306531,0.0280535542004266,9.856681052878319,-0.01270522130213131,-0.010230892937443219,0.0018887492181183679,7.03
0.0828164817257755,-0.14015242506835826,9.854131137897625,-0.0009663151675975675,0.010163796931778577,0.007337158264026568,7.04
0.12309803947339233,-0.09440282062196675,9.789575755252935,-0.020890332166737628,-0.004197878653776175,-0.002321049517674646,7.05
-0.07114155211996669,-0.028797038295479832,10.044947520408774,0.01733416244179632,0.006767646205540842,0.009190277462944577,7.0600000000000005
0.026124098870136277,-0.214848284108548,9.679254669384468,0.003726629737301486,-0.0015994359821454394,-0.018594940116537038,7.07
-0.03679447596757938,0.07569640294006716,9.71790088212786,0.008915854471738453,0.012976272512237772,-0.013283179533474535,7.08
0.14511443228375764,-0.04182029664855951,9.871242349336805,0.0067826972493893155,0.004950040591954721,-0.01524978625799914,7.09
-0.014792361417706904,-0.00017655059894310755,9.879452986406209,-0.0037695976154926924,0.024579712553909703,-0.0071447487406492635,7.1000000000000005
-0.08342231632964311,0.07424364574236302,9.864285778765417,0.0012571603520727588,0.021666213071161483,0.0017606002006681915,7.11
-0.014372465541592723,-0.010413666105634151,9.9630734204698,-0.0015909536599262339,-0.0043442715464616175,0.0022364867462789694,7.12
-0.09947378000515825,-0.07571190379588766,9.806620584175127,0.014377905493301016,-0.010380166370710195,0.002111509469102499,7.13
-0.20042962251412286,-0.049659821882089825,9.79127615189082,-0.00459713245502328,0.005956105291686073,0.0016425333701398834,7.140000000000001
-0.10435815447213329,-0.13942774084499207,9.727750942321439,0.004812853966735749,0.02478413404310131,0.01896968289854127,7.15
-0.06819639134613963,-0.07030174091849263,9.850093959891728,0.006132593139577996,-0.0038258942902460375,0.0032606860369874756,7.16
-0.057741591286986776,-0.12142212719187212,9.887514918639651,0.006934321772701217,0.015647076704922564,-0.011651178461487504,7.17
-0.08195103984599576,0.09476555741474282,9.714204485412564,0.009541996606134633,-0.017140846379674682,0.013266070052342307,7.18
-0.04062476532344789,-0.09014096108689834,9.838430561803538,0.013835917524291854,0.0006887771757518251,-0.008650260277818476,7.19
0.24834022210548873,0.01922831047899157,9.855256372134734,-0.011436895718690667,0.0007098409541191817,-0.0113909171996983,7.2
-0.0017175030096320176,0.24211402530446688,9.96786928775513,0.011871419416663595,-0.008316619227135124,-0.008490562794189296,7.21
0.06546975053400288,0.2939246155344086,9.858694641366668,0.014769227902364443,-0.013981405153852077,0.002144315951537205,7.22
0.1336639579431195,-0.06969742399789775,9.89208081942756,-0.020396305180979252,-0.01439430007768919,-0.003922320477339947,7.23
-0.14624992653527275,-0.033657337725983415,9.785125699382087,0.017607268021004912,0.005608201386355095,0.005761440943434242,7.24
0.0326592864123094,0.1319494194168924,9.78800348414293,-0.012986512062960334,-0.011028014550902288,0.004025314568504022,7.25
0.009805962501065899,0.01847990406272982,9.72458565412181,0.02960002355979849,0.019866976979955417,0.003922904533803879,7.26
-0.0668410446100327,-0.059123397167826885,9.906280089262726,0.004266292310337128,-0.015983343304848255,0.009260336811556448,7.2700000000000005
-0.12080335215237836,0.01349631038971233,9.960785055970826,-0.015662424907671457,-0.015130521822891268,0.007599342265835999,7.28
-0.08288290327915226,-0.007582822125339755,9.848021847229132,0.0010092980347833824,0.00562276000436199,0.002929242030095089,7.29
0.024990852111876547,-0.028443451113208996,9.845633857934043,-0.014917477384848372,0.013710917697052022,0.004136064286118713,7.3
-0.04991781801199804,0.1475811821762387,9.719832542167254,-0.001295191448025025,-0.011502650642858374,0.004230771207086291,7.3100000000000005
0.02426147368714083,-0.09559739801815907,9.727514668504988,0.0056533223804882925,-0.005185302879409013,-0.004949175740346711,7.32
-0.10050619555733536,0.10239131337575558,9.800063661525394,-0.010865213120165315,-0.004189942031920011,0.01522401141385306,7.33
0.05325797914684521,0.1539732037339203,9.619939613871502,0.006920678602730213,-0.002248677775279561,0.015938195951596706,7.34
0.024631783093710325,0.010531545071196526,9.786847479852248,0.005073295379503545,0.004406907552699178,-0.00019819995238087304,7.3500000000000005
-0.043206229519502176,0.013101680435772319,9.762709621861937,0.0016503553741127766,0.002188254961372431,0.002366388794949431,7.36
-0.051879681189082164,0.19210112806151747,9.810500517675363,-0.01488710930259482,0.004168831750927057,-0.002660726878902795,7.37
0.11147323303276875,-0.11202076035158366,9.964885998570715,-0.012861661681272911,0.01938618708651491,-0.007633050625910837,7.38
-0.03525426866301905,0.03650428187807971,9.817415604932068,-0.002971807619778531,0.0075287549595251125,-0.013515823785713161,7.390000000000001
0.08659962855294812,0.07718373454743115,9.78781814137797,-0.008490617511435065,0.004076364581127898,-0.002030910249722786,7.4
0.003515469334520636,-0.21329648029721604,9.845038226240636,0.015550183498533645,-0.008507612903211318,0.005827110117789235,7.41
-0.00203430121138258,-0.14214792113427593,9.835849345041828,0.01352914370568231,-0.004744339337716792,-0.009005636086093241,7.42
0.1273898022865698,0.04952281323524916,9.642291249107293,0.0007602018668335319,0.010898841925193681,0.002530302950356344,7.43
-0.011770938395560267,-0.08040472747098706,9.80734266316455,-0.009195362559525262,0.025776051343174466,0.000504940260245915,7.44
0.04297277642865786,-0.13233216691648927,9.826213178783506,-0.0005488748040796095,-0.013645890949686526,-0.0012919782932113485,7.45
-0.02623984612851253,0.1332036063220326,9.945797982599005,-0.01187445326049866,-0.012060582607146387,0.0006890298206150407,7.46
0.045152918141274125,0.02984185690491415,9.804648710711302,-0.000922150243161043,-0.007477790213320865,0.0048431684841171285,7.47
0.12980969594860656,0.06459367472159375,9.811656166550318,0.021055337914018615,0.0023191551115543637,-0.01561573068735177,7.48
-0.10087403364346717,0.040628997538963485,9.812028930626669,-0.006991046759177416,0.011166229485852637,-0.01631284920896696,7.49
0.02768879308205461,-0.00804828645856884,9.931604185037456,-0.011959994417581886,0.00397635328747439,0.0017012920571224646,7.5
0.027419910177366655,-0.07566944099246006,9.956509148369083,-0.007838962705156554,0.002339083554884958,0.012099013786061333,7.51
-0.0019266682205266437,-0.15820993468121192,9.828683663160378,0.00893610448653834,0.0037806434162324606,0.0045167207098914626,7.5200000000000005
0.021834773359111104,-0.001139682700609588,9.936864057529862,-0.003805661785200118,0.018959591277216345,0.0048411864001465426,7.53
-0.048358942335672866,0.030405097044946858,9.855767706886095,0.005430907783994454,0.0017800824244346611,-0.006492562507478745,7.54
-0.0588358010243386,0.0997093525353042,9.804139804509324,0.012871224703431551,-0.013410421951664777,-0.0026778494620175388,7.55
-0.01114460987339753,0.11879486456464688,9.73751901741118,-0.010789734287544197,0.0010812214583418524,0.007246631220317278,7.5600000000000005
0.06590349942721559,-0.048778117218812055,9.918466339949314,-0.001082437808100064,-0.0038436224769489657,-0.0057005369032867275,7.57
-0.14077784715412123,0.1807390496637041,9.798862954216704,-0.000354362263191717,0.008881606070588154,-0.0018540070584569337,7.58
-0.002812977614996695,0.005306419299389867,9.841130420695883,-0.0072106731780840995,0.005230864366016563,-0.011907187762375133,7.59
0.09477940020648512,0.07316935441396141,9.878509263981918,-0.002134012682462256,-0.013984396926402203,0.002168040242057371,7.6000000000000005
-0.11378191661067488,0.04495961141675174,9.67486429161608,0.001786239331627546,-0.005119932706289809,0.008616969075673735,7.61
-0.14733284074257688,0.12487911922201352,9.869863367994961,0.00041263492215098133,-0.004327325860527287,-0.018495210181367544,7.62
0.01862687267665371,0.051142372731479105,9.8741404231905,0.004881745733186033,0.007042064744811824,-0.0016336418939537996,7.63
-0.01527553749877656,0.08692166616556742,10.009932760253104,-0.0017382158816558406,0.009500428981018116,-0.005245964365455345,7.640000000000001
0.01446964562971975,-0.11517801345267512,9.953016042762027,0.006118601337074781,-0.009729269739042087,-0.006126564974344542,7.65
0.06006152630574473,0.02080343517277265,9.836587972424713,-0.005582825545773253,0.011504920449418185,-0.004379826970035332,7.66
0.013963354487015068,0.054132157184969144,9.72252517836242,-0.008792688507701017,-0.0031736225787917494,0.005148108640018877,7.67
-0.018241150847737066,0.020107709456737573,9.894797426044578,0.008523501334236863,0.012305937203796177,0.009169173214058059,7.68
0.062335912189945164,-0.0731332299105957,9.986576675519432,-0.0023837807723144093,0.005870683484868359,-0.011450500707470269,7.69
-0.01742200150517005,0.07249449648815277,9.857063658687009,-0.012450408009439438,-0.0006592777161023314,0.0041960111675281835,7.7
0.09836388050781973,0.20874620029979557,10.009284672485274,0.002746168988642834,0.004781466614975454,-0.001795608226040113,7.71
-0.027892209386152934,-0.012904077210719992,9.94335732170851,-0.00217226979631425,-0.005651622902717432,0.008121628942863713,7.72
0.10156441288606533,-0.12042725818761724,9.702595026425435,-0.009154022519734002,-0.002647577671402459,-0.0152787992451416,7.73
0.16899113127725296,0.018769003677914526,9.734303931735594,-0.0004415254861219632,0.0022712280355879346,0.01299176798977624,7.74
0.0058831184504230605,-0.061349174104750916,9.879171578490748,0.0014687326204371105,-0.003026073138578928,-0.00013505126193878906,7.75
-0.08115101649571803,-0.006076097874064445,9.698982713204574,-0.0026180684786524656,-0.011092175681574236,0.0008839524579198578,7.76
0.1889240398052877,-0.152345789056051,9.939335399799917,-0.0030092212411724395,-0.0014610618061619938,-0.0034266991753341357,7.7700000000000005
-0.04696533897365108,-0.07306299795303638,9.926538759705608,-0.012254965761945959,0.006025075024828403,0.028337261148116952,7.78
0.03360854003294036,0.23875394806285488,9.945912929239258,-0.002192649644824226,0.012574171644247291,0.0021315271881879112,7.79
-0.24816302971876475,-0.14289577719746882,9.745444964842909,0.0034692430913719884,-0.017188547572876835,0.004364244186158715,7.8
-0.18843792796902747,0.024536338263317945,9.862144737250212,-0.014406516584937513,0.0067749216964481974,0.0010884280650211408,7.8100000000000005
0.13982426148479993,0.14906796665707547,9.890371696515889,0.012574422689007627,-0.008448722198941333,-0.008956333408282998,7.82
0.003070222735066542,-0.09372296832664206,9.67958010217029,-0.004886060391926461,0.02152219008483435,-0.002370658422678436,7.83
0.12881483648007652,0.09252662939335701,9.879950211361503,-0.015052723904635744,-0.004174109556991617,-0.00027149214614278464,7.84
-0.06702205782902931,0.1759156062983007,9.662894448873443,0.009932936398046639,-0.01685249046291731,0.006464226812912064,7.8500000000000005
-0.1922551845671132,0.11114484385682043,9.959935300488695,0.00025965084858694284,0.022070785427180075,-0.0015747578421580076,7.86
0.08564643302304197,0.07395361189793254,9.778597319677857,-0.006845772629827582,0.0029304536828007655,-0.00833475894767855,7.87
0.08509966290522311,0.09418923419258753,9.616088429927634,0.0037609105146863588,-0.010247975657196422,-0.006709809000836628,7.88
-0.07020305059434839,0.12179150007616138,9.78009991066276,-0.027265633438787098,0.012228247776835389,0.006032903798704937,7.890000000000001
-0.04056827728951256,-0.01860914663833181,9.737347310860596,0.015544149400580692,0.0027491699425169092,0.02244265425861296,7.9
-0.032432167194278785,-0.005002329596235484,9.814818808411337,0.0036829552923839503,-0.006150677208474983,0.003750854086807407,7.91
0.01018884380499574,0.10309910802681183,9.892894327916192,0.013621934593425852,0.0038609798566338932,-0.00849390687522389,7.92
0.07122869119142299,-0.11872923201392682,9.85509383037524,-0.005551846285744499,0.011446597135348034,-0.0033602105829600754,7.930000000000001
-0.025200532107551528,-0.05907867713953851,9.648767856610265,0.007933796278819285,0.0018004287127074278,-0.0009404708893417516,7.94
-0.1627808579600854,0.010589474159141557,9.792168682210004,-0.009837018271451187,0.0008167079478468781,-0.006575377040178146,7.95
-0.02974470279029214,0.024866473861598626,9.871553407964985,0.006898526326266766,0.005701926114004348,-0.00612231897997563,7.96
0.021531456521557506,-0.12559445077141076,9.840220915599803,-0.0076077114004354735,-0.003836851963924,0.0059248754561678635,7.97
0.03940161999208103,-0.12955523652520384,9.81773246187804,-0.017421178986101352,0.009362364256754557,-0.004598973503883543,7.98
0.09075531050317953,-0.1109931495736233,9.690408785181091,-0.011291213245525684,0.0010229284580887917,-0.02046477648739229,7.99
0.10902512877682712,-0.05351278799903987,9.878153403317135,0.01437987322372686,0.005935473204192429,0.018487702177252298,8.0
-0.11162441999414666,0.10645638462361072,9.79779669691836,-0.015118679199742385,-0.0023830160825020585,0.011635704502942592,8.01
-0.06372382256946528,0.1015460825964262,9.834965516662413,0.013169177604461133,0.006332524249636581,0.011658724395924676,8.02
0.023961280860321697,-0.20354940766570198,9.743323978733219,0.0012777543971719094,-0.0021177211047555154,0.017135283395133073,8.03
0.10545791121004028,-0.007772550307987783,9.737171964665762,0.00692677356329415,-0.02590248737509669,0.021327312282117906,8.040000000000001
0.0429758682102134,0.07557099945979269,9.820011563455218,0.012429546130914973,-0.021082846234468447,0.010767232990978716,8.05
-0.0055604739783412715,-0.029546180000127716,9.854143620903741,-0.003569016201009101,-0.007991100120259345,-0.013731340191738437,8.06
-0.019786453216726455,0.020961833982459807,9.880507577204703,-0.003713729343468427,-0.00235588801918632,0.0003884890308605699,8.07
-0.11478435452724295,-0.07946844898412511,9.866693454891397,0.004906682305884022,-0.0036416231896768347,-0.026458229495621693,8.08
-0.07142758062111665,-0.007455956556858972,9.987134809662821,0.005475066890467189,-0.0008088855105877736,-0.021528900929562708,8.09
0.009278294596028419,0.2282327619007316,9.789154754335629,-0.012139728347985363,-0.013100182344952123,0.023946507060148718,8.1
0.1831019047924396,-0.2286337564015132,9.709038726941174,0.0019576629062363037,-0.003210809240242706,-0.00890307459654502,8.11
-0.08229402609226186,-0.06307054405042783,9.669408826034996,-0.0020340080049644203,0.017575427482756992,0.014212141375939997,8.120000000000001
0.16980995277786073,-0.14302561556199364,9.86658899837204,-0.003164129898440224,0.00493936213081008,0.01669092390471643,8.13
-0.07429459433832576,-0.04386205457485859,9.935491561762182,0.009762343191807807,-0.005558114809811812,0.005542376847676291,8.14
0.04589616119675582,0.0014895386680597923,9.82954182652289,0.009253295264213545,-0.005659142949713039,-0.0036189023987155005,8.15
-0.049903048068757457,-0.05739697226286755,9.903680051607214,-0.006413152316483717,-0.009963632682510607,-0.00291456064148002,8.16
0.08029557027741602,0.03639877410761038,9.753279341089321,-0.0012713097811747705,0.003217443895043862,-0.0016106617006041565,8.17
-0.0033387919085639387,-0.14338508866103805,9.825082562076984,-0.01852814794343336,0.00063920992516174,0.019714509950830784,8.18
0.21379961746360912,0.18586096861171253,9.898391265391249,-0.007879449659587381,-0.00800076567895905,0.010948670693560439,8.19
0.07298250750549849,-0.14397573839677022,9.793985469080434,-0.003329310801613511,0.012172052269380933,0.008381216606608562,8.2
-0.004438718229877513,-0.01779145269546958,9.757280002562267,-0.014629604827804324,0.0008352310221000154,-0.0023826943138719114,8.21
0.015315679975199187,0.052476734258796155,9.745112208312714,-0.000894719306326963,0.009126187394949284,-0.004405134872416946,8.22
0.0745979563132166,-0.04972176902495608,9.942505249857861,0.0018183329628456044,-0.008875958131063207,0.007482405054254777,8.23
0.01001873374644456,-0.09926887277503349,9.834893839984899,-0.00453565226691146,0.0018396559616895866,-0.008115945323661925,8.24
0.09912827271839042,-0.06543822480200127,9.76507940865896,-0.016157758467509768,-0.008260939532614763,-0.01323689265486403,8.25
-0.11975556119949116,0.1782594185022775,9.706775995136702,0.008183249117213486,-0.006383658859779655,0.0025613512431461208,8.26
0.12422067502425294,0.16339773035761637,9.793862322831831,-0.008679790080857177,0.016131717106066305,0.002551963755563436,8.27
-0.1906903303828596,-0.06194787662061976,9.852789101142926,0.010694244156445558,-0.006554615081387504,0.015618104166356221,8.28
-0.03925185468466692,0.10321665905986213,9.693686847314284,0.020425188385453822,-0.01365462314721914,-0.013655499630246076,8.290000000000001
0.029852438509675772,0.027562158663206472,9.716866044656209,0.011395190986571829,0.019050354593452227,-0.011147830556214081,8.3
-0.10664510286826501,-0.17086313511136175,9.911791810820686,0.005436494639840762,-0.007111555687818809,-0.014785887957030711,8.31
0.21873966955622684,-0.01987426729675754,9.876726401483243,0.00042187847885484693,-0.018375605871335698,0.0030876337270300236,8.32
-0.20364611827161597,0.1074446371300498,9.979928577915413,0.00014600927527670616,-0.025620881333743305,0.0011575260420735086,8.33
-0.14202127882239646,-0.057884489607621575,9.861827155672866,0.00605648902534058,0.004964104317035953,-0.001498544154263535,8.34
0.10277502305593925,-0.09608478446979962,9.673203197806115,-0.014017178153446589,-0.029484643268945766,-0.016293415863125323,8.35
-0.13351242611611405,-0.05573830957194368,9.93592349872699,0.0026037999268392143,-0.029092411272733997,-0.001272125075147029,8.36
-0.061632172835952605,0.015797754190084907,9.719127701839978,-0.008445333052373811,0.0018944120996057792,-0.00939591010161005,8.370000000000001
0.0267796078306293,-0.031121568784594617,9.8151369213232,0.008813252331018285,0.003571444394682991,0.028033473381414792,8.38
-0.06703903925169165,-0.06394072001220517,9.853402574986601,-0.0006172259692172163,-0.007004016107609921,-0.004270273158546407,8.39
0.2271743830877222,-0.2569281055323577,9.73369903136534,-0.0037293371991991143,-0.006464896433791608,0.013723617151029486,8.4
-0.034483596674199306,0.11089647267593797,10.012135911279467,0.0048395304102843975,-0.017935970666819123,0.0015912354809379157,8.41
-0.010912890861619808,0.14349790823942596,9.772726390675901,0.0028271009250634793,-0.003826644740620009,0.008744419507112815,8.42
-0.17700292446774152,0.09301629498408033,9.864127134829307,0.007367411438694058,0.013346633025643895,0.000675305399345679,8.43
0.1519343704259868,0.024170054788929113,9.785464393613037,-0.01014886626590607,0.001968248904282904,-0.007426518267819964,8.44
0.0647269120798821,-0.09151546098709518,9.861546659230806,-0.0017522355410585155,0.00024296627899009855,-0.013191439512435833,8.45
-0.026996247962696326,-0.051531393055970556,9.836300935618238,-0.012020831403032808,0.013526587942277207,-0.011706366691600578,8.46
-0.0021500994106221074,0.048328031313131604,9.850815515496956,0.006962211899692772,-0.007830004374672045,-0.0037469616056361567,8.47
-0.08930020035633707,0.09967422341891785,9.968102871742154,-0.0132381768744264,-0.011780055764387776,0.00014670213702939387,8.48
0.04598099060186783,0.016074443544827403,10.030309538687092,0.006514338679579909,0.007804225183833738,-0.0035296400030265115,8.49
-0.11498174029166662,-0.05188911343395987,10.010290269686104,-0.008747678005675295,0.021435032344428732,-0.0006708730131938042,8.5
-0.08836528681782545,-0.051177046789078764,9.837963961322625,0.015957833883447067,0.003073085838933096,0.013102772455577628,8.51
-0.03680660777714492,0.005514764123239364,9.735378707494055,-0.016858689682876623,-0.007485549167698165,-0.003385641583549053,8.52
-0.015130715245494246,-0.09543055630829173,9.787220426534027,0.008656274579096363,-0.001869788076380644,0.006057984909990139,8.53
-0.027094532851973482,-0.07987853449132698,9.7686148974312,-0.004648563538721735,-0.003108820765048376,-0.0015191217559423122,8.540000000000001
0.03261579478390757,-0.1343924930500767,9.917292689589177,0.000703799540645729,-0.014470200045741885,-0.000873978447139392,8.55
-0.019008045548430767,0.11803623404507109,9.87554491213316,-0.0019233390419505642,-0.00451073911109978,0.012865074979901818,8.56
-0.014468881681038312,0.09372533490232951,9.863681122854198,-0.01036059755908177,-0.0019103720825964091,-0.015989271644392174,8.57
-0.0724552686053028,-0.06593061144402446,9.743133879417607,-0.011371788426871846,0.00030297729267631353,-0.008783982880259205,8.58
-0.06395780545635366,-0.056757257101710624,9.75266273276136,-0.012920729992093838,0.0013960331671908066,-0.0092970902775825,8.59
-0.04776062812708105,-0.10073015940330805,9.740222992692749,-0.012456090304470396,0.0031195763388789156,0.008348195610159615,8.6
-0.11662915567530341,0.009806474463608333,9.86116669767923,0.009034503914388741,0.007228255761070145,-0.014083225343488593,8.61
0.038410239199726526,-0.10010767428619943,9.74360583907832,-0.007481391272857925,-0.005613030728275071,0.006513580913505722,8.620000000000001
-0.0977783116897468,0.19742424944098258,9.709455973862488,-0.008922852120518061,0.014008096749596178,-0.0008690646692022312,8.63
0.08811805087311393,0.05582504010895939,9.803809702275506,-0.002015091152401799,0.0076620448566175675,0.008588998461899781,8.64
0.04498733751710581,-0.02346542920036153,9.791621924650999,0.011387287627125457,0.0028956799693222726,0.004220402537386447,8.65
-0.059321392200646195,0.04263287549303929,9.738134268554338,0.01989541638843467,-0.0016578715976580344,0.01680871523667548,8.66
-0.09111553150166392,-0.010407280245470094,9.785186858209302,-0.015153933829374626,-0.011204958459724869,0.00031516678510975463,8.67
-0.21472835618372016,-0.0779347919521249,9.718581172463578,-0.011749674191237028,0.00033681217903854546,0.0031231543398514616,8.68
-0.04038155316381694,0.016501916938840674,9.809625324278322,-0.006539274538841428,-0.010783514622568076,0.01688357059902707,8.69
0.0944745799015772,-0.06507174423101746,9.830652194432345,0.017357393408322878,-0.014162683372165426,0.01281564758332874,8.700000000000001
0.07668118502871918,-0.04083480348892267,9.931575645457421,-0.01862894974987841,-0.00921601897983725,0.010307823238867881,8.71
0.02403366615439242,0.03330357669420819,9.833828862260871,-0.002311776393149024,0.012518380649004185,-0.017035861911460663,8.72
0.15027546394410152,-0.24364274406319636,9.924590004882223,-0.007597299492723342,0.015324571027412961,-0.004276305556222002,8.73
-0.0612420332690689,0.11259018235873759,9.920670731403613,-0.008201096413952355,-0.011054482938270962,0.005005158547708753,8.74
0.028530984381751903,-0.05775842955692132,9.760853195341214,0.013038669290512063,-0.0002797926808708315,0.01188011232680903,8.75
-0.09548087156478992,-0.1949170811578463,9.80159308553307,0.010046009062998571,0.006097068168532537,-0.0014846568060678607,8.76
-0.17759068002577066,-0.025829200989197124,9.68813718981759,-0.004508262068222312,0.025373267530964094,0.013114327525931944,8.77
-0.03611453642150592,-0.08373787411892504,9.857215992813735,0.008242184755338578,0.008144077805000002,0.0023418142641902333,8.78
0.02502089333816302,0.16567930262677089,9.858038274308521,-0.021867938831871544,-0.0060133391792721305,-0.003558753865695316,8.790000000000001
-0.1625251884535711,-0.20128258011458644,9.901625564604805,-0.003765154253129076,-0.002881968827684444,0.012360276498413678,8.8
-0.004168128238966538,-0.020045510919928386,9.696003417359387,0.015195038553579055,0.015658851395367716,0.02035806004973546,8.81
0.09838988403021723,0.015138337579015577,9.794831368623047,0.00277769425036082,-0.003466026870397988,-0.0033062988372891027,8.82
0.05994149067740617,-0.1623817657193486,9.800413075144514,0.0004213634112796856,-0.0042778495014901595,-0.00245578194965552,8.83
-0.03630988927724886,-0.10497616494782543,9.917369098942014,-0.005421913855724679,-0.0037565751286910195,0.008822443765692266,8.84
0.055212675908036295,-0.07602788062626155,9.880249571972032,0.017869374484564347,-0.0028070883262777896,0.002636385310250398,8.85
-0.06266107043663195,-0.1665738309090535,9.832143985769212,-0.01148473083838378,0.00699400531079582,0.006974741975752012,8.86
-0.20200215977137825,0.08992694764386575,9.932934929066343,-0.0037817055759610057,-0.004592639413200859,0.000768317927121893,8.870000000000001
0.0917479157101054,0.07635880126731158,9.736886195919745,0.01238088746894048,-0.024879317531596407,-0.009177271993406504,8.88
-0.008181605530992873,-0.039643384487856585,9.630960900637668,-0.004954808489259039,-0.014975902475039467,0.006550354714257902,8.89
-0.1675365819565306,0.017987469340771663,9.667907987264128,-0.008899391729741577,-0.008510421570349513,0.015865863504129284,8.9
-0.08034047903415852,0.03494683877174767,9.691137164748652,-0.0008173628684373383,-0.007582860627365696,-0.004078578613156322,8.91
0.06600238258579395,0.08960336597105988,9.837785450207866,-0.003198349315539867,0.015378224544387876,-0.031618588016427675,8.92
-0.09692448153051626,-0.046306274363893146,9.733253880143181,-0.0001982912262537959,-0.009294063589110411,-0.001729575591070937,8.93
-0.07105150589896868,0.053217952770725746,9.776092848885318,0.01835015855847875,8.450713170293648e-05,0.0069742787021411096,8.94
0.11193555074440967,-0.05275064407776982,9.905052744307236,-0.015607775110973048,-0.016266208117670745,0.004739653612521047,8.950000000000001
0.007745368096924091,-0.03635831266220298,9.893811496939731,0.0028175336084298942,-0.01623229233261206,0.0036613762546702606,8.96
-0.008118932744492933,0.07471404687443155,9.813135143242585,0.0017431653104497062,0.008854619332584125,-0.013999730609984365,8.97
0.04011903330151184,0.14434702759960014,9.774174341968854,0.015558151996493548,0.00607271893111101,0.007635992783508015,8.98
-0.003737949508373603,0.12215718800820026,9.744108518965401,0.004117657194825082,-0.006721013851866285,0.0012090745326224827,8.99
0.08347883157114488,0.12525371400222182,9.621870592337102,0.008609005950533303,0.008619266875640684,-0.0012052577690929997,9.0
0.05352721372094415,-0.022570126796236007,9.812910555409768,-0.009883421141591728,0.00863547121484189,-0.0037067673333185357,9.01
0.0014948463870024884,-0.16290580323499082,9.753432819111952,-0.01445796211197709,0.011078371219914299,0.025700528219498323,9.02
0.00620671447532345,-0.02280549127507886,9.946875424418518,0.010418271489989922,0.011122564009339897,0.005592532598774137,9.03
-0.19552248931796093,0.0707089289965983,9.794126194979432,0.02038898784417904,0.0011904749065056312,0.005522071147560973,9.040000000000001
-0.07096756299156205,-0.05363274798558573,9.819420383948888,0.0027354779829398402,-0.004296394972995896,0.0024056603898333496,9.05
-0.02160507500231751,-0.03625832659393768,9.668392828434422,0.01814161457404882,0.0010174391797932497,-0.008559093066042238,9.06
0.18614125592343259,0.0176702130378293,9.70278439374055,-0.007740363774996525,-0.007413817396431498,-0.004916227224296764,9.07
-0.15003522155613472,-0.026964777778991134,9.947576939326673,-0.002579605033866777,0.009293202765471081,0.009447520098380978,9.08
-0.10181117687246861,0.024983981634210218,9.95789931973305,-0.006367701961046673,0.005385290365083794,-0.0012724408652357477,9.09
-0.07919129668085709,-0.08596366650657394,9.738797241671891,-0.007661771735576349,-0.007149007537910156,0.012853466537525449,9.1
-0.040389279791968845,0.0894800333154413,9.81200648853652,0.007721759520322907,0.01259172282701641,0.013376669479896288,9.11
-0.11640474402764177,2.163879841365293e-05,9.80797897468078,0.006357314481371537,0.003075670740168967,-0.0037667077751570095,9.120000000000001
0.06416563657145584,0.04511521066291183,9.69440684440117,0.009317765502497573,-0.005483064647642206,0.013068108807321184,9.13
-0.01713527547240739,0.0049707544242651655,9.9486384309184,-0.01984318973099262,0.011804866178746156,0.009404606365576171,9.14
0.14057142905759232,0.15875157184790747,9.770602048774723,-0.0023803972994018534,-0.013977788357481605,0.010097976105358286,9.15
0.2123144270398683,-0.10698164801540033,9.8006406372615,-0.01811405035384036,0.0037488000612603918,-0.012614190523526704,9.16
