ax,ay,az,gx,gy,gz,timestamp
0.046567656144852074,-0.1752336306394715,9.819286169530006,-0.011947296481226485,0.008690825505981105,-0.001954105251641395,0.0
-0.06878382585858814,0.12027549383804917,9.768909002250004,0.014273930935408127,-0.002622434591645394,-0.0014196755015745974,0.01
-0.06295666651903464,0.10379630201917477,9.785375042701167,-0.015969447392906736,-0.004371485629523281,0.0027017387445722064,0.02
0.1215215214282464,-0.021562292791771492,9.574739773186675,-0.012038324056434232,0.003993459458151064,-0.010058032993161293,0.03
-0.05430689195962002,-0.056435807741455624,9.700817757508846,5.999366373895701e-05,-0.007130211601080966,0.005331239968753018,0.04
-0.03275838272698491,0.19406112224955094,9.764609788520149,0.019987698519322885,-0.006349062454181311,0.005687073123848598,0.05
0.16528241244562605,-0.026615556496143125,9.990255337347332,-0.0023654677125575737,-0.008562415366432817,0.0016007975354203079,0.06
0.08062019855538577,0.05640618520940324,10.03241968509066,0.013511736258913122,0.008792868646661104,-0.0017886476997165813,0.07
0.07611166570326955,0.03416983353333906,9.85840762157495,0.002948451947911252,0.0007084964464462815,0.005689216020584539,0.08
-0.02846149336931299,0.09287636478320402,9.805251245885076,0.006575636999951444,0.005594016882998407,-0.014449162685784759,0.09
0.09011572128033615,0.035835887511818265,9.792832091777125,0.0002826518609170772,-0.0028875093604369775,-0.002098105852811275,0.1
0.030264077659762037,0.13857609991095912,9.692272446168719,0.002538174768362266,0.005671875531694823,-0.009204802539446059,0.11
0.004221363182137711,-0.028550204698856108,9.795664421341069,0.004283073247865431,-0.012547007324001382,-0.005081280210544753,0.12
0.06755690221838172,0.07785102570582896,9.85830211598909,0.011794855288826669,0.00042341859121041564,-0.018572543993786595,0.13
0.05157667992702613,0.022419787361870266,9.840413346223983,-0.014236722957865279,0.013625556041202538,-0.011527331915308062,0.14
-0.03979821664609824,0.13321629240700103,10.048020830762514,-0.0021310463158372202,0.012850894442707012,-0.0032836732421961156,0.15
0.013907953076730038,0.19307592101180882,9.669038960068415,0.000993784569323108,-0.010273592898838708,-0.002062562052380041,0.16
-0.09695337652339868,0.12212145949280036,9.809325634460961,-0.00016994742162429317,-0.020875352091015233,0.009419067384547855,0.17
0.20440919620347137,0.030718948803129306,9.847712029365807,-0.014130377311014158,-0.00012595455909083004,-0.009706060135933905,0.18
0.10451427922810481,0.11766273677661465,9.73232469205133,0.0024652318269678865,-0.00024119247794945466,-0.00018150726815306447,0.19
0.03156007162205317,-0.1250376358245212,9.91455189324384,0.006584430399053699,-0.024756457716404823,0.005769533651266923,0.2
-0.06523609287254166,0.05867309146461918,9.859405184916698,0.006393981660252809,0.015790353789549273,-0.012239465070954364,0.21
-0.04741668800815409,0.06518197839210792,9.861944422266037,0.0028241464425778884,-0.0039972815006269116,0.003292844217775913,0.22
0.3151733215213639,0.10178413378652336,9.633581842344775,-0.009623019283787036,0.003184765143590014,0.007206833823184297,0.23
0.08287931506766943,0.17977403423104432,9.61714182576734,0.004756518166320018,-0.024574099798101736,0.000851185590104063,0.24
0.0016783161496257593,-0.02319921862760796,9.718014500877711,-0.02726362748480057,-0.01606741864069298,-0.01389237053656019,0.25
0.039990492184760765,-0.018424134576805314,9.833227449899011,-0.0075315588600244465,0.01657532595670446,0.00975527633738317,0.26
0.05830849934579188,0.08957875049232661,9.821705973233502,-0.013462521083377841,0.01640084930309031,0.0019053132060503272,0.27
-0.0347678528959091,0.02958795840872156,9.781227078834783,0.008267999722754844,0.0009443315724976747,0.00023897492515837044,0.28
0.08615893520105689,-0.047190405969024296,9.796457189619131,0.0181802708280753,-0.0013966228317339386,-0.00799209224065403,0.29
0.17248289523885266,0.04304688360374237,9.851960774823544,-0.007276421620209195,0.008162082616888574,0.021449838855134885,0.3
-0.11402614591004286,0.017572828630988722,9.874645002636331,-0.006632548841315218,0.0048506962738468105,0.0015670533906475723,0.31
-0.06862696043968002,-0.024619484211827483,9.56469759087512,0.005077987413962077,-0.0115537127302442,0.007952636592358382,0.32
0.013053884371317829,-0.09302745176832677,9.724499923375765,-0.0018066125396017027,0.001628492975453021,-0.0028187155815834314,0.33
-0.09200357500777716,0.16885418506586727,9.788260348545792,-0.010517806702941236,0.007623974106733302,-0.007639556391558979,0.34
-0.0505135829213359,0.05874110983529869,9.982563458361573,-0.01893793562907358,-0.016533994205080237,0.0007462414902119523,0.35000000000000003
0.14634056226007267,-0.24471730405134157,9.824130516954053,-0.0030081411631785403,-0.0008136231123188021,-0.007646916347644292,0.36
0.18471374074476812,-0.062209359135462654,9.836777237021247,0.006370867051895209,-0.016387591655905462,-0.00842433397898474,0.37
-0.057214179566813045,-0.0747845072717799,9.844622774810606,0.0019237672032024,-0.005722467086787606,0.014072011334181352,0.38
0.09186687748724048,-0.045715723335861054,9.879204640770878,0.005531688573137248,-0.0017497807440565976,-0.010451037139274038,0.39
-0.14245242810583153,-0.044541987584454046,9.864204043357946,-0.005160530674361286,0.035863782581532354,-0.0023097956192969765,0.4
-0.11298049423962792,-0.0031799066233448776,9.778917667180194,0.017299747088400808,0.004141253722091093,0.0016580600748206994,0.41000000000000003
-0.16070066510831085,0.18525453660422742,9.890450415980675,0.005459092444936839,-0.008188305372398678,0.01960964236803254,0.42
0.0710704763584078,0.04638710987603317,9.849486493147396,-0.012797094394448195,-0.0010064603129912991,-0.010701613210636816,0.43
-0.20041229479817543,0.01305249060568598,9.841777498783916,-0.016788959497564954,0.004884596305024443,0.01262684514730372,0.44
0.16249737460326485,-0.14231115523882043,9.878987502017262,-0.002499598456986657,-0.0015441352238003193,0.006595570611956019,0.45
-0.15039628798287946,0.18355251044125243,9.799829481306357,0.0011056690015783647,-0.015772481890217564,0.0019175107545765225,0.46
-0.21697715425001177,0.10208933702166485,9.766709889876664,-0.008141878284899083,0.009332728370832844,-0.018842923989070143,0.47000000000000003
0.01909422671248325,0.03022372184684385,9.644494554896479,-0.014808132834183625,-0.018857803286758745,0.009463727164696458,0.48
0.013455143597924588,0.023302498136681473,9.850684603981184,0.008199068685809425,-0.0054851746536312765,-0.020422825498632665,0.49
-0.18913599645427973,0.05220273914946394,9.807889460090722,0.0008954674468700648,0.013594940938332424,-0.014357201155664197,0.5
-0.00963142388882579,0.1415977914418309,9.922770304845972,-0.008484340710595653,0.00681400757441337,-0.0036477591644013276,0.51
0.03008586452405205,0.03483155475511222,9.648782963701299,0.003787524499189029,0.011305704811341582,-0.006812912811749109,0.52
-0.11461142123593573,-0.06715411620957416,9.762453226545073,-0.010020925855383571,0.00021063208806196767,0.018621266841158144,0.53
0.1358756636285796,0.10807929442283659,9.730488340623578,0.02350657533905806,0.024650603209423427,0.006831326771355514,0.54
0.035410787207295985,-0.0517644578177339,9.985309606413047,-0.012326637607533069,0.004037097292908411,0.01620211040360628,0.55
0.045356697315832264,-0.02259561074744025,9.643361173821027,0.0070704674789555146,-0.010861524487912057,0.012794559405746338,0.56
0.13490967477276158,0.08542167587965686,9.820520645646985,-0.009926810357903739,-0.0031973437875658733,0.0023231184976059477,0.5700000000000001
-0.09245392930795841,-0.12964684293154438,9.748507299020345,0.005574762358853317,-0.0019949364116407416,0.0006715811506482766,0.58
-0.02088263395537389,-0.009478443436619681,9.772992046374961,0.006292298796393815,0.011953822538092119,-0.010572434551730419,0.59
0.10560985302352853,-0.02321419941872474,9.834598058423085,-0.0003736204155268784,0.008028783567345916,-0.013503668454938719,0.6
0.06649181538051588,0.007604740167197904,9.72135290633881,-0.0026593795522908627,-0.004240731500776568,0.015750955860400786,0.61
-0.08250190917726524,0.1301713916323079,9.93284767198821,0.013080134456729788,-0.0071661030749238,0.01004013009922254,0.62
0.22322355371115657,-0.043414603790307094,9.737075739451411,-0.009452427273659046,-0.0020193697799407674,0.0010289172229061084,0.63
0.016710481652111624,-0.11737597515288377,9.910210127426202,0.01012690611576212,-0.009560001874556188,0.005433707548964334,0.64
-0.17558900037031452,0.04262747909489632,9.931525814819103,0.01122170391365284,-0.006593565910568093,0.0018871362979842499,0.65
0.0914607288648766,0.03868094386329218,9.747467380917797,-0.011777895572502502,0.005113387615576676,-0.010466525646925778,0.66
-0.05045256538040158,0.1606703047945559,9.833658622370129,-0.016101714718784795,0.0100137943689981,-0.0013172619937308378,0.67
-0.15279632606759141,-0.03174581676659112,9.670572244679912,0.0038278040497516414,-0.0011905474181812265,0.003129680672328008,0.68
-0.11739350592973082,-0.11497404552937206,9.790064998927779,-0.0036538560695932028,-0.0026849959144805463,-0.008835972212086842,0.6900000000000001
0.07285612319537894,-0.00605100794723454,9.701553774659384,-0.007465008432311501,-0.009476661161046757,0.0017920014206665208,0.7000000000000001
-0.050240523746957914,0.03399699522299238,9.794810553502208,0.01030739007994679,-0.0016710483097722145,-0.008843343174933392,0.71
-0.14411986938695934,0.020730860414193704,9.670263984509043,0.0017889468342878925,0.0030106048952958835,0.01940157642645727,0.72
0.10027005034292752,-0.034610990834590044,9.970706373288005,-0.007437961634965378,-0.003930740855375213,0.006405708190637386,0.73
-0.03967036242237792,-0.17836192939073625,9.867835603413953,0.0002673668660363743,-0.02564822889406577,0.014754164758585946,0.74
0.1444831447283687,-0.0718257422061267,9.931515068071898,-0.010074653688227131,-0.010669619141633802,0.013607000284519536,0.75
-0.17936065727175482,0.0012437955975577021,9.74876815976327,0.010814032906993773,0.00020043428556574885,0.013892742661335819,0.76
-0.01382854873054108,-0.0469778095814158,9.906154969677004,-0.011410210775517531,-0.00661168751571869,0.008586055187740695,0.77
0.00736607537037513,-0.021002006800631395,9.884636466344867,-0.0018872915438452585,0.0032834026675408836,-0.0018285222998044666,0.78
-0.1166362019836875,0.022513841917258817,9.689054853139204,-0.0022391524743404926,-0.0064675604730623495,-0.0022551866632090074,0.79
-0.11204991768702305,0.09605003611798468,9.71885554024411,0.015349049683545843,0.02687937940073556,0.0032969013718001034,0.8
0.18152668379865447,0.007416846652121677,9.806644480162321,-0.003257644593813437,0.025507710626433578,-0.017064093216879708,0.81
0.028460875319694746,0.07573507557671623,9.725606347971212,-0.004240217663227721,0.0031121814999043197,0.025282129560526043,0.8200000000000001
-0.08660268835838845,-0.0008495553857047859,9.733788044498336,0.016496940694877855,-0.009649332664369393,0.001977478290813437,0.8300000000000001
-0.018724745530421506,0.06516893601619704,9.683227019671428,0.008207671797461357,-0.021680504382866568,0.0076179736023119695,0.84
0.01955611473375106,0.21462573747200553,9.823945029587723,0.00551860193890968,-0.0014973182461031488,0.019063160299750696,0.85
-0.1764967550281553,0.10967301138844839,9.874671242744855,-0.005697977926004542,0.010796031462317815,0.0009418577524681124,0.86
0.08889302524172954,0.023989326218524502,9.794983896393637,0.002531274529524494,0.00811890343498201,0.00958931204817448,0.87
-0.0915910887534868,0.01720656903272499,9.757639709733265,-0.0004684480095012991,0.014480584445901659,-0.0032804017400105048,0.88
-0.18042331015528387,0.02082219487189975,9.768820163138479,0.021896502982023232,0.006168282727243713,0.015621146994201147,0.89
0.07315871103639221,-0.032007861419643714,9.727324212881014,-0.005844426809351786,8.801250055772786e-05,-0.004837185481558526,0.9
0.16739874741583924,0.06715312687087426,9.772482390729785,-0.004146486716240532,0.002264062735719296,0.011173648495049262,0.91
0.1290424686208081,-0.1588747578711252,9.77497493187704,0.0011765555726475448,0.0173136906103459,-0.004508805150716264,0.92
0.027936811630692428,-0.0655368241269629,9.89774140419317,0.007936439923235455,-0.0019246918238645847,0.0042855523662791006,0.93
0.07638452760219172,0.036375348222493026,9.74492645618669,-0.008029184592699827,0.00018457580913765607,0.00618382853914159,0.9400000000000001
-0.08518734996668051,-0.0011540488526668095,9.950995902533203,0.011783506400759286,0.0022126924554609077,-0.006273858400831645,0.9500000000000001
-0.07686476429933069,-0.05389662631674883,9.890524450088094,0.000779697919420921,-0.02430666360997824,0.0037028155533130997,0.96
0.07040800530857565,-0.019229132949235256,9.85921234380813,0.00964143624925691,0.004810483676531606,0.013702540333497439,0.97
0.07184092219118808,0.01728027606448751,9.826957318592612,-0.010885147123452852,-0.0026864903567028735,0.010765751716295499,0.98
0.16507021879751477,-0.23964720856600447,9.919698994657008,0.015143347294739136,-0.008400998857157874,-0.0012525908675267638,0.99
0.14810271394254124,0.15586974461230896,9.755581266885832,1.618196202796962e-05,0.015077719874272888,0.009856252614178142,1.0
0.21962611402551,0.011333747237895155,9.824313690133291,-0.005526545123182802,-0.007386442512424473,-0.002313204833001334,1.01
0.08262684911243207,0.071355712061965,9.766956266110935,0.004792137886489798,-0.00495617774664513,-0.018472055215056297,1.02
0.036467813312128554,-0.08118010325960251,9.83199031562759,-0.010450138649230261,0.01033157631066317,-0.011345467974500692,1.03
-0.07287205226954362,-0.018044813229286655,9.9060770133061,-0.0016702440780594784,-0.0049460500922433835,-0.005761728840532484,1.04
-0.08958176761912424,-0.17059410929757907,9.736093861034153,0.003352185718967217,0.0124416436196939,-0.0037521511117160344,1.05
-0.01291542553401167,0.00492611279350636,9.614602163402779,-6.642083997269416e-05,0.013920826212668219,0.024033129843555778,1.06
-0.13538035156054276,-0.005792355519756681,9.975674968151264,-0.008751836774867494,0.011479901157294302,-0.016231920780801056,1.07
0.03833376031369501,-0.02187821053811017,9.648983226215524,-0.010026346065190659,0.004129400927807679,-0.001075597121167345,1.08
-0.07627659727104534,0.13594130392670364,9.89027485031158,-0.008531812786249184,0.003219072263689554,0.0005163608193821683,1.09
0.05133370463047357,0.043482163649380845,9.753789385388993,-0.0009399521320643296,-0.007856798249516133,-0.0031283993131593175,1.1
-0.07806721705341277,-0.12204320413575952,9.75128124734634,0.0205707818904486,-0.0032701028124223087,-0.0016682409460215116,1.11
0.10963337439727223,0.011383416981933585,9.77465453914886,0.00898949615136705,0.001235332329196212,0.010513029051301808,1.12
-0.0850451718575122,-0.00949152878468984,9.842913876205515,0.018848151007414486,0.010681733102390473,-0.008188343264323009,1.1300000000000001
0.01224849537184239,-0.0497826862963289,9.830469707112634,-0.012596104124258736,-0.014438159877447794,0.01647158096632458,1.1400000000000001
0.0058922258366175635,0.10479049754684251,9.781510510325084,-0.009484179272087022,-0.005252614644457345,-0.0034195689700939496,1.1500000000000001
0.06206703413550814,0.02479111382577032,9.821307983744768,-0.009484007892166434,0.00968311768713954,-0.006460200064250452,1.16
0.0254548382759824,0.10372694959684253,9.963470296749822,0.006533875530978568,-0.0009501897576820281,-0.008524948835764807,1.17
0.007691754038280832,0.0014239507975054068,9.791206474619154,0.009907110026861298,0.012700664512319914,0.002492660927785609,1.18
0.05068113831311327,-0.19708817191529665,9.922268915778162,-0.022395817655112695,-0.00017751655110599527,0.020041112828221155,1.19
-0.11750274429825758,-0.04108093262028076,9.635804656308933,-0.0005741316932693343,-0.010340468482845264,-0.010305433663821676,1.2
0.08635663658275301,-0.0717976099927539,9.982539346130613,-0.0001969815472117504,0.004152168416420907,-0.012385192741022824,1.21
-0.0035893792482443523,-0.1309085256694427,9.783900828440286,0.0007026962742068604,-0.006859758713848779,-0.004502485496258796,1.22
-0.10259213918515796,0.048285496410334534,9.891349138091913,0.009179394126721977,-0.005984237646657376,0.002410257011038076,1.23
0.04203915124455324,0.11086290213262617,9.734709376804279,0.0017542376524808897,-0.0013115262386696495,-0.018382105592431353,1.24
0.08607295509781443,-0.103481393445393,9.70473823498544,-0.001589892780177149,0.013975134210485605,-0.009617856252902903,1.25
0.11304412265100623,-0.030705772614641854,9.720352353366756,-0.0013948360835082149,0.001410006752423341,0.005456747433218989,1.26
-0.05993888500404232,0.028378850878836882,9.747752768115534,-0.003749150170820123,-0.001522966103933154,-0.004434378244630571,1.27
-0.007976029610232449,0.12535038124825,9.701136959758196,-0.006085764015042476,0.013948073410366985,0.008238370562710772,1.28
-0.0276242401516808,-0.04558147833478532,9.675441216857932,0.0010283370258112841,-0.0010847258434060606,-0.009449139743644286,1.29
-0.050919837879143205,0.04188288207461002,9.848624011237481,-0.01525604105288873,0.00866957387986527,-0.00038109990016871423,1.3
0.05439766225072945,-0.04605956101323233,9.825003623376983,-0.006015695748110978,0.015415454060158087,0.021692227630223396,1.31
-0.0956582411628622,-0.046015874879472986,10.147243884275854,-0.013783990532135136,0.0034831073241589424,0.014348728740363397,1.32
-0.03260024771406426,0.043269986336347294,9.683804155294828,0.01815435000994783,0.002003620678599415,0.004452469354373494,1.33
-0.046426315767475294,0.06009554659193176,9.782334335231855,0.0005522415814817332,0.013386701366918751,-0.002275964232394981,1.34
-0.10611013837007609,-0.003735070085787592,9.894467963026656,-0.003150664857297932,-0.0025606058133602837,0.010199316443525041,1.35
0.011211779271300855,-0.008347865353344187,9.783877814779723,0.004030189900992975,0.009149676596621066,0.011129816959750405,1.36
0.03702416802692556,0.02156963939219356,9.833743519817952,-0.008416045272567249,0.0043009040410274604,0.018169156689163878,1.37
-0.09247558439196868,-0.1337214523461406,9.846807120456349,-0.014264995443629339,-0.0047821192087791455,-0.014761002956282463,1.3800000000000001
0.027097279208725,-0.017810723510513347,9.985698065049673,0.005307218391740122,-0.007887814099082,0.0032508345063627137,1.3900000000000001
0.04420755412023379,0.009650239568856024,9.668804953396279,-0.006223058152226372,-0.0026733931944113265,0.004330689261627268,1.4000000000000001
-0.05557835634103726,-0.11894037356657045,9.924103627789226,0.0002668715158352568,-0.008408800380696897,-0.01821252941976377,1.41
-0.1494719858851881,0.012370030073142748,9.809564833956847,-0.0029862585512284174,0.00880188664657114,0.008540038618579599,1.42
0.0038496186480666593,0.037932409421745805,9.812384574093235,0.004012018335229248,0.007157893843342275,-0.0006642479972881977,1.43
-0.14451524875762417,0.07399547600237542,9.5382347514249,0.007317564548205097,-0.0021733629808633904,0.011369770644770159,1.44
-0.256440312852324,0.015911510915242438,9.804448982065999,-0.00201868405924205,-0.013886380647930041,-0.004760128501974447,1.45
-0.14451848645311247,0.020494064936047426,9.918164545611154,0.007271124159087467,0.010461823260479005,0.013817319046940765,1.46
-0.10326303785414546,0.036359471031097226,9.834956582127273,0.011137167996350773,0.010609082038332742,0.01092341465634595,1.47
-0.09678482812936025,-0.010167340364998478,9.849318459009199,-0.01766738735849978,0.006384538463245944,-0.00829659475729391,1.48
0.1954297683075604,-0.07246824693048146,9.948804410241065,-0.0035962593040485048,-0.018129142404004976,-0.007530061647773637,1.49
-0.13282424139000545,-0.12948444096735742,9.793874700507681,-0.003498628403455483,0.002178653246836229,-0.017016965402111246,1.5
-0.09332038881029567,-0.06850879444540708,9.925716569485532,-0.016133881862596077,-0.00940648617784966,0.00868839213847072,1.51
-0.03636718352851756,0.05312342799666178,9.76259379286209,-0.00692504700439553,-0.017939074786997404,-0.0030264927722441623,1.52
-0.12560828075168282,0.10386699699563506,9.899249956966509,0.00015293351415487382,0.006593510027738359,-0.002125499871688941,1.53
-0.15889352790429237,0.05321967956106497,9.95510989616335,0.014441107564596536,0.019029535106540138,-0.00036568966817655596,1.54
0.05405538963114667,-0.12125089950560515,9.786879977447928,-0.002984620573455837,-0.0002556376262822137,-0.001038760169935576,1.55
0.04167845885555657,-0.22726588736669792,9.770765582654223,-0.026067922482480306,-0.004754361252037135,-0.0017556728334370089,1.56
0.0865910466692598,0.1277291258790057,9.796657478407935,0.004537239795759078,-0.0009753024166391549,-0.004277468908044006,1.57
-0.10680115123224372,-0.0815820551021968,9.880740425913123,0.004028988288712877,-0.01024931127512891,0.01103264699353619,1.58
-0.0749252111528252,0.12341610432187065,9.945815900926073,0.003737514437293695,-9.452374370667138e-05,-0.006160316333443903,1.59
-0.0076002570630933925,0.10470371662722483,9.733488033362118,0.012795804578137256,-0.004107172642382275,-0.0028134019734307675,1.6
0.10936836730521077,0.07949998613438579,9.603582574654144,0.001936273538775541,0.004294649553086142,-0.0032443809980570717,1.61
-0.026451025587017438,-0.053922674762962856,9.849046024641739,-0.001467107143051859,0.0010077092406934052,-0.00026702853559141176,1.62
0.0501010225181886,0.06791814910036627,9.847413481451255,-0.02236277147322055,0.01087134939022651,0.0018318793653009345,1.6300000000000001
0.005169557152310592,-0.017838464514231454,9.835797901402998,0.011594209284122619,0.0053921618673380325,-0.0055901387725204015,1.6400000000000001
0.05525693139981372,-0.038537066536890874,9.743394230685357,0.000584163365522606,-0.017182602691414025,-0.0018175192760873547,1.6500000000000001
0.05433601165286567,-0.08820733618694569,9.900301188798611,-0.005536905714582664,-0.010090140570157627,-0.015390466762124428,1.6600000000000001
-0.06547506573952017,0.07849618065020009,9.968138907246928,-0.00638688458457276,0.0011418244187660948,0.004982124978113514,1.67
0.003885593424926953,-0.10393661265549747,9.82534085942739,-0.003562293743534149,0.005113476081962685,0.0006366599904244434,1.68
0.01883241045054733,-0.06995021829118728,9.842911214713972,-0.0014892697997020783,-0.012708231223286862,0.010402796454526818,1.69
-0.01381789644950776,0.09026186886354244,9.938352158804168,-0.006371214032096886,0.017860784792806356,-0.0033939155351562673,1.7
0.026907764686405867,-0.026141065583609974,9.911152067824867,0.004510764547634961,0.0032409666106263725,-0.010434994325656049,1.71
0.09926343460657133,-0.1461017509610819,9.948840316146267,0.008920431842460878,-0.02157216427870957,-0.0015829733892044487,1.72
-0.0590036354502263,0.058888937678154576,9.761282556040129,0.0002391768877037773,-0.004658794558750901,0.0068178377613004595,1.73
-0.11272308991339824,-0.14741510245421321,9.781704637010966,-0.007324953527026714,0.010224080049391227,0.007324271372476945,1.74
-0.10270045872382055,0.0961171924063947,9.803588299891759,-0.006567081742836861,0.00584094534436649,-0.00838525746491937,1.75
-0.08089167353066651,0.11495433295250164,9.95345248053653,-0.013874881734395954,0.004217059578680492,0.013498061090019685,1.76
-0.10138361285168392,0.011073394401446226,9.781092009409942,-0.006284516799536544,-0.0059579289827047304,0.006377732005143386,1.77
-0.11931427842867531,-0.13462718351312128,9.620633108236603,-0.006027284286461342,0.002266847059199224,0.012019112391690224,1.78
-0.2195813045627717,-0.09828909475625797,9.99994716753973,0.008137137029182312,-0.005303637504040386,-0.007994200345730805,1.79
0.06997885898585575,0.0032738689708686724,9.761909570502223,0.012790986512795133,-0.005481926839403218,0.0063294691271222675,1.8
0.010762127810409064,-0.13138768141907367,9.829892198015543,0.00648608555890651,-0.00243050433867603,-0.009500910111458717,1.81
0.03564059337525264,0.04145739218763922,9.757339759688476,-0.007860810477182909,-0.003557877439718176,0.008624059196610235,1.82
-0.1818135505014623,0.06921727680398418,9.800835068271388,-0.008565109382367219,0.007739091444128238,0.007010944844978362,1.83
-0.02531644656706697,0.11839397842170021,9.876923262609342,0.014702013774131988,-0.018277578468583366,0.004219571272295129,1.84
0.09429408028724261,-0.018868614351429735,9.873217118638628,-0.004698390413408924,0.011944679328557592,0.0018828105961566808,1.85
-0.13753876214718194,0.28281417957195365,9.855577650208318,-0.008327273111658153,0.0019218166295480361,0.000144617149008854,1.86
0.026409454855482146,-0.06298622408592457,9.827217624372725,-0.011245406644312426,-0.007989579896867473,-0.015912686905383003,1.87
0.15087445844412462,-0.11922354036357186,9.841955534181754,-0.008279314308269227,-0.009347562060180045,0.0050852647930876614,1.8800000000000001
-0.035931381068144495,0.09675895398046054,9.811749522390881,-0.00982811638891819,0.011206104843825854,0.006482727406177528,1.8900000000000001
0.07315204116889694,0.013294069868311357,9.815686991332775,0.004768095781482249,-0.0024524621799548296,0.006696299264057382,1.9000000000000001
0.014074896498085541,0.1086975239679696,9.69287242091613,0.023320462930686844,-0.004212949958913055,-0.004164108866466339,1.9100000000000001
-0.13808200970988582,-0.10599641793813266,9.820522800682845,-0.01386980438983385,0.0011436639590891719,-0.0012921428848727005,1.92
0.019810241913388933,0.13794868918688083,9.859107611228893,-0.0021114015828267354,-0.014257299830307532,-0.0059555290682305395,1.93
0.14900487732908105,-0.20152000791731559,9.835546038808072,-0.021461861253588267,0.01060677188591239,0.001502754742422377,1.94
0.02006161758814279,-0.1099255718172309,9.840068430662146,-0.006812476964828924,-0.006481017763494249,0.004650784625963692,1.95
-0.010160626427493416,0.050656144640820834,9.900338208222276,-0.008676599490252927,0.006648662545630728,-0.0025798415159210054,1.96
0.09997670902052898,0.0800499456590519,10.062180445843497,-0.0012978535801085992,-0.0050924428899468775,-0.020126427639749287,1.97
0.09766325477094698,0.017026086476722914,9.90419044216595,-0.010784738024017766,-0.017475129682621132,-0.010161367754103454,1.98
-0.03020164221255516,-0.017121151197053833,9.700441692175158,0.005075086072349637,-0.006025367758603918,-0.0023721370044715987,1.99
0.1031397943976352,0.06820555903681565,9.817875426417372,-0.015584586584999137,0.007394771210781693,0.0029545262781325078,2.0
-0.08296150600438935,0.08946641072693469,9.819384991028743,0.00318080846500821,0.00218824401699482,-0.009800324901499218,2.0100000000000002
-0.05051355065407751,-0.11342153893559244,9.732860611493127,-0.009267361142803297,0.00039030850591861095,0.005952263276302914,2.02
-0.04998036456233968,0.10379169409491257,9.857249217161119,-0.00909615652346808,-0.017557780835681224,-0.007017766443671116,2.0300000000000002
0.16048020214531772,0.05165246387605596,9.65386080786493,-0.004712014474126157,-0.005921044040790461,0.00925967257356201,2.04
-0.06408032388190453,0.06234453955237673,9.765674253956247,0.0008921001031578204,0.02404806627521441,0.0011402825648672275,2.05
-0.08516764312709998,0.0811440026236557,9.669650743219101,-0.01248361762289768,-0.0031192866515092474,0.004524909993839743,2.06
-0.07032901150351295,-0.030502064423668623,9.85273220944607,0.010543804047248972,0.0027281097535949072,0.005724256497835268,2.07
0.04814588915480712,-0.013339789364283787,9.834094279110237,-0.005552789882618698,0.016865268515747715,0.007076413432694916,2.08
-0.20169919267556435,0.006293628232360464,9.77771402588803,-0.009380653048108914,0.01856869933867256,0.016467629833665804,2.09
-0.12559786575246476,0.005331205857338626,9.821847734372545,-0.01658185696322166,-0.0032444098118651478,-0.0002719984681560371,2.1
-0.0028941724759955086,-0.06365549195436779,9.806366363156576,0.0012410092806699575,-0.015923710138724966,0.004713778476168334,2.11
0.08156827647111126,-0.14560952043999106,9.889979173547957,-0.008819912002363674,-0.010786865626925405,0.010087424340011317,2.12
0.051138907355988285,-0.11204421058330954,9.823958794089076,0.015289694870132554,-0.006825902506461305,0.0011098514001711458,2.13
0.020938550972560477,0.030224657863298844,9.797326219156387,0.0017426265843871183,0.008117436534215297,0.012730198682894345,2.14
0.039160167935328755,0.09357092127476371,10.00261044867883,0.003317255712452741,-0.01079237814677438,-0.004105362105357472,2.15
-0.0003036329059125356,-0.12152378255393584,9.86057454720547,-0.0181252193535129,0.0027339597093489917,0.0078012461554186055,2.16
0.08807844829035565,0.10930388136826422,9.777247633940577,0.0021885300929341813,-0.008427974965758324,-0.004166540090333787,2.17
0.08903667113541558,0.0992716235486486,9.979267514719496,-0.002642667049768451,0.01292340713181162,-0.0007534480572876228,2.18
-0.26965613671097366,0.09252666785502063,9.73562824736156,0.004550780764850756,0.01647770156566174,0.014722703274932645,2.19
-0.21372890034898592,0.17159604204005918,10.046996276103856,-0.0004434644245807287,0.007206544468668266,0.007434927896912972,2.2
0.06374442670291355,-0.22796961562326437,9.773634112295133,0.01100311899645196,-0.004247762796377454,-0.002849362319979618,2.21
-0.037790512401160256,0.00029961011458266634,9.904579215862457,0.003476354979511108,0.0052622244247060215,0.0019553854933515575,2.22
0.04748265279827199,-0.07351092537507707,9.939731986498403,-0.0037911642187341637,-0.011336347791222239,0.010729631906458896,2.23
-0.016657036245521926,0.07517989148157768,9.75126693475551,-0.006092936588582424,0.003832938829427901,-0.00014047492786141064,2.24
-0.04862371344874475,-0.14872245653411895,9.815881108566444,0.003569313957125381,-0.006004124662133223,-0.0030126058234868276,2.25
-0.18618623068875048,-0.004522333535778035,9.775456071827557,0.0008636904078495962,-0.003993753872675679,-0.010035000204131077,2.2600000000000002
0.1001837397647571,-0.11059487853895306,9.720182832751764,-0.005082841225686049,-0.010655401587943885,-0.0240702965400103,2.27
0.22783776070104042,-0.09994605550377711,9.859390292886872,-0.014115481566656516,-0.0031101011915165002,-0.007030153087036777,2.2800000000000002
0.07516920299011969,0.04717686427365635,9.773502294072525,-0.020241780776412505,-0.014959040747841476,0.02519339373044861,2.29
-0.020407601927126193,0.17948250208158112,9.841742890401123,0.009018190241638526,0.011514345190680795,-0.006993437428291159,2.3000000000000003
-0.11886410248769003,0.07933891517754046,9.663101231099054,0.0012398438565853613,0.0059585718077817896,0.0055633682186672796,2.31
-0.08139675177620141,0.02645396761491703,9.775780273379429,-0.003576696345930338,-0.005054530774495918,0.0002960070542373943,2.32
0.03367065371514209,0.050281786350298785,9.710533292902836,0.00024871316419985186,0.0009050186209326976,0.019055983907969518,2.33
0.13725378133415772,0.0069993189585953255,9.769339951670457,-0.0007347031561279212,-0.0008463166787937486,0.01005490772805266,2.34
-0.10049282997026548,-0.1350284325184728,9.918489615171957,0.011268433185833995,0.007097937997904688,0.006960394883155084,2.35
-0.011385892257268507,0.1576106554288338,9.82914892313776,0.012208554306368687,0.008103783699565246,-0.007067000478120076,2.36
-0.07143040430668797,0.08177141511455244,9.854759421867248,-0.017609106901144467,0.0027975750789622144,0.011927022461734566,2.37
-0.008574512827727391,0.024694446428693437,9.8810437677325,0.005634070830704602,0.0005075890899388896,0.02447152338568446,2.38
-0.003027138349006443,-0.050265408583733864,9.848857807674582,0.003421328292854187,0.007174778936576232,-0.0006726911303011185,2.39
0.035738004425087726,0.06606504776375403,9.795685480888164,-0.008867072415073991,0.0014323162655810935,-0.004883765993985312,2.4
0.05977418496788444,0.019325848545651572,9.80390535161444,-0.0029472542722762895,-0.002132138425992512,-0.025917687567892207,2.41
0.0192409330241233,0.07952456890346925,9.823156790515975,-0.00449875083559266,0.005512550362732796,-0.0034009944268602378,2.42
0.19641427552906024,-0.07298625262673385,9.739756464526643,0.011238402712755459,-0.014177268232418761,-0.009330005872821224,2.43
-0.30842053923113155,0.08223393694340142,9.744329739636008,-0.010063538305274192,-0.015469140922076753,0.005661848316700112,2.44
-0.0803455616865519,0.1695401296706633,9.95575244784779,-0.0017399791651090065,-0.0033641811160769614,0.005384714419726524,2.45
0.020786022299667768,-0.0651129092870744,9.739604397178285,0.01896313675664879,0.008352635102179085,-0.00804183664069329,2.46
0.10139984945437873,-0.00787104209597929,9.91893368257439,-0.015967367984294274,0.008430389926898142,0.011215203262559557,2.47
0.04111693753169419,-0.034570474336291755,9.712454963890577,-0.022396807865568462,-0.01898217495291547,0.0004104387903555378,2.48
-0.07337732897647974,-0.09456642145154996,9.753747636125203,-0.007329226354370906,0.0047042522928399475,3.277213561288997e-05,2.49
0.027505165271263534,0.05543115245341479,9.922635314570195,-0.0016734834482295252,-0.014633814427160965,0.0038333726455647005,2.5
0.11843365724093471,-0.004119664626923456,9.768081308434393,-0.003242827864327954,-0.004996832962141899,-0.006919456902456216,2.5100000000000002
-0.010608145699747119,0.01838526157720196,9.813999512470271,0.0005492985586771045,0.008322619280817218,-0.004500298948909044,2.52
-0.06017561831773385,-0.03672628443642261,9.778652185860523,-0.009041950015139872,0.005248854810239485,0.010891194051759943,2.5300000000000002
0.19185671576433616,0.21878263225473038,9.731239140286515,0.0011132862231661976,0.000731758402108132,0.00021327611323360366,2.54
0.060581666788879364,-0.04355797381886651,9.700189406184206,0.009991759588758174,0.0041762029914118445,-0.006413569316907383,2.5500000000000003
-0.27090756193956467,0.1250751799167604,9.810745666001905,-0.012807422306108141,0.0008429060981624105,0.005427215057684037,2.56
-0.2639962997126323,0.09554419378870364,9.935140908978175,-0.006001262919027932,0.014307982494864124,0.011316915115563571,2.57
-0.002309494846461967,0.06950069575220448,9.690655371120775,-0.0022248688215006154,-0.0032317898173353783,-0.008011396744469958,2.58
-0.049658069464393634,-0.029831121129867123,9.77590990734341,-0.005687794328150313,-0.00019575357052028112,0.013009980399976664,2.59
0.03755987462229412,0.12014268151333772,9.727131168339175,0.0007981927063848024,-0.0034425387067711526,0.0035591687282788445,2.6
-0.06542904707397329,0.08000403976295437,9.855313906566302,0.014090513347243525,-0.01796014697711054,0.0019470186821930508,2.61
-0.06417990632274624,-0.00997903060472486,10.023786080111966,-0.01477262364270411,-0.022941476047490115,0.009561439735538614,2.62
-0.053438431911299045,-0.08690897198866049,9.670726300221771,-0.008013487655420539,0.01819413289503315,0.008067823955362916,2.63
0.04318346325149497,0.17776937530350734,9.72415328190819,0.001023148348550793,0.01369398066198128,0.0012887770015070118,2.64
0.03634216466377649,0.055537571203209006,9.801863434769107,-0.004509819905582028,-0.005143504510863726,-0.018390401457955154,2.65
-0.05483872630422722,-0.028419812143706952,9.954835747885037,-0.013577159949646906,-0.001800246917411394,0.005269023285954276,2.66
0.03819760383078229,-0.01321048544907138,9.942431721468427,-0.013596212522656583,0.010905709552041462,-0.019877364714021357,2.67
0.2627225699870181,-0.0766063432979664,9.754875544646863,0.008245322081997509,0.0035718478009619187,0.0015609738269778265,2.68
-0.017532412746579126,0.15505028948984909,9.982514692669469,0.017205685159960897,0.003621104305828576,0.004600844467009197,2.69
0.010388763062283642,0.06386297919245303,9.694960164348602,-0.004395615864283102,-0.004792081554138876,0.005784373369345819,2.7
0.03426340972780182,0.23512789208858387,9.867981809542616,0.0008720811494712065,0.015776415320379905,0.006213016092723629,2.71
0.09583832766087413,0.017517050116114895,9.870390409472781,-0.0027531735901841887,-0.01478053803020041,0.00802716459038412,2.72
-0.10622465766211453,0.05466656236699494,9.793291541990403,9.610431371026355e-05,-0.003058529971960316,0.0018271701160129878,2.73
0.09506180624022673,-0.03184625085274824,10.003403459095031,0.00030778223681062573,-0.01832728726756387,0.006888549996919215,2.74
-0.014332011542091797,-0.13422471214352666,9.699805104603357,0.011402819206408787,-0.0057931503640508124,0.005423682464686368,2.75
0.052777336512320853,-0.020986526051190765,9.76448928279201,-0.008290928635349283,0.001213911589211246,-0.0008482495242274711,2.7600000000000002
0.14933711007529327,-0.04696787843612438,9.864461503164952,-0.00447040090411415,0.007980669064921174,-0.010404821226150265,2.77
-0.07036217249465782,-0.11338401554262115,9.879729425427909,-0.012726368584441846,-0.004682409489514304,0.009804034260319408,2.7800000000000002
0.052546501846318254,-0.12661157193311684,9.85468692303966,-0.005072855682412323,-0.009761000395044288,0.0003895554953362103,2.79
-0.07820715998085626,-0.05761095544621325,9.9566321073964,-0.01086750298813094,0.0029209359018444975,-0.005199273443038629,2.8000000000000003
-0.018927767248052382,0.13917938299186886,9.7323405634298,0.007297919694274041,-0.011014033375864683,0.00264728994552166,2.81
-0.19285121480728348,-0.11778234232243173,9.824678185766054,0.005457755552743416,0.0037567081469272955,-0.02896325618774523,2.82
0.008672249371267574,0.20552208663242344,9.898586677268591,0.003642120954790617,0.019014738955415122,-0.013983776763725114,2.83
0.004098902276310092,0.13122892760889981,9.757592708175947,0.01177301062545489,-0.01211724976690018,0.005645243108751392,2.84
-0.24933109967005965,0.002402081749426555,9.741957425202193,-0.0019060455190601272,-0.0134405915831224,0.0035112169305219817,2.85
0.015708482106194403,-0.08577918593316901,9.853530593829436,-0.009774837272662054,-0.0071216068049265585,0.011049578756354983,2.86
-0.030043610420641714,0.0950024126519026,9.845003330304824,-0.0015450212666996838,-0.006194733367552591,0.0065630820831124904,2.87
-0.16563768828979403,-0.04825099092737007,9.842309265718209,0.005219248849200205,0.005115244610484008,0.0014727228699199036,2.88
-0.1209200333675175,-0.04748918374856822,9.789006205417143,0.002449567186631625,0.005183141332152217,-0.0009711641793387907,2.89
-0.11974708430170372,-0.08652065283350299,9.83443973967832,0.010073111819989778,-0.02194251192648443,0.0024946832230508397,2.9
0.05275209631057089,0.05642928562381633,9.773608378169472,0.00979227814005167,0.0007571039880611581,0.02163493700697745,2.91
0.08075097351758277,-0.11975459602181023,9.95083250530928,0.00494055484051419,-0.0010009194902164426,0.00020645393091911138,2.92
-0.014822828830776272,-0.04455675305283637,9.756090953465812,0.01494474017460086,0.0014305984335261004,0.0021998355417496016,2.93
0.12638807161449184,-0.010393197754474628,9.827609077811257,-0.007231138014537858,0.008730930626634308,0.01523532638618705,2.94
0.043760986759678835,0.1387325977660769,9.930473806785152,-0.004983682318353873,0.00556824418259786,0.011550101766699534,2.95
-0.09254190982117688,-0.14030185042117066,9.667463831124385,0.012521123791527573,0.0044015781597248884,0.025576492255527366,2.96
-0.05385573616087395,0.005078245713047252,9.882122636865565,0.016711433844632986,-0.0007624268113309559,0.011189816027819715,2.97
0.10222666228234004,-0.036783244697003135,9.808125725001515,-0.0033627168527440078,-0.014222231743163054,0.025883091740790377,2.98
-0.15634629053807028,0.0005751425926958028,9.769342948634005,0.017333451971431813,-0.007505894069643398,-0.00026010582067664107,2.99
0.12314098193507815,0.13627370765167587,9.779639205641383,0.00903896753937712,0.0033392877689057826,0.02311102602156364,3.0
0.06824238646495608,0.12496260559288082,9.94572831603917,-0.0019169866607806798,0.0035447171276404045,-0.013027888859088428,3.0100000000000002
-0.11905419100802489,0.1860192395224793,9.8060624228599,-0.00017264367529758445,0.0027791009913105953,-0.009676546156719793,3.02
-0.022966941783709754,-0.04676572058711576,9.590683597251495,0.003165468594157852,0.016608883826083883,0.005915771651952898,3.0300000000000002
-0.1822965126677867,-0.08625404778627456,9.976085006333976,-0.00561556969629946,0.0027780198006525764,0.021725987529861136,3.04
-0.17563851667405636,0.01663940052888669,9.790723034724332,0.007292676151545211,-0.008798994151178494,-0.007675249282268307,3.0500000000000003
-0.028128723153013076,0.3106067867306585,9.763277010924538,-0.013800079967154273,0.0005837992167648861,-0.01984484300492013,3.06
-0.0047705048646159804,-0.13315477878798956,9.79102331862422,-0.0033646729549256637,-0.006458114704582764,-0.0017897120684637936,3.0700000000000003
0.013664840620481334,0.02948525979030238,9.695430312968055,0.00743780757907105,0.0009128986772175059,0.006882230801281848,3.08
0.1783450671026801,0.02554726370430197,9.801634588056913,-0.011452287271358108,-0.012723551419305087,-0.00307576641384086,3.09
-0.16141180684250844,-0.18114959915472162,9.855324845470463,0.008339025901816777,0.004146051055991355,-0.0010376247059428394,3.1
0.013875573774953607,-0.2142093819540637,9.811850752989601,-0.02144705843631819,0.01261562219967259,-0.0019589261125610344,3.11
0.0791613331433322,-0.07655861374835671,9.914705710523668,0.0037032924976766984,0.009876173621851418,-0.0063795919429232495,3.12
0.020705101135248427,-0.029759793683499097,9.635631964862426,0.004643679491714569,0.00706490594484831,-0.000499044911158429,3.13
-0.0984677042612529,0.05365169745749955,9.693469753754057,0.0025927881841697315,-0.005518815764260114,-0.0036136579863962808,3.14
-0.06842079699240566,0.09100605669657137,9.793239475394625,0.015020702555118783,-0.011938576963378378,-0.022442190863231563,3.15
-0.13764279563841067,-0.027648655743955704,9.860828184452414,-0.013192630842754478,-0.003956973764355771,-0.011876614939893426,3.16
-0.07363006723842115,0.0021618401740165867,9.847887001919736,-0.0068488312782772134,0.01767002143766801,-0.010583478477395972,3.17
-0.06885913383118433,-0.1341591788027422,9.59864692677466,-0.005812987407600132,0.00026285890014135087,0.033760503691500146,3.18
0.06742948084135622,-0.01895417340283709,9.639122069991437,-0.005958751888115818,-0.011431851175711273,-0.0037562701225307567,3.19
-0.009685915970382646,0.09010498736502699,9.849444974273824,0.014805136905826011,0.02292636504582292,3.00225571483134e-05,3.2
-0.3412777697806557,-0.07298030446333896,9.71400550752952,0.014749052082502616,-0.01709999219415086,-0.002632671368623643,3.21
0.01004769217927196,-0.1480073795107875,9.70508259416627,0.0012278904120590162,0.019936889277187512,0.0016233563188719272,3.22
0.0048935273119700235,0.010947769898853784,9.78333691975051,0.007614096500061046,-0.0037506137693080993,0.012653692280984761,3.23
0.09101666425601629,0.044922472500102326,9.744935686311807,0.008801124252507835,0.007079072655008071,0.0015964245381428824,3.24
0.2692614403596083,-0.014703307535202468,9.930185384782286,0.0016336508021186802,0.004458883867767808,0.0198940539552016,3.25
-0.012891046084169923,-0.00927671419857136,9.772701952806624,-0.004433334028581175,-0.016542153273123444,0.019060881728508738,3.2600000000000002
-0.06711060373271138,0.013535879255905473,9.743697016035227,-0.0002799880708257788,0.011274321775174992,-0.006585315950391776,3.27
0.05597482784130897,-0.04840126243408455,9.759554950410967,-0.02497759092431632,-0.009819445283977539,0.01815306697873429,3.2800000000000002
-0.03279521749037492,0.02257102499103877,9.871534551602512,-0.004456662038559165,-0.001598833474577492,0.011259919017618358,3.29
-0.0409772057542462,-0.14082341833674525,9.820071748311609,0.012853666543091629,0.0008797068734934685,-0.011356923904779142,3.3000000000000003
-0.0013779631052171096,0.0874470388372649,9.549896256902795,0.01113227143584388,-0.0069104430831895235,-0.014570877804371184,3.31
-0.0077138087398759495,-0.11743647697214943,9.809129796736098,-0.006351934355006455,0.005200097415359189,-0.0038414044056987763,3.3200000000000003
-0.08301211610071813,-0.08883090274573918,9.814187277133318,0.0051094512920635835,-0.017429551128312678,0.0016601539071364516,3.33
-0.09492828796146303,0.033911238812963825,9.608658360503838,-0.0023681984404543663,0.009498394365259096,0.004503023882660422,3.34
-0.09602618661246409,-0.04278489464339913,9.761700796073777,-0.0030317381242279625,-0.004741540408449344,0.011268363533438122,3.35
-0.062024709680706606,-0.1091706997490447,9.974739372970037,0.009138311408043871,-0.017540393807759503,0.009677147126588318,3.36
-0.10158133911676435,-0.11311421635624559,9.649628445744284,-0.0004072329789493278,-0.004343894369421082,0.006120998461473616,3.37
0.02069551199656406,0.02865043267663142,9.713806642301675,-0.004336122316345188,0.00125053657351031,0.0030529529612225497,3.38
0.10179594914624811,-0.21094894580547094,9.667121472558753,-0.001976597563904132,0.007660757170402622,-0.0037119966504574942,3.39
-0.17386779986863699,-0.022318951148921684,9.758913768067886,0.007545278395832209,0.008666414625215531,0.01790696684818499,3.4
0.013537059873763899,0.10694970093147126,9.882889539799365,-0.0013877994093965148,-0.007554568867956588,0.007569467561388973,3.41
0.18345781024236796,-0.09105024664396452,9.726223723683253,-0.007596247753731672,-0.007901759956276271,0.009476294624392421,3.42
-0.07203080541171016,0.013626513273913449,9.887883552957366,-0.014525694453184227,-0.01231185840462914,-0.00021952431950942962,3.43
0.0382292697378368,-0.008704667415490794,9.894240594278648,0.014466872227729095,0.010402004374144206,-0.006665817240469238,3.44
0.08893084438968274,0.04343259781314771,9.898113968743818,0.004402824994333875,0.003767975758273397,-0.0091744586087772,3.45
-0.07196045343969866,-0.0682639549336314,9.849055704996882,-0.004121326468146553,-2.9713602486445104e-05,-0.00046090903040069576,3.46
-0.008237122821918332,0.031254401305078304,9.907797057121618,0.0007814353058923502,-0.00822460720701159,0.0014686238495938927,3.47
0.16936964565515703,-0.05250518920418991,9.874673867913955,0.01059179136354371,-0.0015881637011868194,-0.012375791307091235,3.48
0.04715138451103872,0.09378201093304767,9.926484091268483,-0.028561739159705737,-0.00865319194788024,2.8108239269638227e-05,3.49
-0.23964614193613332,0.02404659624507681,9.800337225954497,-0.006692708312056898,0.012700085416289968,0.003055722227880477,3.5
0.029860108728056098,-0.07220617694628738,9.83188137698122,-0.0004307882798969713,-0.010347932050620307,-0.013944245988391524,3.5100000000000002
-0.016828520625223675,0.06113396578086016,9.756866005574876,0.009220303297621888,-0.017622060127320302,0.004905297211778782,3.52
-0.09601008549169902,0.08065697856107548,9.661642282302541,0.002836899883937677,-0.0017998071450919416,0.016414669795517107,3.5300000000000002
0.007639775294733399,-0.15235975628973403,9.723409126190862,0.01313916889767814,-0.008990055639012213,-0.0009148012781125547,3.54
0.022935110535612886,-0.023014309582020914,9.678359243649039,0.006527594735331092,0.02049001190345517,0.0009147827551862096,3.5500000000000003
-0.012977204422969386,-0.018034105647989632,9.670148859664975,-0.026150304617273155,-0.003209386522152643,-0.00023807485693679497,3.56
-0.15927622709361186,-0.043497580801730905,9.860569289044937,-0.0016404814343126497,0.0005478902361000858,0.01355280616912656,3.5700000000000003
0.03140600432966922,-0.05195693563924846,9.70869319019671,0.002970794902023456,0.00037757147953429963,-0.0074880289800933475,3.58
-0.07985101340324621,-0.10338108889558345,9.779753031379776,-0.0018304820239756234,-0.00935134617725452,0.021147268113764023,3.59
-0.06988310759902713,-0.05623370347685819,9.87947767427642,-0.022624438050164043,-0.0050098693998106795,0.009648732644516473,3.6
-0.0074100159734788095,-0.10656033755114905,9.80878850794109,-0.023967941124822048,0.005260355137409507,0.003554548707341096,3.61
0.012851625857228724,0.00919012642196961,9.757769201206724,0.00882695384502132,-0.008664767536441074,0.003073716045197913,3.62
0.022721488799443756,-0.16730785906367643,9.970362487409732,-0.006136272857510136,1.9054581546594976e-05,0.00035484915550908723,3.63
0.17670682607986882,-0.014375743552668217,9.877721320537267,0.021789428389896198,0.011450065553889834,-0.013378664532040207,3.64
-0.06537674229370953,-0.04042105596535977,10.011584146567886,0.027520452038095198,-0.007299875699507174,-0.009172361075393275,3.65
-0.058773083909260795,0.010598127880593156,10.030964185187981,0.0001699667953177332,0.011181383284012943,0.004739406920519841,3.66
0.0003580109965515585,0.01786975216891477,9.873664844822866,-0.02469593127078595,-0.025551669900541012,0.003390958244124041,3.67
-0.21751109205197783,0.10454842068520467,10.01791005163337,0.000273233543184568,-0.002487124991151042,-0.00477645272312229,3.68
0.06332246673493322,0.15905214042481539,9.850634073881608,0.014244402365452293,0.014952334359030569,-0.006796527927790478,3.69
-0.007209679041685077,0.050205479221892925,10.055993792746017,-0.0036903956457875675,0.0035248313453474112,-0.006095038024045554,3.7
0.1855531199606394,-0.07593275330348866,9.670981843708786,0.004280647123843896,0.0003207252973425701,0.015242685942504839,3.71
0.021987795137574682,0.07109674442692991,9.80486189794424,-0.011798909805161555,0.011777683340171341,-0.01354598783468151,3.72
0.018005440623344113,-0.039491940151383007,9.700341320534504,-0.0017794404766947553,0.016100569906829683,0.013956538274890866,3.73
-0.12038187883977124,0.06348306345348737,9.984946271145411,0.003663661883775266,0.015899428039258985,0.0009372578314028779,3.74
-0.043656923434257776,0.07205679793548925,9.792342513958273,0.011894936590568875,-0.00010654741031608022,-0.012126370438838454,3.75
-0.08554789763928553,-0.06387146018889832,9.67167762639475,-0.016137383995761513,-0.0038397820829275866,-0.00295714204242943,3.7600000000000002
-0.10131986176124641,0.09237693917251596,9.885666009640875,0.013362724353384765,-0.001118489300803792,-0.008310620610436999,3.77
-0.0868971498620521,0.022970810831577496,9.725336346944044,-0.015957055367837515,0.013136812875809516,0.0195565844831347,3.7800000000000002
0.13597644250580512,0.1646794934099548,9.751833376710296,0.01281213775322115,0.002827578336705716,0.01608212405622632,3.79
-0.06686241207245251,0.09825489894975253,9.743755152889909,-0.0016313101260715629,-6.375751735955394e-06,-0.009433728983845676,3.8000000000000003
-0.0813183983430197,0.1215914086575931,9.749252483483867,0.008258480614550052,-0.00356233274491996,0.016022731371963674,3.81
-0.06737071550264746,0.06780131171157217,9.735077497914627,0.0026144612337146112,-0.0157803813019124,-0.008628938598241853,3.8200000000000003
0.015812414989120848,0.16992169895059206,9.718496270982419,0.0025227511409768423,-0.005573746253848091,-0.0013341764011870567,3.83
0.17267780623223983,0.0941955386523066,9.733132322721083,-0.01956400279858208,-0.016626780595376933,0.001487040335053311,3.84
-0.08430806719254973,0.06159664707584708,9.900867673672847,0.0002726467218893371,0.00888712866741527,-0.0254685329381205,3.85
-0.04707091290132239,-0.00965011453118618,9.714277016735354,0.013658693395956954,0.005065811032456402,4.697455082767106e-05,3.86
0.20637114841396675,-0.07481890534707504,9.852694589056398,-0.0060834681517160415,0.0031978374897240936,0.001959774728496404,3.87
-0.18047206949506583,0.03516026483749345,9.918022848458678,-0.00017387800294201857,-0.003846158506960108,0.021324029829439844,3.88
-0.031177499032005382,-0.22981586021628747,9.87859292597221,0.004145257171207374,0.0007317379097894925,0.007301639038417794,3.89
0.09164693469970886,0.09191009841057722,9.880346794027291,0.016827752330790646,0.014290846193540891,0.00030243171375812734,3.9
-0.031021965390118613,-0.016134348169164994,9.799342714163444,-0.0026840343605745265,0.009007370720985172,-0.004400006351862114,3.91
0.15133509505190165,0.09264012485754138,9.795699254768667,0.010283496844367565,-0.01003954019483569,3.823284214074799e-05,3.92
-0.08760705367612605,-0.11301340052524167,9.720122263939633,0.0036831358963666317,-0.010393701193454959,-0.002197922802183899,3.93
-0.007687462368803459,0.10754259361213436,9.608948852225714,0.01391657571552377,-0.0031989164142566446,0.014964841634264474,3.94
-0.05283819926621317,-0.1456621024981026,9.873608348127417,0.00974210042542121,-0.00027288355559949867,0.008449555437313206,3.95
0.008116996938267987,-0.27776118474983613,9.986896707393127,-0.009433837870252626,0.0015526482587972994,0.006034026585807375,3.96
0.16848585450128406,0.30117551349280747,9.828681224421866,-0.002997326899115044,-0.007790550252244869,0.0069390959923079885,3.97
-0.0007139162627744949,0.051472949979674165,9.859473299585677,-0.011771634265813449,0.003723032671064497,-0.005637489531439573,3.98
-0.14275003765484734,-0.21696653790111228,9.797100101091337,-0.009234213606482201,0.006991498626278146,-0.012623181249917542,3.99
-0.016838359877022147,-0.14915893447028458,9.585174419608675,-0.01603826551144006,0.00815032928336381,0.0044563059132195935,4.0
0.06818781272090256,-0.03719690804747856,9.903254400870715,0.0028619621277052505,0.018688138212412678,0.001241247487639754,4.01
0.09817036451955996,0.14526338048604256,9.695910998618098,0.01228534107567186,0.0037317486046150473,0.004493870962499558,4.0200000000000005
-0.01232404188572516,0.05543015212543432,9.90670736040997,-0.0042800848796243135,-0.002528470791911492,-0.014829068099805361,4.03
-0.13203488562815247,0.21930216621905632,9.672527193929815,0.014783770963386761,0.0003381735273717845,-0.0031954208094844665,4.04
-0.1072444977800612,-0.0182485896756309,9.803408266975554,-0.009774057910156805,-0.0011183898550261744,0.005102788823650598,4.05
0.06851236733754638,0.02384236766143079,9.695494845730547,-0.008037599405500693,0.006621622051379817,0.0106182250869731,4.0600000000000005
-0.020391710855717043,0.11111916180936948,9.758953927593838,0.006976179105491323,-0.00727710240508868,-0.001972043416487551,4.07
-0.10292351908032965,-0.06407192263693547,9.834331862763005,-0.014919603656435005,-0.018249541744164575,0.008087199948607168,4.08
-0.048233126536817154,-0.10009469728063487,9.773640166054888,0.004779339034114561,0.023572442069923524,-0.006634484685409801,4.09
0.04737997445505368,-0.0034816565747786176,9.815869426234839,0.010939671143830262,0.005570945540644007,-0.0005190805932428443,4.1
-0.06654787844664849,-0.20745286527131646,9.941993632990377,-0.01744867961648837,-1.0887998588643808e-05,0.0016180515783216448,4.11
-0.0906147711379397,-0.01547296619077477,9.832479236008233,0.0027068801088005467,0.004779391813821438,-0.009494241544709929,4.12
-0.019814881330858666,0.06009831523366101,9.842588640433952,-0.004865678064911077,-0.006275288900634755,-0.010719154714275331,4.13
0.149255523159948,-0.059648306421359036,9.575837618143877,0.006117990867557233,0.007249031590773829,-0.0028866660614868286,4.14
-0.0758653496367643,0.18637831261326382,9.665341682021495,0.002730220336067643,0.005393906090614391,0.008496590613422334,4.15
-0.11957499817796582,0.1543566892335716,9.745337535916757,0.002054594882769137,0.003968272352981172,0.007723039652009581,4.16
-0.020979307656179617,0.09037840384786686,9.928845005351802,-0.004154199070052343,-0.020459307342668678,0.010214947971698852,4.17
0.0955053388281723,0.10278179621989175,9.87119185045632,0.0039708990122140735,0.01227817967795753,-0.004702023452459669,4.18
-0.037022960760267516,-0.1477166012587746,9.776191261636724,-0.001065460872576407,0.004517632678318741,0.0025354738161505424,4.19
-0.10182190294919057,0.09451277386088072,9.772918428626818,-0.007142613200379826,-0.007518644709917163,-0.0006510078352030421,4.2
0.029076959003864644,0.05232891505548707,9.880581569842459,-0.01259662434287878,-0.0003001082144537731,-0.012238371341261003,4.21
0.04121023215673236,0.00013308932371068797,9.766899130332309,0.0015381744902047045,0.005514174699725419,-0.0021465597427010076,4.22
-0.1100656815416724,-0.14240552986866398,9.823532313596832,5.6669189703884006e-05,-0.006279028328745225,0.0070068187083431625,4.23
-0.005659645708684042,-0.0676207371862949,9.65672917847858,-0.0025298853683859996,0.007791529770786665,-0.0008199121068461879,4.24
-0.07877500435009321,-0.12357261315861962,9.760189341379395,0.006564848261984413,0.0022196286640096255,0.00819056718720999,4.25
0.1251037731775623,-0.08694862596947953,9.828179452415384,0.012204889963691484,-0.005688159590191978,0.021447270253967986,4.26
0.006835650967061581,0.1162441121091624,9.882434840723745,0.008632332452396514,0.011364356619850384,0.014985847795934959,4.2700000000000005
-0.005653023912363456,-0.07593867415171912,9.76168905431893,-0.012942854263424538,-0.005967011450344947,-0.002609937396286913,4.28
0.10847871669440104,0.020721452428050565,9.77690040550246,0.004340232355988089,-0.015083237529639675,-0.017588171605160928,4.29
0.080360373887009,-0.10156796731031958,9.772131214468155,0.002552891701214465,-0.0064176019507804615,0.02968068325918639,4.3
0.05566906334393073,0.18093654006290838,9.771195919636266,0.007582614914721975,-0.012098129350153123,0.0032923350774140365,4.3100000000000005
0.02507379879892939,-0.07820049501089793,9.83869025848941,0.006819093256348263,0.01748875191154692,0.002357028803456404,4.32
0.10640184757547544,-0.12810864217937343,9.827447801708017,-0.0031673986039415882,-0.013381706318990468,-0.009210252512526728,4.33
0.011236067230115014,-0.2097334540501132,9.88335860681645,-0.004138619785534296,-0.009760041983949773,0.0013797941296869595,4.34
-0.0001445172901851806,-0.07880445559988586,9.837841706972718,-0.009747274391025223,-0.017133725268178076,-0.0006866495604220939,4.3500000000000005
0.048065449938609416,-0.23154952447894092,9.900100197400848,0.002053311660301047,-0.0038419128690076517,-0.005270378461008799,4.36
0.08071736474261396,-0.03266473588219656,9.839010133847452,0.006568395285276763,0.011194729173314431,-0.010272781650208397,4.37
-0.0033557465243478934,0.12385879871193273,9.72981688450251,-0.00011144060968181482,0.0035602899295795604,-0.005532263327749352,4.38
-0.03390229139599912,0.1007473116290417,9.777471577874863,-0.0072421946387304596,-0.003753783812539318,0.0034990559111748153,4.39
-0.20554777150901915,-0.030261028342991304,9.799622621357711,-0.010139230655336999,-0.013608594264713614,-0.00976387594602344,4.4
-0.2205243533641079,-0.03491903779645307,9.856697197764815,0.008577902867023297,-0.013979236278145252,-0.010389266426978412,4.41
0.02108812151043673,-0.01658904095226967,9.822766164977866,0.00902454242957538,0.011813108350026764,-0.015304768348262244,4.42
-0.06868470620411364,-0.28468543528026347,9.900044457766946,-0.012605249991442396,-0.014201104979654683,0.0014550173665951601,4.43
0.22545741277226458,-0.21057378502283453,9.76786414141638,0.00032924661119820847,-0.0037655408229604545,-0.0011353625211171815,4.44
0.03262974154813852,0.0872568515245803,9.719800335133057,0.005632320230111435,-0.002041275080231395,0.010828053108877815,4.45
0.0902539572804707,-0.011001077550281674,9.752901069070603,-0.005728193718089817,0.003810879705628681,0.003438109679737949,4.46
0.17228791018988435,0.03929389302005304,9.601884881851799,0.010763449814151982,0.005274950443499614,-0.00253282092537517,4.47
0.06790030357489535,0.03482637584812181,9.787684760810295,-0.0020175623014803863,0.015058967426206217,-0.00248416193018733,4.48
-0.017855769956574383,0.07283366343312707,9.85998971225183,-0.0026834151656632632,-0.018680237916410432,0.0025476903136925615,4.49
0.08786681281714089,0.08494252426092797,9.718136677052458,0.00102063353755234,-0.009151563875127557,-0.004540528441458137,4.5
-0.056715197275983315,0.08314929336530175,9.888081230463937,0.023037433386398357,-0.00621856845106641,0.004546868558501834,4.51
-0.0999371042874788,-0.05919108010468388,9.793184802396505,0.014529270190303535,-0.01637571521671941,0.021956837595369223,4.5200000000000005
-0.10295935485970727,0.011381177153025328,9.732780939399442,0.003970362380452376,0.006988845873410949,-0.0003659642626245938,4.53
-0.023756253667260488,0.003966606482053586,9.876716121775443,0.006652848776751867,0.003200211096475808,-0.0034573503230524993,4.54
0.1171737051941393,0.152971631333092,9.755821385203868,-0.0035342244308474596,0.0018369355713250591,0.006010147163748899,4.55
0.044606297630651465,0.1520259754465544,9.648068489526672,-0.0043085485707007876,0.0006145986930345581,0.002403365276660072,4.5600000000000005
-0.1297822354282991,-0.049610371905491404,9.742915659324247,-0.004071123183752313,-0.0040581208238830175,-0.005036999280030576,4.57
0.04104374312255252,-0.10326614572482783,9.877155786798571,-0.007791867718702344,0.004969029815394193,-0.005579757174123098,4.58
0.04194664517683955,0.1283808678226722,9.871854937960025,-0.0064163048227305584,-0.006087459660324006,-0.013267963292884866,4.59
0.017951013422874456,0.040705591669066205,9.86881628933219,-0.000944913357090973,-0.0034406780780338155,-0.024941541535381674,4.6000000000000005
0.059478038494158184,-0.10319679257444714,9.603104206729622,-0.004443545789129579,0.00885558467663718,-0.022287382848818798,4.61
0.18773041906405463,0.031706792541467854,10.013564791545475,0.015306833360294168,0.0017844203952163237,0.010444217737887937,4.62
0.10068194960359969,0.06593956168002169,9.824927078992406,0.007175040979724288,-0.028581412724317596,0.006446943418403767,4.63
0.13042687699145672,0.06897388439661555,9.69954168570683,0.008913258226625156,0.009196271418726195,-0.0055907165374569695,4.64
0.04574675828935061,0.08331790654262886,10.002910100594413,0.00043037449790989243,0.006817411715303161,-0.022703034945227792,4.65
-0.05314076356737324,0.07253963829589556,9.791002520780408,-0.009517006898047057,-0.007619054175103854,0.008903112180277502,4.66
0.10912217664104835,-0.06405051191310708,9.82557614725451,-0.013234425184761835,-0.019703918020873852,0.005421376649196839,4.67
-0.009781774279792333,-0.10466507227558788,9.845148361564673,-0.008208121696430665,-0.00028768317714796123,-0.017794684654091626,4.68
0.182658821256685,-0.10907023589692351,9.79246269968678,0.012954811539233491,-0.008674525064428798,-0.00906156690591882,4.69
0.024233461733459725,-0.11348318765348842,9.730397729679934,0.016863088137953924,-0.009755496190699712,-0.004044154859639758,4.7
-0.16946485736113973,0.027669404619550444,9.915596004875896,-0.0018322087403748705,-0.006507058936317325,-0.01971222244724334,4.71
0.019102178388558398,-0.04090255933304625,9.878675372324508,-0.006202475968553852,0.007328720413756408,-0.016400765542642998,4.72
0.06425827298291387,0.021028189996610464,9.810325536957473,-0.037846234423862195,-0.001663386875547792,-0.0023545277698396867,4.73
-0.016459496553358564,0.022057584426350252,9.650344719262064,0.010212093542630266,0.019847326752379796,0.007965396228472746,4.74
0.10410335214789511,-0.049202003350424385,9.774843688811453,-0.0007320817377577644,0.003106211257887171,-0.002238712930802539,4.75
0.15401291823400579,-0.1690437281307471,9.792680486083286,-0.012196354069019933,0.0063106632442979805,-0.007508641730507312,4.76
-0.006803931959046917,0.08985706960952929,9.705543597352792,0.016297245304586427,0.01934559997877832,-0.007785835696590181,4.7700000000000005
-0.11332953026571589,0.1543660374011576,9.832181619907777,-0.022965976358485275,0.012928827332378613,0.01078246268909427,4.78
-0.03669231475412319,0.10364852367198346,9.683820724779777,-0.010942458291058456,-0.002152577266326492,-0.003820557314200887,4.79
0.11879196158612267,-0.030689664985201162,9.833891534922842,0.0029471717598773305,0.0003425987518611277,0.009027129253336423,4.8
-0.014306982089854217,-0.11226492821958554,9.734087781036953,0.01971176885496868,-0.008335093193761274,0.0010573157832568672,4.8100000000000005
0.13175086648647902,0.020657009145416582,9.856621276408324,0.009817134087431735,0.0028177219722824434,-0.0007259017753235668,4.82
0.17689540543131396,0.10241961997295353,9.838864134050183,-0.0029406487880532695,0.0035061449969819008,-0.009964684549170256,4.83
0.022886287451039364,-0.11171443011015024,9.791265697428317,0.0046418650267560976,-0.0025421442957294,-0.020243015572754156,4.84
0.11447168977791544,-0.047886824072607075,9.817837982797961,-0.0021836340800151844,-0.010021518674277266,-0.008062378577639726,4.8500000000000005
-0.019060762485912992,0.07228463167132636,9.944234034303689,-0.0019217332716515787,0.0009644220279647732,-0.016722646537798588,4.86
0.07814135711914579,-0.02064024669977896,9.670078772151864,0.015630201628273867,0.010830794730314414,0.001854135592077338,4.87
-0.09522671926167875,0.023682072931275295,9.784627271331262,-0.0057301255112157745,0.011641925423196356,-0.0010424854461817895,4.88
-0.22951817624102022,-0.06478373993125633,9.800823297449266,-0.019346820782865762,0.001529381664648179,-0.026640048913369872,4.89
0.1140710970625156,-0.04037332588426856,9.851913572880495,0.0012973831123219604,-0.002218448550251598,-0.012005717361253648,4.9
-0.13794566308369147,0.01951858479845146,9.623039913253631,-0.009779032841053395,0.01157941990671064,-0.006030205006678617,4.91
-0.07814448653846794,0.017781372526535007,9.787130707223326,-0.017160846607433427,0.0070103642595477555,-0.021580405318568564,4.92
0.018231248002830533,-0.12888551650351707,9.808333996630235,-0.003083016533227867,0.010994172537834192,-0.003967544648803426,4.93
0.10086874736486627,0.17971353599772,9.8376836385675,-0.009653397009894414,0.00878500505174401,-0.012434725891656473,4.94
0.038070137573889586,-0.14496046580948774,9.74179932172101,-0.0076230760937716505,-0.020024644954736787,0.0077654790038450315,4.95
0.08790962147694735,0.08853800583227302,9.709321940436446,-0.001643550363217368,0.012929603909524611,-0.0010296195172106773,4.96
-0.11931270566540464,-0.0005012402219117571,9.763097189861496,0.0003721003249023579,0.002368080336318023,0.00843705767519965,4.97
-0.023876917949416546,-0.1129350926319174,9.681755872957714,0.005660595285302019,0.0009288232063288112,-0.0044074989313738116,4.98
-0.0698360265084668,-0.0039044329889476276,9.778051134526274,-0.003865621728630342,0.0044544608637768265,-0.010130155686013281,4.99
-0.04132290712129285,0.011535569007650912,9.58931302344237,-0.00630376040962251,-0.0035167029174794744,-0.0028060246811015695,5.0
0.12143515595711943,-0.19626852475215867,9.721901854424187,0.012539660869668161,-0.003195818381946345,-0.012789864800120392,5.01
0.010989229697666627,-0.0018327281052322579,9.79485149306406,-0.011003762201131518,0.0009123108313761652,-0.0003680131914174031,5.0200000000000005
-0.07649072444135174,0.014975853147523489,9.942433449151212,-0.009338946550605727,0.001299753946716425,0.005400018189670183,5.03
0.11044874357345938,0.08574422810912125,9.65972051848766,0.0051313555748565155,-0.0032015608959748386,0.006216446784674292,5.04
-0.0897530165962182,0.09364432564351731,9.790171323224348,0.0031873860011721222,0.003619764159120414,0.0028787799755118715,5.05
-0.09559908173545249,0.11703453430029576,9.872289652106732,0.0057611590276518436,-0.0017419104889298256,-0.014595797637852572,5.0600000000000005
-0.16285528108584924,0.13049247160518104,9.946223826062502,-0.003960935985384186,0.009663614673818708,0.0023424853873566147,5.07
0.007852029555980201,0.046277735351693036,9.739332127854839,-0.018161517894708754,0.0013993607736042396,0.0005553626746600253,5.08
-0.008174699448925273,0.231217099978717,9.917693111655458,-0.007615564543707757,-0.0012424192349776706,0.010393324813598413,5.09
0.14243293158292009,0.121481355051336,9.740532816280703,-0.009565068348797246,-0.011290577003902989,0.004111644104098779,5.1000000000000005
0.09622704485356595,0.09514652818668247,9.709617339642504,0.01379281898767383,-0.0032737114502844017,0.008629168608547882,5.11
-0.008587348762711423,0.11492839157670826,9.827783115907065,0.00043625027785173875,-0.012784120110947128,-0.00744112406482009,5.12
0.1495951323855962,0.05591274396040116,9.791929969527581,0.0019159190266554915,-0.018995486645953786,-0.004922929670433705,5.13
-0.17477121684339347,0.005815492364069614,9.677155033474621,-0.0004597456865005898,-0.007707869935939326,-0.003577090987461733,5.14
-0.09175123325528595,0.157844110860975,9.929563892193347,0.007141910127180754,9.534600881508278e-05,0.009189991135432398,5.15
0.08080851922559731,0.030686132624262376,9.811553688365168,0.013714915299492694,-0.013187883357277004,0.007296947643866719,5.16
-0.07185112521829977,-0.1002252728170693,9.88865233165924,-0.030612112088107685,-0.003701201904122865,-0.013517651741262886,5.17
0.08789895217663321,-0.08131404616591054,9.731502326128988,-7.007162490395822e-05,-0.02318211223780558,-0.0039966863939220245,5.18
0.05627873939641004,0.1203840280136419,9.759530483857208,-0.019328322601426483,-0.005037262230540417,0.0009052405254940536,5.19
0.05881843168056512,-0.032278180441874194,9.91000417963357,0.007757956619493062,0.0003393340138839501,0.003851336311836694,5.2
0.05377218831534117,-0.04359233075542196,10.091204457035245,-0.019748611768040256,-0.006103339779526148,0.004601744226984294,5.21
-0.006825659556154106,0.07533282431626068,9.790602775535397,-0.0068916815714768565,0.0004634965093377823,-0.0029669812694970853,5.22
-0.03460865089705626,-0.01936025613023852,9.756596529188739,0.0009206833601978919,-0.004832183043517359,-0.0019195374963832594,5.23
-0.0905931663188814,0.16801336975396594,9.688778433980245,-0.005279808064374785,0.00022645101565138767,0.00545924957919766,5.24
-0.03544474070520396,-0.1411321711241002,9.889862844654433,0.0016626454408576524,0.0057152909239581145,0.030712796184511393,5.25
0.12301814163150254,-0.07919075809608232,9.742388934483357,-0.002936440170356852,-0.00427571629379107,-0.005642909531750288,5.26
-0.17897326274981762,0.10176947202038994,9.79702239721206,-0.005395419052860022,0.00931319178600907,0.004882931589677289,5.2700000000000005
0.0037716526193172966,-0.021783779090519866,9.848693058527099,-0.009590892084242072,-0.013183799469986372,-0.001307563533643479,5.28
0.01859705688060632,0.09279342131036775,9.896750638395508,0.00465233999814085,0.01111158834131952,0.027002286561259383,5.29
0.02385635151546196,0.12800421721786298,9.879195007184306,0.012729715203857215,-0.002739087342597784,0.0013646569361467017,5.3
0.04795477059207109,0.14222543670018592,9.805074228079755,0.004741708733583694,0.005071797183155076,0.0008604752607176607,5.3100000000000005
-0.06666090565844583,0.01682149961133793,9.773747111106458,-0.013822825070032548,0.008533986062992324,-0.00888589877972738,5.32
0.05539043170626974,-0.09283962747345875,9.839360117149448,-0.00897057609988506,0.009013148259585048,0.010039417011102343,5.33
0.03428255500380802,0.11776877668428871,9.995165296258373,0.013246322272282847,-0.005153215331116288,-0.002612606670879896,5.34
0.11923890175074364,0.07092844227807098,9.729696208540961,0.00628239026927164,0.01138330542086577,-0.009628387567018653,5.3500000000000005
0.005632359326040418,0.06588357324127721,9.847603104668389,-0.003794084246758964,0.005760412911032031,7.580814354760459e-05,5.36
0.18292241818382401,-0.12496170884086032,9.786531735478304,-0.0029869079913645807,-0.005466869154665325,-0.0040839226628478,5.37
-0.1922400397899215,0.00847056839942081,9.681097030290118,-0.019716005430056287,0.007995322771438714,-0.0020455536476794846,5.38
-0.00960200809524053,-0.0894429694402204,9.812010894159979,0.0023959322990312077,-0.001132620145249648,0.010629998231595281,5.39
0.29075049749136805,-0.06896536027724628,9.763363927107566,0.009463894332533355,0.006481697222870078,0.002685571258854424,5.4
-0.06808856670418705,-0.2763811036392513,9.825165963693692,0.019606861952886398,0.023462624763810353,0.00033954525932156256,5.41
-0.17227968599635193,0.10007566928478857,9.84346337962049,-0.010501843972502527,-0.003411256039575796,-0.023725618121865386,5.42
0.010763415909941294,0.01049110289694527,10.052228122688101,-0.007901831104868863,0.008714732664570403,-0.0029090525078320044,5.43
0.05358048948852733,-0.03759053439606105,9.970208388485494,0.01478320033995506,0.010332981898573861,-0.002527962861034944,5.44
-0.12389698771895566,0.19280611634446732,9.566053912484922,-0.0012064291368718313,0.007208599068005435,-0.003713146985438435,5.45
-0.01680003861131598,-0.022986774195299098,9.85118041238747,0.0016469706013596884,-0.011144827149520154,0.007939290653273133,5.46
-0.006345078988223603,-0.06862050837027998,9.858531877069177,-0.0032800851280913217,-0.0006212826361145585,0.00880626384448854,5.47
0.04861980947256037,-0.021499617806615648,9.938299954534811,0.018470844055464,-0.0017374861352516327,0.008016974750384329,5.48
0.0943686001697722,-0.1454509003225408,9.893759869580943,-0.004131556465191902,0.01164545280046936,0.00969806455491342,5.49
-0.1368819859029243,-0.1278010079680138,9.844482235043815,0.009004101678412419,-0.003789579666248841,0.009544812529164042,5.5
-0.05403444565893226,-0.08668219749285128,9.999815817611296,-0.003579770603751874,-0.008119111853699703,-0.01287530780336215,5.51
-0.05589375303873165,-0.01043679496785424,9.750457066729911,-0.012593816344227307,0.0009780489962594992,0.008217148917831272,5.5200000000000005
-0.06970268284754559,0.08498376567860957,9.762150737673522,-0.0009322813312268346,-0.0022684481644175557,0.01250797025766724,5.53
0.1682819477280383,-0.012707045222891959,9.914577139911733,0.005695032859933556,-0.01577623219232172,0.002676707835673951,5.54
0.22951663265463443,0.09059606610773215,9.750482091613303,0.004186101288880519,-0.016395933655761932,-0.004241112913131054,5.55
-0.011551462216075297,0.05281282685402863,9.869433751637827,-0.0006992886108616724,0.02190863383321761,-0.014621250822485048,5.5600000000000005
-0.04440697992804599,-0.012810593963874654,9.78501478777836,0.011482725960493649,-0.020960192851622036,0.0008931083011912094,5.57
0.005240824704853554,-0.03887220127749016,9.838306070559934,0.009651535613059679,0.011028187021533797,-0.010226554128687662,5.58
0.06911968508326052,-0.20822128267556905,9.88648173441674,0.009694375890208785,-0.0049513031637541316,0.0009773504712184047,5.59
-0.011780734709967773,-0.01591962053710751,9.712087410821297,0.003392088729292037,0.0010807284598896728,0.0034862114517851405,5.6000000000000005
-0.04914416387882411,-0.08498049376257795,9.748159021039038,0.012794480797648618,0.010878408135381799,0.0018214511491174822,5.61
-0.17952216544170752,-0.06472282388805063,9.757668484341039,-0.004427000686052226,-0.012945690572191686,-0.0035215241539658226,5.62
-0.1277499959668331,0.0640898628812495,9.915783556349002,-0.0034643953081951186,-0.010127665688120062,0.029922088734736407,5.63
0.04181204778260164,-0.031232315907013322,9.979816663497566,-0.002224966336715621,0.02522747860680934,0.011823332813122202,5.64
-0.061092518056920654,0.0037308655013082296,9.983486322409114,0.013844226510165827,0.017090598919741986,-0.006544917109405661,5.65
0.15943216589285447,0.06317311079576053,9.845113243486319,-0.0008097145737726622,-0.009272068399311013,-0.026754779444769193,5.66
0.08172042261447313,-0.012256671015557304,9.917919982065156,0.0021354075898158947,0.00975770472575482,-0.010149612417145808,5.67
-0.07285250459033153,-0.06971147224792827,9.788519055719338,-0.004458069118364471,0.005644326723176457,-0.020479683773877745,5.68
-0.1019695988501332,0.020345651243670958,9.766831693061246,-0.0051921408970173975,0.001245829314499033,-0.01266633166759305,5.69
-0.08940678157242161,0.053899686201229646,9.837919822456412,-0.001593452020260866,0.0013240819853685094,0.010980864289709139,5.7
-0.028358766607507208,-0.16791657402463503,9.824912296036633,0.0006183641981482231,-0.007300954104054973,0.00717140169191482,5.71
0.09491290709113745,0.04137761392433695,9.884620551860525,0.0006118120224111426,0.004751429419146865,-0.008783052906745251,5.72
0.005430898604240733,-0.09623579804082617,9.734458932638747,-0.0049762605186493124,0.007775669904893159,-0.0032896436282421134,5.73
0.08819232684740305,0.12802237051657692,9.779199722652635,0.00204357454867422,-0.012693138419797965,0.00010842168412247288,5.74
0.06232040525238058,-0.03344333904054339,10.041158895249787,-0.02440269168696331,0.008390019825558344,0.010332062581285118,5.75
0.032876229323541575,-0.061851994261362286,9.91019098795521,0.01275468019075484,-0.0041085353430077975,-0.01254827234445576,5.76
0.003910770213294498,-0.2667168006145928,9.641841263215307,-0.00010630118905292651,-0.0004389755240676027,-0.008534446922220414,5.7700000000000005
0.10486533817668647,-0.05226032471445478,9.66227887571885,-0.011775424030611763,0.019788947656708848,-0.013456823201140763,5.78
0.10243980038889891,-0.0702274677522414,9.716900865659111,0.0011805664407908876,-0.00015272149214775306,0.00840336577472567,5.79
-0.1598136621117969,-0.12062136780465411,9.911448789353505,-0.0032338812902427635,0.006877284552136542,-0.007621988015942184,5.8
-0.12062556156588716,0.09681811033257676,9.63099528217857,-0.007794844057410504,0.0072338130929873335,0.003523689428384999,5.8100000000000005
-0.1375754758649273,-0.03956566588111468,9.944773294266891,0.010477044964981062,0.004440860797422347,0.010978421813819418,5.82
0.06284840279609676,0.07556772605540008,9.755499630588098,0.006670340191694116,-0.001479992083484796,-0.003237124365529241,5.83
-0.1132746040160748,-0.09232781731258025,9.59949113052595,-0.011833850818251022,-0.01039160718548268,0.0005178916522321322,5.84
-0.09242762048891691,-0.042063723707378084,9.9129263641774,0.0008744067416797318,-0.009344051671765342,-0.01325729154166658,5.8500000000000005
-0.03384284268879989,0.06906299501797065,9.813963964200346,-0.007907580282109894,0.012073433270562841,0.0010062000329950512,5.86
0.1331607275973805,-0.10523691586254676,9.902988002986632,-0.0018084492765103606,-0.0031493412443627635,-0.0008183687587423685,5.87
-0.16071076448460725,0.12090509491294121,9.688674448576144,-0.02012500178038506,-0.0012813601361234726,-0.005273198743284372,5.88
0.005414667586305803,0.026962558092088876,9.838668720858141,0.004251651139214189,-0.0011951970851328123,0.00851574709303732,5.89
-0.14996070259515556,0.01761956835703948,9.862411465670704,0.011128087091019936,-1.568395837967766e-05,-0.003537775657026853,5.9
-0.02926291663271263,-0.05960450078785443,9.86086178732179,0.01947858871900788,0.006168962197121093,0.002586602566168734,5.91
0.09796360839271258,-0.1664446325620384,9.810317491160424,0.013597598324806975,-0.002962755973100502,-0.0009649642943580488,5.92
-0.22257283423189383,0.044045795339783804,9.817864668289282,-0.0008080800712108923,0.013030246676860105,-0.0063456852985058435,5.93
-0.12321754273055807,-0.02799969352059452,9.823435305684116,-0.0022852596559620286,-0.003536935281602826,0.0035396461006758327,5.94
0.009157303035578932,0.07928830227737757,9.778206613079796,-0.007612105744665828,-0.006750423648354182,-0.005557965591565401,5.95
0.22676365350989208,0.03811166724418979,9.85219824728865,0.025361523540058745,0.007541726329733702,0.0065844795705727556,5.96
-0.03317696189403398,-0.23729411505870623,9.589542118798445,0.003419081210976578,0.004972228318835054,-0.00797200360788128,5.97
-0.013896422025890554,0.12409861683159545,9.794368868892942,-0.013671839058041289,-0.010465683259767752,0.004248591736836273,5.98
-0.0815642706239579,-0.0026198538201498184,9.681294516890969,-0.01562318304512186,0.0006557412599036208,-0.003780108037130256,5.99
0.23014463160422918,-0.01764501652278809,9.744337711590221,-0.01675567657970441,-0.003391758583402243,6.821365918013401e-05,6.0
0.16960603905827784,-0.09418442319988335,9.913893013151851,-0.009521024195567537,4.362611734025996e-05,0.015044656356295776,6.01
-0.09454476349894914,0.16104807907781354,9.826789084500387,-0.006136822576395104,0.009109146975437634,-0.0012821208471687907,6.0200000000000005
0.0028875645660556173,-0.06961975140288496,9.832691318861013,0.021204139621747897,-0.018286134708695213,0.0028284903483644336,6.03
0.09430057872537867,0.019515238585423533,9.748657051000343,-0.0014070620823205678,-0.00010695996205153168,0.012097149763401245,6.04
0.007210775376045822,-0.05636312396802332,9.789110552481578,-0.0076167591222700195,-0.016104184160577798,0.003957690881109303,6.05
-0.018016338165734388,-0.24756735354092846,9.783894946434046,-0.004988181773463581,0.022386066142321765,-0.0013465014176341663,6.0600000000000005
-0.07135134837837534,-0.0435928091526902,9.836595199763847,0.007116083222423318,0.005035885972542532,0.0017505099999256919,6.07
0.012209294573058959,-0.21135011385467456,9.853847643605931,0.016102119743145772,-0.016988145916514884,-0.003389859351396329,6.08
0.17907877923161492,0.05939738737306027,9.748058337926816,-0.011056614737939521,-0.010426083081017624,-0.008478713975879166,6.09
0.16670436521167198,-0.004629746109954575,9.954292943861184,0.010765755281526854,0.0014128921385889582,0.01614516520823816,6.1000000000000005
0.005678716532470076,0.21514666107181124,9.84013692994799,-0.025016262963848814,0.012591265324391561,-0.010822703607103247,6.11
0.01524126928254286,0.0936289673079519,9.756862667357343,-0.009617846427120245,-0.012099567157859106,-0.0025998573213440947,6.12
0.07350520550278698,-0.04768243954058705,9.892794538349529,-0.00325081977995682,0.017963968304966178,0.0047410531382547335,6.13
0.04306166290451108,-0.08680013506387907,9.82783051996681,-0.0009567896268506412,0.004846539331859073,0.004293131728028772,6.140000000000001
-0.0206485072841986,-0.02433152457805538,9.74903040395782,-0.00824094549324752,-0.00047720822038733963,0.008407693118811503,6.15
-0.0618428140809286,0.05017915458567356,9.779373411698359,0.008983361643153066,0.00141723575043881,0.005999541908764258,6.16
0.19376927309374783,0.061684895547525015,9.948144948926085,0.006190233862296921,-0.0034416057520760763,-0.014339188612368695,6.17
-0.00154331284319635,0.024081853058558634,9.733591059261558,-0.0075219294115678285,0.004960924046281095,-7.921002292973685e-05,6.18
-0.05553101111511527,0.014854989161889286,9.8078936602295,-0.0017753151074116488,0.011458112121169936,0.010446349156806214,6.19
-0.14002432447735194,-0.08120133834460051,9.741724224786445,0.004336397649053791,-0.013860420179833393,-0.0069132956643477555,6.2
0.1347425209422554,0.07085726507592084,9.775075161238963,0.002755384951774432,-0.005762547541038304,-0.0036704808702022564,6.21
-0.18687064891472482,-0.15520761081334356,10.086732942129387,-0.03016698411803893,-0.016596343281739073,-0.003278441829283133,6.22
0.1449591244305612,0.042497372159535605,9.920121741313928,-0.0033241237152893404,0.015961101658782673,0.013157503406195249,6.23
-0.005967231287874658,-0.013630192316991394,9.881642148823477,-0.015845715368264436,-0.01057586473327527,0.0035713676630938526,6.24
0.003831016325313182,-0.05576393785701439,9.681489145364445,-0.012668394007615762,0.01048664225982577,-0.010383892487553552,6.25
0.03622222857382124,0.05117303321645849,9.690803809813188,-0.009145661305801894,0.005719436859190162,0.0011536550858441503,6.26
-0.030953887692158063,-0.08367776566913368,9.736261831116925,0.01802247211760545,-0.003993794701986522,-0.002422923553705035,6.2700000000000005
-0.1373375960094121,0.18397218225816803,9.833213227443915,-0.0025772854731582907,0.006360138952199698,-0.013505652591299464,6.28
-0.12823986578215665,-0.046564517218929534,9.886139427207121,0.01163585200260223,0.009027568701456538,-0.020962349201058036,6.29
0.04534748938805012,0.16233855922398133,9.8728685049362,-0.0030367934203543033,-0.013039220164733006,-0.010733605021964483,6.3
-0.04792321568585855,0.0933025018699542,9.861388532740072,-0.004273439712713782,0.00038706237270812313,-0.0030393301543618803,6.3100000000000005
-0.11169313168673592,-0.03292401346725395,9.936313780730998,-0.01040241192660032,-0.012703680435159617,-0.006420667037579051,6.32
0.01852542137078629,-0.04146930176866566,10.052971494646238,0.004913056291857657,0.014206149201455687,0.019612408505224794,6.33
-0.08712564614046858,0.003756688509201229,9.78871156061919,0.0005795975343693571,-0.003776513320623189,-0.02312489303134689,6.34
0.20121387349190872,-0.15033701698110938,9.829561381807265,0.016360270771892574,0.0001975619434801946,0.004396698761158727,6.3500000000000005
0.0398507358012715,-0.10769536775855965,9.902487332544805,0.0167674479611467,0.0034902593551795593,0.0014322975463694398,6.36
0.0684833000093558,0.0620021254415207,9.794816835870678,0.0036196294540852955,-0.001026565806660678,-0.0029180812742524366,6.37
-0.04309943623170726,0.07369521662948056,9.737012521730344,-0.007234924326266589,0.003848717718278055,-0.014408297009878751,6.38
-0.13467449566912326,-0.1566176425737685,9.790585479925664,0.00258601053431741,-0.009684929536805125,0.014196277351316702,6.390000000000001
-0.11328960070707257,0.07781506314933029,9.867489867511148,-0.006251396490857729,-0.0022129532718088048,-0.0021655823306488855,6.4
-0.06973998675436394,0.1246230379678946,9.818705616923983,-0.00764740762405728,0.0037027308495715472,0.0028525413961345007,6.41
0.060767641200858494,0.1968370121085988,9.593247476166912,-0.006058493360958344,0.0019109756599105677,0.012936515956623689,6.42
0.00039019305426262846,-0.03757454841637775,9.971247315899582,-0.0036086585353649874,0.006603471538488175,0.017244979725417674,6.43
0.07019925925633096,-0.07535088583136049,9.75500465253791,-0.008438515862117283,-0.027714319112404323,-0.013611772638387023,6.44
-0.02570019571633224,-0.03248916757574632,9.66733075997687,-0.002297568520279657,-0.006387487812992949,-0.015599490769392177,6.45
-0.020424510208955835,-0.12049131618465928,9.90061295076204,0.009248754635939833,-0.011636196852881918,-0.011349804201158513,6.46
-0.024074159384055327,0.10522051995995765,9.71317299333568,0.004359170403076824,-0.008314745589115585,0.006213817899476918,6.47
-0.15812373539320787,0.16019129464103102,9.866466667608822,0.02180536215916307,0.011362560965723674,-0.0060842544768697285,6.48
0.19043978463023437,-0.026114899525105612,9.850650717759347,0.007605301521518943,0.019295202427575202,-0.008501583586728475,6.49
-0.11987709126929598,0.04873876158994463,9.737513566179528,-0.012567055130540366,0.003004532623311927,0.003292900933771164,6.5
0.009182399666377083,0.06953131921779364,9.83480232811928,0.007359890454202396,-0.008515703707412937,0.00044170239254324827,6.51
0.07254609043649778,-0.029207473862506012,9.779868914033727,0.02396912630107345,-0.0030135009884057836,0.006840009218360994,6.5200000000000005
0.08602154699626043,-0.11324631007103786,9.847522159843098,0.003771459103152044,-0.01069517264664741,0.0015093527496328639,6.53
-0.22409425516120662,0.07082607338679985,9.797248871582205,0.010857684503842897,-0.0031960293886685786,-0.014641278482284407,6.54
-0.1893478369102236,-0.06711467469812421,9.715912165024159,-0.006465672452160194,0.003491242085241335,-0.006265620061732653,6.55
0.03590540147077016,0.14158910218517426,9.76714788025348,-0.015592926247189475,0.015818768580731862,0.014526456036231197,6.5600000000000005
-0.1032437364871563,0.11767269699788899,9.850708743642695,0.0014337383608335,-0.023320056189649083,-0.010058028581720706,6.57
-0.12193540719903168,0.10744152847024815,9.70295101146837,0.008556188487120905,0.001026764434118669,0.023586604845111103,6.58
0.17434908053045323,0.11439324873448826,9.830275223778992,-0.012626950153914221,-0.0077578411643664585,0.00027948908807442916,6.59
0.16013356842237125,0.0794465605867102,9.950683502617077,0.01901230359207099,-0.00042681904361786853,0.0002775435678023737,6.6000000000000005
-0.002371192268324207,0.2685688768693408,9.846938137495526,0.004208805874888589,0.006002538901776048,0.006262453439301749,6.61
0.12294116528832313,0.22761603259011307,9.7495844371325,0.0032933520185230414,0.0008385586731095682,-0.0027551608382058923,6.62
-0.06750455428907584,-0.10885644495804087,9.623596708865277,0.01800446230492441,0.002807328558059073,-0.00298543092091789,6.63
0.16509259811926613,-0.08618620445288319,9.875359515778854,-0.0027196371933071216,-0.0013677762676438195,0.008403936697121167,6.640000000000001
0.062214669042510475,-0.09245216100298592,9.774746417560143,0.00799483160185164,0.005649067666638644,0.009601395604315024,6.65
-0.07095898068083238,-0.052561510169397335,9.717589399510416,-7.13488096333345e-05,0.006712540783717196,-0.00862929270608895,6.66
0.08628081041053569,-0.03323255951500035,9.735198889625579,-0.009014057453287148,0.008667212189600445,-0.01389495410808723,6.67
0.12236626500819768,-0.015225802578724879,9.92126609570395,-0.014227419551647906,-0.0015591164201600222,-0.0005700280872111875,6.68
-0.03701069888633387,0.06053217909474508,10.068964373207276,0.0003605365189977285,-0.007119768313273694,0.012107062821694816,6.69
0.12057435495551434,-0.12759785749131003,9.75099785093403,0.0035383515617869316,0.0015189586366414795,0.006780097741416567,6.7
0.0032726999721460885,-0.034458092958680256,9.705246840322836,0.0076684625702381284,0.01729030214444099,-0.019502933565771804,6.71
0.09851703971109088,-0.04006790461756556,9.811185809358248,0.001553922575754385,0.0014370371466932669,-0.005470200718668078,6.72
0.11562870979212288,-0.06302952119980823,9.742046668739025,0.011155300053299528,0.00626831231874065,-0.008560241551391503,6.73
0.057689119122938996,0.10257367108689626,9.877350315433013,0.01065024072598075,-0.004731983068326683,-0.005964318713652049,6.74
-0.07471503372259107,0.11650684273473502,9.730370287371626,-0.01745391473472424,-0.0029221183640725313,-0.010027726436707428,6.75
0.17384258265252436,0.21172225006014367,9.914199339873887,-0.004327168454154041,0.0021825201574478424,0.007447107778200223,6.76
0.1766928041805211,-0.09339201281134328,9.85474931180629,-0.0008054126041252616,0.00218903512845677,-0.005794699021047758,6.7700000000000005
0.10739919254379643,-0.05111005656225216,9.767778032785618,0.000551292071513294,0.0019217020027168913,0.0030049857697744737,6.78
-0.020876887058320297,0.07924921415976427,9.854061981370785,0.016557434076356015,0.011011643824409598,0.012788327950300302,6.79
-0.04773238409854116,-0.0709124759678459,9.68913087248375,-0.004207759094643176,0.007460184622017252,-0.003052310368788998,6.8
-0.1120909821721164,-0.05659713008649009,9.805406065059485,-7.619862359597503e-05,0.011090968972608781,0.011807906110988,6.8100000000000005
0.1286242996213287,-0.12942753730064466,9.614615944826681,0.003683352322090952,0.0047948585982417035,-0.009392618977613313,6.82
-0.07500034627766877,-0.11116299068485713,9.699090179382035,-0.0035815367901459692,0.0214681218676687,-0.023750924782605556,6.83
-0.02760458647878016,0.05535759585519354,9.806988465306619,0.004233096094835789,-0.00584191567592717,-0.009934334349634534,6.84
0.21687935918007628,0.04955417226460935,9.739812370006574,0.0014549602957555604,-0.004629487777645398,0.0034509456018297323,6.8500000000000005
-0.08107218839825554,-0.053545282441720125,9.747302925713687,-0.016290075270122842,0.007964868234572512,-0.014319063345853,6.86
-0.14259601571583458,-0.16792580810807403,9.700553674946852,-0.0009715545762337616,0.00044751402370058065,0.004456576197793792,6.87
-0.02022191329882857,-0.10447724337828618,9.718631913929299,-0.008357858677545944,0.002412613263007217,-0.006492134134952798,6.88
0.09757436125172267,0.10197736774712562,9.74045457661061,-0.01781178337192525,-0.00857933690446616,-0.000110565552146419,6.890000000000001
0.16211307297442587,-0.12554257971557226,9.762484225370587,0.009192224444556153,0.022473126171346655,-0.011970852950521685,6.9
-0.14790804344539488,0.1113801188890698,9.883284335918907,-0.0013302059721429407,0.02479565237698958,0.006738330487249153,6.91
0.12343004023818904,0.1627438280909311,9.87460266919226,0.016309897231827835,-0.019515578126761114,0.005109628919685742,6.92
0.001708343647404267,-0.10651196209612523,9.903126706773728,-0.01113667234893363,0.002148118689504038,0.02888549195942129,6.93
-0.0831276389852474,-0.0200412537823654,9.564763307951642,-0.007356398066199206,-0.0026363236278660264,-0.015558956593507407,6.94
-0.03478513061006233,-0.0896397116104986,9.876562274673933,0.0018794153273935204,0.012680440046400345,0.0041575213123964515,6.95
0.2141154150512642,-0.1461005942646235,9.764396665010045,-0.0031774644052072927,0.003829922900654662,0.0038898814660022507,6.96
0.01462428228573125,-0.15415658891458128,9.712002836135904,0.007340022682597681,-0.017341566391046195,0.0013155682501242063,6.97
0.12763449415058378,0.18451359212502041,9.732735589019223,-0.013055437908652141,0.003145112999363294,0.002153902287313037,6.98
-0.02716202289471599,0.21446926188473003,9.662964227578193,-0.0018110601692568323,0.002306643528634598,-0.00549042499626241,6.99
0.016350638875056743,0.17808426192354376,9.837545573776133,0.012718561155854803,-0.017526343688205104,0.014755463246912254,7.0
-0.03603510959276115,-0.18848992706901022,9.784606807792182,-0.005172053275397415,0.0004850976791523728,0.0027446774801135384,7.01
-0.019375636830467387,-0.17682354201951497,10.02908082966639,-0.012665664796366244,0.010323606152150167,0.0026254699154269036,7.0200000000000005
-0.07999415014134507,0.07213395987076547,9.829663935597285,0.0033222604181065304,-0.011160386583200652,0.0013173615961486443,7.03
0.058587894391493145,-0.06088620360924416,9.684916719971772,0.00965437110288187,-0.005561745524357674,-0.011648271026935053,7.04
0.07806151817670645,-0.01572263368131685,9.839551389628252,0.018296742281404366,-0.004211014231778718,-0.001629710677943788,7.05
0.019488010847582213,-0.1778992879812208,9.788441123332356,-0.006881723743300279,-0.0005173533567206116,-0.014123549975601469,7.0600000000000005
-0.040417177477158686,0.11839094761363307,9.574358126189995,-0.0019459578022372104,0.003638872081568746,-0.0030269708567676173,7.07
-0.02151052462005735,-0.013665808836093616,9.790197174449588,-0.009701517289506916,-0.0021439242822083025,0.006871302660103928,7.08
-0.029946940303162545,-0.0798604719350599,9.738695116064475,-0.005278108701955441,0.00840233447574372,-0.0063816752861017454,7.09
-0.039810258091604954,-0.08518103092557083,9.902922505324858,0.0048911358017779336,0.016879334564514445,-0.00637493487509948,7.1000000000000005
0.05719241552909084,-0.1649280880941578,9.73763675740338,-0.00801479858305881,-0.0008527995304916939,-0.0025557085240294542,7.11
0.16376035841830777,0.010404512068843238,9.790395685967377,0.0007705753604711669,-0.004153072773280543,0.003997397452011455,7.12
0.2503961120215606,0.043086446534177064,9.698288945449262,-0.007960077170679883,0.007399862689641566,0.033100067924691896,7.13
0.08712668080489366,0.02000440948965952,9.536226253173842,-0.0006175455388347977,-0.00894136820019255,0.008139712016856114,7.140000000000001
-0.2780388301716949,0.1175392378710945,9.793712562942739,-0.013367269944709777,-0.0014853909100843638,0.0073522979224142065,7.15
-0.028520385446611646,-0.04194099671401988,9.784683346079296,-0.004773889030316255,0.011139123409343388,-0.00536352301733224,7.16
0.0012813628678484414,-0.06951975126239486,9.796286501055228,0.006439071471761714,0.008758411711100492,-0.015187500540782451,7.17
0.014512631947621289,-0.03880120195917447,9.657291222446176,0.00805621466340427,0.0003863943100414639,0.007563041419086861,7.18
0.048252413097330284,-0.19347334940172925,9.890699093087422,-0.016352580014025613,0.0038375126428945843,-0.008870845546342475,7.19
0.0007579645771278223,-0.048478098419166483,9.653402217369898,0.008511371449372708,-0.012045875981347121,0.025414885442208046,7.2
-0.06105818670099719,0.09269817244096265,9.760438503253337,0.008061622991371191,-0.00040825391846448705,0.010685498479946785,7.21
0.039505574765739744,-0.06846510301494647,9.836620651332133,0.006028165982870063,0.0010140692088647847,-0.002204102313804607,7.22
-0.006778345581003622,0.06338936008154437,9.742538584741617,-0.0018381724357266732,-0.0006091128273309534,-0.002088217309305678,7.23
0.1595599040988119,0.008074036772603078,9.888802193739162,0.00570193999333034,-0.00847466635494385,-0.014653501779952794,7.24
-0.07124785449317882,-0.11176041827023342,9.800152304874103,0.008217451742177749,-0.0019354452247375786,-0.006876715457208959,7.25
0.19739059939870893,-0.0708929751825091,9.938516819075026,0.016444448456053383,-0.0015024737842596857,0.016440288920113393,7.26
0.026801529439555407,-0.0002155273372038668,9.818328438759423,-0.0017752392584260454,-0.002661589651706002,0.013051451127282777,7.2700000000000005
0.16132128959378367,-0.0017105105133215313,9.886185621294137,-0.010182554536418822,0.010041694559163757,0.007552627470653517,7.28
-0.14073805456008487,-0.07235105218735408,9.832894165276388,0.0010437606016674007,0.00721737309961279,-0.001175128739882935,7.29
0.03089670786232328,-0.0350884598271564,9.898951008221141,-0.009192159775811072,-0.00043438865076211663,-0.011447482537274624,7.3
0.03894050696716134,0.08901126554283131,9.838006059378463,-0.010586925250047775,-0.0002849520755383466,0.016593042077872745,7.3100000000000005
-0.1026997864705215,0.00817383843189118,9.986869403189342,0.014735333999066768,0.0007278718265345768,-0.00937606085265582,7.32
-0.09170825821540957,-0.04420412383390244,9.79316613588401,-0.014469063149970578,-0.006990835155379796,-0.013165345183705601,7.33
-0.2205862845892082,0.027207923263599356,9.826312926532452,0.006734160928474734,0.017999162007527478,-0.019716704889623113,7.34
-0.03153737222365532,-0.08326097899378819,9.880715510594873,-0.00948405351575287,-0.011115105280560256,0.005204420843753448,7.3500000000000005
0.07314468681195051,-0.028436252487648212,9.8573789436115,0.0060925301306709945,-0.0039961795312412115,0.008910112291134822,7.36
0.08298501840840047,-0.08009400335765077,9.86135720524984,-0.009594766375300733,-0.005742804102083268,-0.004715456600431846,7.37
0.09512969765112217,0.08046769761308081,9.867954744568415,-0.0015287032550071811,-0.00900098604863007,0.013579344983337554,7.38
-0.09831206035735562,-0.16931130136868103,9.76434033635045,-0.014147213716271666,-0.0014068557233760067,-0.02167648229491372,7.390000000000001
-0.16701348023814377,0.04139215138769098,9.78142715210487,0.015168548990247523,-0.0058975799394405636,-0.009595587211024244,7.4
-0.031098714200392504,-0.11811593574086945,9.932099325399328,0.004742381105677399,-0.004956234105721597,-0.006447245613068162,7.41
0.08925546919055863,-0.09029167877944458,9.759779950017665,0.013012293442510437,0.005228707752355697,-0.004522974994554498,7.42
-0.00018752170635292522,0.07451688816698618,9.7657670555367,0.0006376813553764109,-0.004453466710560509,0.011154509870669196,7.43
-0.07950494437216396,0.0017646829858310458,9.750248557622994,-0.019895621851400074,0.017690701865198475,0.010053085435059532,7.44
-0.18137762357582332,-0.14245737248212995,9.712865238410474,0.00048792264562210933,-0.0063263766209737116,-0.010246174800666821,7.45
-0.030622385762964544,-0.09622739136908648,9.902149997425303,0.01204912880991131,0.008551205005229606,-0.02140420970219767,7.46
-0.11143776984069076,0.03149505057527843,9.718652579601091,0.014579788415514367,-0.004765759115839282,-0.00517872772456001,7.47
-0.019084072094172747,-0.13985660413241247,9.740122079550702,0.020736926353396936,-0.002000094913915274,0.008668030578023973,7.48
0.06475333868755148,0.015389596044606336,9.798579307126221,0.00734047019957915,0.01728168488979264,0.0018434790434059415,7.49
0.19051841328146357,0.07568259935285662,9.769092582612487,0.0022143664002978072,0.007301736868802445,-0.007905990925004363,7.5
-0.08637287065809768,0.04245886170489037,9.857285582264426,-0.023535142720411385,0.007071243175646677,-0.008131696714212532,7.51
-0.0700328984405644,0.09331698662380385,9.600641346177634,0.016796024609889573,-0.007583482497437465,0.003594033247279066,7.5200000000000005
-0.01115180821131151,0.1711133054442295,9.757606106050318,0.008659816611962452,0.0031217436501887,-0.016333101686046823,7.53
-0.05590560782177906,-0.0439462050025943,10.000653093161302,-0.019449781302779086,0.0027308002136200034,0.008763731142372447,7.54
0.07055730103679984,-0.18178632178293586,9.657642427500027,0.02706884120816283,0.013374211179714043,0.0014424718989372019,7.55
0.014692848477773461,-0.06985714983795084,9.809672573786159,0.004548633032152598,-0.005675441006229818,0.0009033947512477393,7.5600000000000005
0.09016851852465067,0.1775312454406803,9.810359139836752,-0.009647846720070427,-0.002676528960452299,-0.014261190967683942,7.57
-0.07273098731445922,0.06783534127754669,9.887879689142638,-0.011778124890221597,0.006735423451021385,-0.01992452681144542,7.58
0.0001964512120270537,0.0840403629278966,9.920109642910555,-0.016019268919244465,0.00221390298309614,-0.006854556124253911,7.59
0.12034217474372895,0.10861479839987781,9.72280660666075,0.01367770066839942,0.011076762035755486,0.0016643491326840205,7.6000000000000005
-0.04402977544700125,0.019099985805832147,9.783761140823747,0.016765057366226143,0.013426411936305442,-0.011697997715472086,7.61
-0.03560713663190297,0.03733864813439624,9.751759183584582,0.0047210516716884076,-0.008801262410949846,-0.013506554841096814,7.62
0.02036592413513166,0.07616147824394848,9.754836616721363,-0.02561469778327924,0.008081713230765767,-0.013000803498976475,7.63
0.0223466980555454,-0.07856621821821094,9.945483872478425,-0.009445315717704255,-0.009437695362983651,-0.002249102967624498,7.640000000000001
-0.12041852972983794,0.17194196798735364,9.762282653415369,-0.005453537756678648,0.0037199411867988685,0.0052495824332711195,7.65
-0.003258004473214641,-0.020471845904274817,9.721835736522662,0.0029389805143492606,0.0033134251724398667,0.0003793026730132686,7.66
0.017302978698786938,-0.015418779657643197,9.712555442568116,0.006345487553134992,-0.010670987647117689,-0.008225244594194025,7.67
-0.010379556411285339,0.05368736363236434,9.845086370338883,-0.005221755760255372,-0.011201193600159228,-0.0011085861613123321,7.68
-0.13170220994433954,0.14112400138834885,9.772829965335037,-0.005578922095482873,-0.006927747874557472,-0.0037570384808022534,7.69
-0.007164194946170693,-0.12655009806951106,10.034453889264372,-0.004383603842968202,-0.01996978825332307,0.006265991031612504,7.7
-0.028302162082424427,-0.19974221826265523,9.912939450659167,-0.013569490057599973,-0.007964893628469433,-0.0030147968321740247,7.71
0.04179522935444789,0.18689758307525467,10.00194029371071,0.003891159299546884,0.001785098601844174,-0.01802886919937928,7.72
-0.10452150624313046,0.09781207169601229,9.731404195350066,-0.008821618896214885,0.0030507256914488637,0.002673020648830435,7.73
-0.06088694886786327,0.04207021842791909,9.969564618884686,0.0013477452365175259,0.00232982643399805,0.0070434779112373384,7.74
0.0007689722214965922,-0.09680019790338629,9.921305151003008,-0.010025627152358744,-0.00701157371759549,-0.0030345098517165353,7.75
-0.0005571222052999065,-0.0075198096170168765,9.615281667464455,-0.007419448211508543,0.005100354441612134,-0.011340127126981122,7.76
-0.09774088068568723,-0.1070157772552892,9.719090300419888,0.013251984150502277,0.013307415535954666,-0.001732833077486354,7.7700000000000005
-0.0984859150641069,-0.14642825224964498,9.837860483959743,0.012892262580798921,-0.0037432157488146395,0.009226657686311925,7.78
0.06162780248634381,0.17170183679384765,9.914916450603906,-0.01132916990317052,-0.009695771081088874,0.00670967466423885,7.79
0.08740163752354127,0.017618862300605994,9.660613703034285,-0.011533167568405896,-0.009450022980977945,-0.008678352607511795,7.8
0.03710899818510084,0.12489307801783628,10.025310807776545,-0.00301996716572899,0.004982997421394398,-0.002598032706686982,7.8100000000000005
0.06518142922400429,0.15993626500910707,10.018150290897346,0.00758170960909173,0.003900562472165854,-0.007386167231170898,7.82
0.14018492989734074,-0.05607305709344032,9.905624139598652,-0.0008141646491122355,0.000681771214931471,0.002733021595506569,7.83
-0.10293273293423617,-0.005143235345822721,9.709228251421866,-0.009905089300555857,0.007730937077281268,0.006533567178011001,7.84
-0.003738982056326709,0.018197794164880314,9.789363349645855,0.004586336058184059,-0.0005077022723604207,0.004339635237471637,7.8500000000000005
-0.09926066865113925,0.04843041393053508,9.745720549721984,-0.008670249051474701,-0.0035569131057190373,0.01060607478016226,7.86
-0.0042411401838548584,-0.06286150759187413,9.826069266171082,-0.0033128175275088214,-0.013716149265105988,0.0035645518859303894,7.87
0.03322991110725936,0.20808698200236148,9.70354825169592,-0.01012759365510216,-0.008076678475664482,-0.006483282435821318,7.88
0.12848139929196103,0.08453744238698636,9.928458840294752,-0.005170747037944095,0.0041288782511480476,0.011484670067216748,7.890000000000001
-0.09818499307437219,-0.010323125793487126,9.867234618627807,0.008413360392287003,-0.002688967345924753,-0.004853891523430221,7.9
0.02986354803876384,-0.2676305666301357,9.724656813345582,-0.0019029048522633456,-0.014218922591040902,0.02391194891841439,7.91
-0.08471293091268518,0.14510033897184124,9.914231595244772,0.010406971260495073,0.007592100579492003,-0.003458172810085193,7.92
-0.14028315147375933,0.13534881908805696,9.647200401815521,0.013084109502044361,0.01287480901587756,-0.005424782312110388,7.930000000000001
0.045254578204098964,-0.015238560995494655,9.701117567181663,-0.004201760700721527,0.011341060470064104,0.0010959496627377737,7.94
-0.058164718154571415,0.11810180002015598,9.770699249571962,-0.010449275744321689,0.0005376318551386923,-0.005106750087517023,7.95
0.03378998569382381,0.06440833530034194,9.759927074056868,0.002827720093690601,0.005443660014860145,-0.006561937377498505,7.96
0.03943151275556016,-0.06421018200374844,9.89376636006227,0.004043725762875832,0.0044279881586371,0.017017741335212604,7.97
-0.13644120762464093,-0.1589842936048677,9.951659008828686,0.008077979095730619,-0.005816653071964945,0.02186866764608338,7.98
0.057236501627936004,-0.09681078874854371,9.721247163042547,0.0005862467134899471,0.012847475082822116,-0.010029929274532867,7.99
0.038494383949970665,-0.05745205202156506,9.876574647192312,0.002968791735590159,0.012562659782675262,0.009187307576632617,8.0
0.048462118639372664,0.023100331388453573,9.827417650759687,0.00036489791959516476,-0.004302553178651975,0.008622295323000812,8.01
0.084505397569257,0.15651304011204614,9.868297232476992,0.001404771963112182,0.0024128766513319224,0.009736300643625816,8.02
0.02042256250178805,-0.008882021024312476,9.815399656538775,-0.005552153673649021,0.008953969107757425,0.004904077659594849,8.03
-0.04322508077864282,0.1541459422413839,9.877871574532943,-0.002535412227438858,-0.02456508726028203,-0.0004207906359487332,8.040000000000001
0.014166669392132368,-0.1048420651325696,9.761094362357774,0.005240712671636687,-0.0001933695727663827,0.0027450866697988157,8.05
0.03001724770114164,-0.08738773160510994,9.795025025388878,-0.00023376741464909944,0.015462230389015006,-0.005947237042820418,8.06
-0.1300284432067604,-0.022320139876814207,9.75713207961809,0.017404746807577472,-0.0014890337219025638,0.017060207261703188,8.07
-0.02079054321496607,-0.05975432513830409,9.810708403229023,-0.002092516976618736,-0.0033068314001047155,0.010387094273638927,8.08
-0.09972702930339296,0.030474319007261493,9.631260732162014,-0.018743378937425635,0.010362138720090078,0.005157898093775192,8.09
0.16028371898769955,-0.003639647455892958,9.810716356797885,0.002869495446956486,0.014350027194784419,-0.00019571562137987519,8.1
0.007359628443115502,0.029103684235312295,9.83634809066035,0.0025420146792422683,0.013574000460471622,0.0011863041184930082,8.11
0.16344855171442282,0.0023712818958319245,10.053556413193146,0.0042851442441537635,-0.000959133420569569,-0.007971079871925467,8.120000000000001
-0.046106377754929276,-0.18293119429629914,9.735486949170344,-0.005044505808990352,0.007121524162966336,0.008985560939415781,8.13
0.09841578923419864,-0.09001626370605789,9.74433044834166,-0.008947576671972574,-0.0009601625848024581,-0.00174283258614222,8.14
-0.07123284162812919,-0.04050633060694928,9.662635635332116,-0.010862676558058204,0.007670014260561417,-0.0030873290795131094,8.15
0.07631580368114278,-0.08013081317429713,9.742957554555971,0.01258408489604374,0.022802456737354544,-0.0012092831929807024,8.16
-0.051957223210978024,-0.11159965368033645,9.848906947453118,0.005503906232031165,4.570140840276419e-05,0.014800786625802307,8.17
0.12215916142137356,0.04352812760709508,9.810246297978859,-0.010120805202471373,-0.008272876436096371,0.0034199100208351747,8.18
-0.026268972385646495,-0.13786961824176566,10.036983137347846,0.014956913383692004,0.016144601540882455,0.0018874276486113473,8.19
0.05996336194385837,-0.03706365971776018,9.825459330235404,-0.008596796148042195,0.006550841064606029,0.009923723847038999,8.2
0.00935022343724706,-0.007111046068885546,9.736296740605848,0.00044285953824368875,-0.014792842039377958,0.010502524481201076,8.21
0.11576879908923987,-0.12554371802214678,9.79886051966613,-0.0004897223904352068,0.0049114697700991744,0.013696831560279408,8.22
0.0032888155540571023,-0.20436901524778364,9.855520119705938,0.01846847703795112,0.01009760220691593,-0.0004954755841657587,8.23
0.07197089045179911,0.1923911124132046,9.84711840671914,0.003244375698836637,-0.010385707128665501,0.012281849813593565,8.24
0.15277884775836048,0.02660037630362376,9.72450215970986,-0.0006797687185733361,0.01058522624398949,-0.017205076092092923,8.25
0.05665233594246606,-0.08346371142376885,9.785602864332962,0.011106025318701685,0.0056973927334819634,0.02144338639836271,8.26
-0.03784211698094975,-0.02129396657910669,9.95044400931182,0.0006681358866431528,0.007144127745542952,0.0038646309954129617,8.27
-0.07731860608543471,-0.18661537251674026,9.86710302820734,-0.007505385585166157,0.013663832787375527,-0.01786103193438457,8.28
-0.12362823306619436,-0.11864682460183076,9.800034835097609,-0.0020811185707617814,-0.00532770198630787,0.003434345155635099,8.290000000000001
-0.09022004327875878,0.005008850622475275,9.85779489580332,0.008473738546224649,-0.0016715622411322393,0.005915512495012746,8.3
0.17527701421644856,-0.21970977143976878,9.824814070060151,0.014176724924806268,-0.021287669413157177,-0.009333613542477923,8.31
-0.20079878576506785,0.0577172474425861,9.695314716416163,0.0059195995755362656,-0.016479350919389273,-0.0035475678701475523,8.32
-0.10929169914240039,-0.30382826253464845,9.862323254996687,0.026287744602974866,-0.0051782444612116256,0.0032224502412041885,8.33
-0.14358192894814023,-0.2849811829803497,9.67226125973125,0.005352428766348869,-0.0050400496548736245,0.0044538377827579925,8.34
-0.09814159344461526,0.16090312498883133,9.96222216276724,0.017412271042915293,0.005440011031121208,-4.0677204551949615e-05,8.35
0.030560733939980152,-0.14133369421263178,9.905929570805856,-0.002119120102787849,0.009793602037694216,0.008950598282376595,8.36
0.14148895263079128,-0.058607243208588504,9.7969954075131,0.005481234669113992,-0.010328341113530952,-0.020389779286136757,8.370000000000001
0.009157268359713897,-0.12805444157550389,10.071337917972627,-0.0055807632961320285,-0.005293683316420986,-0.0028313055557021368,8.38
0.06816567703161104,0.0636281386282651,9.689600968548302,-0.0008642658128986413,0.00505995681874255,-0.006273649174193761,8.39
-0.03151179257526151,0.16554001454574493,9.840589957685024,-0.004491932185062458,-0.003036770254914324,0.00027175947861154156,8.4
0.04998990115315119,-0.032650155653649,9.798660673421782,-0.018403714918075433,0.017844691527982393,0.018341828126180033,8.41
0.15662165777467024,-0.0873201524067101,9.781672494414725,3.233646324892603e-05,-3.306071781763156e-05,0.013723144302902468,8.42
0.09074143850019822,-0.13149207660849138,9.699391044660091,0.004708868940607003,-0.014886345675271303,-0.028810747325885018,8.43
0.023218763732872478,0.02416916284430171,9.791032475966695,0.009224663093512804,-0.0010362585922865128,0.004999211092094595,8.44
0.1501381620420127,0.06428060096129355,9.832504233096712,0.002867420675549959,-0.004149734926539945,0.013919918684387236,8.45
0.020592227304149145,-0.010976779590619865,9.808735436179871,0.00885844595674599,0.005594714628942386,0.007038580473065887,8.46
0.07516206712677327,0.2118142717534561,9.709223482524044,-0.010926114047605991,-0.006442212015782087,0.00962265654325066,8.47
-0.08634481424978807,-0.012046427564632759,9.695108362823591,-0.012864211386791129,-0.011300338890069024,0.003706646188394673,8.48
-0.08809034592619058,0.08590296416922089,9.939997322352784,0.003930537624868688,0.009019925664421896,-0.00041845562574551327,8.49
0.2551545760993188,0.043284149400381604,9.797908864218838,0.02228121540283333,0.000563626928213282,-0.0042641488997984915,8.5
0.019674939839523748,-0.07028652698610198,9.70220537112894,-0.003152082178374398,0.005993928024803546,0.02355948576529387,8.51
-0.1316600437080782,-0.023070701562320797,9.788750317467887,-0.007139024797319793,0.009625625581722523,-0.013247152740933216,8.52
0.04060384359908184,0.013258771546085436,9.779592120043416,0.009458673435479738,0.008430047834528765,0.005964384680626725,8.53
0.026331230892477842,-0.16874896842353704,9.929955602926023,-0.010328902849950089,-0.023314004014288507,0.009012636773627609,8.540000000000001
0.12869231273998621,0.13802017933652272,9.71204975028442,0.0043748444865375855,-0.003914339139969279,-0.011938245992499376,8.55
-0.014714371827473772,-0.068978525338992,9.810142056240815,-0.00018294911644794933,0.01106039871860762,-0.0021516449955337707,8.56
-0.03269438706789502,-0.1433628151573539,9.574791659278752,-0.011191160044973362,-0.000499803393115166,0.0012040919903372116,8.57
0.05968612735604694,0.06184273129083613,9.69912385277201,-0.0033878266431234395,-0.007114840822245745,-0.006126532210702,8.58
-0.08003177435555997,-0.010966653820867596,9.868833761527334,-0.006201975520439456,0.0012901003733614097,0.013590229270559551,8.59
0.11758131166338903,0.04890392588535553,9.738993943490243,-0.005280540745509439,-0.00707673947327458,-0.0037187443866442773,8.6
-0.030465505453515007,0.23373473959683053,9.956128908301235,0.01359684685803253,-0.011781630356660777,0.007528867832573965,8.61
0.05299095188993358,0.21152263206778021,9.912432881932807,-0.0025441120093034086,-0.01822085140718237,-0.002383261303921368,8.620000000000001
-0.12502701622892445,-0.08669029602888495,9.860069007589377,-0.021942297739907475,-0.007380975938665926,-0.0014106833387783138,8.63
-0.002306537808041156,0.10309578586547681,9.691175387692617,-0.004763170686046832,-0.002457818734342392,0.02317907121671557,8.64
-0.16119454935426367,-0.127324936076676,9.695968438734567,-0.0008136241455252717,-0.0051587586296210075,-0.0015456048901933894,8.65
-0.11585187403822324,-0.01648722065334068,9.937660591678824,0.0015324844838050186,0.009384585230464211,-0.0015416415122839744,8.66
0.13103731019124815,-0.01033070547756408,9.726812173319304,-0.0039192124851417055,0.005082556183160515,0.002334751466291737,8.67
0.08234729468068427,-0.13482214480480303,9.787735482100627,0.006244507465795444,0.010135893543816261,-0.006533967165378552,8.68
-0.015718640182638185,-0.025519530610167318,9.84182490649766,0.0017857668699643157,-0.020442771773323046,0.003734364242660728,8.69
-0.12896044677504762,0.23113561282315828,9.691177383430785,0.005187747034585328,0.014583138380900784,-0.013954703161360006,8.700000000000001
-0.07249790907830098,-0.15393633880703397,9.867114960398233,0.0070663149852581856,0.013190757588946694,-0.010717379166483887,8.71
0.008901076328663802,0.010446603670537478,9.696970127079513,-0.014402787261690336,0.0057877324062945166,0.004307594073137832,8.72
0.1552820499779568,0.08779946877201057,9.842889220618511,-0.015598235409623183,-0.007643952936053291,-0.002903006587185329,8.73
0.1378981462364784,0.18480952550055207,9.969002308116384,-0.0031771501222778503,-0.007173032432684432,0.008339561530672591,8.74
0.03756575646400958,0.06509594865986988,9.66581539849017,-0.007150019607256975,-0.0036982275748488336,-0.00419237834171936,8.75
-0.02017529934984428,-0.10003597046363816,9.812149984632043,0.001955368122524803,0.0022599009229347065,0.011428861405162987,8.76
-0.048296410798077956,0.11148003843420931,9.801597481339812,-0.0010056112632767392,-0.01505508789220958,-0.0036827581644922436,8.77
-0.021770150337523955,-0.020642079902374755,9.584748796718126,0.0025773169410052894,-0.022993556713879967,-0.01208326003413257,8.78
-0.08659545957534888,-0.04931613129037831,9.694482015458886,0.014972957765007492,0.01290150776398716,-0.008117278598590318,8.790000000000001
-0.0792798166627309,-0.03850122658408861,9.785464148125277,-0.006272948721547339,-0.0046299523613989365,0.004556614189476735,8.8
0.02926227624148109,-0.06158519404411975,9.873664015040161,-0.0009116229184954556,-0.003667751707962386,-0.0047220171702739835,8.81
-0.004033518054858794,0.10022638791252554,9.843811444823125,0.018126022728093383,-0.018253438016183784,-0.0029900508072976694,8.82
0.06266047088903283,0.11807813391977495,9.944017985993275,0.0025132565335164603,-0.008054177498247316,0.009301243983786232,8.83
-0.033797075936884365,0.028127577562103642,9.808659618475302,-0.009530931921998699,-0.009065133506837837,0.003996596195584627,8.84
-0.007920065671065247,0.1255694669278064,9.902661054999042,0.009447993818836254,0.022747379218441725,-0.0005811088703522745,8.85
-0.07205295391929568,0.028306892431314776,9.852100549010476,-0.005226026594873108,-0.0008695691627066196,0.011667929248108088,8.86
0.08450583546429968,0.16204958439156947,9.848545270175004,-0.01952723219458611,-0.0010865135000363386,-0.0016594930609690928,8.870000000000001
0.13295606752728073,-0.07683446271619004,9.811456234794633,0.01042512356635307,0.004027581120308881,0.005678098924778162,8.88
0.024955635428609922,-0.26468485199485875,9.797070726806147,-0.0034854905315602563,0.01683623452906966,-0.009534295773205777,8.89
0.11065818878265594,0.017595470068463497,9.831803735227632,0.024228606713838308,0.006907406233241856,-0.007832759041503105,8.9
0.11714399318997946,-0.037520773411931586,9.975812794163529,-0.003016621577155878,0.0027769356487711036,-0.005026620039472622,8.91
0.04320206809444867,-0.017646909475796158,9.959820370499713,0.009979790442076126,0.004551895604802159,-0.010867313269378983,8.92
0.05158619574731954,0.11335493156806722,9.88790791422748,0.00923784054786242,-0.003730182945750652,-0.016182183436988695,8.93
-0.03102911199196931,0.09169038900337945,9.82420788420743,-0.017861863748776265,0.0009493160771863664,-0.009308776410608266,8.94
-0.13215079862333873,-0.04271539899243843,9.918211273911355,-0.005857643460454582,-0.00723096010340961,-7.081549782152302e-05,8.950000000000001
0.057754784615407596,-0.021062952144498718,9.74993132907253,-0.004912213833675025,-0.007775404434560246,-0.008117118458014752,8.96
0.008931771764376267,-0.010490952746827799,9.893506708797002,-0.007471775427631336,-0.0021546691346661095,-0.0014320356548539188,8.97
-0.12538698274485202,0.07051545717326145,9.8257589872573,-0.024293968955731004,-0.004138665971732951,-0.0024299854038785052,8.98
0.01239955042142344,-0.08141248262044679,9.764717290478595,-0.015125147686771484,0.02277487519659895,-0.021308935468711897,8.99
-0.1306106501895166,-0.024548119640358943,9.824582385160179,-0.002703254317948997,-0.005969375629748712,-0.013428210205091032,9.0
-0.050656032022265776,-0.2271151730249435,9.980549031921383,0.00562977990010525,0.015645914294140063,0.0012569718241686393,9.01
-0.007581494248379205,0.00045317786983947424,9.911718175857724,-0.008024293475539042,-0.009978911263585738,0.013429447319733103,9.02
-0.06326152975635037,0.05376124344870688,9.79151868006563,-0.004551587838937782,-0.01334219530889491,-0.020513311366055272,9.03
0.11386398229642361,-0.327974259330722,9.825113772578499,-0.029992049369648815,0.0033785810489648867,0.002898714555670584,9.040000000000001
-0.031529892426494004,0.1737200600964263,9.935390883733442,0.008319917296034887,0.001958715529936032,0.010030040181887596,9.05
0.15142895995131456,-0.019406836864211893,9.843745938622178,0.006865028374302252,0.011282194560454064,0.010149810105366728,9.06
0.01736155177486439,-0.045545474161258225,9.785208377376916,0.014746140674341893,0.007698262987018603,0.024371873547889906,9.07
-0.0354906442760223,-0.026077577705533136,9.57929794143472,0.018918691284011774,-0.012989805928983347,-0.0068954902931847644,9.08
-0.05280201701367415,-0.0479165787792114,9.756353483723762,-0.019922284511556882,0.010917873873670799,-0.0058263281166661095,9.09
0.02471798234789045,-0.135379248102204,9.791179278733889,-0.002490340853922064,-0.001257816033079787,-0.013531036120235635,9.1
0.12158812496375188,-0.1292591976462056,9.794185638503437,-0.012835160958635771,0.008301455321361393,-0.009172587448333524,9.11
-0.07958041140809578,-0.0018202235065454889,9.790929158987565,-0.020832522862775787,0.010101592309710456,-0.024437732220128263,9.120000000000001
0.16439748403569024,-0.03249491200862025,9.737035853166807,-0.020452705232042852,0.006915510819556627,-0.00679648102134709,9.13
0.16372264377850898,0.0037093215023658575,9.653054366655065,-0.006134312092944903,-0.00037916706609733634,0.0025171003860348256,9.14
-0.06881962214483636,-0.006657416241562542,9.818884055303252,0.0013668542002974262,0.007091692046408398,-0.008544623697571519,9.15
