ax,ay,az,gx,gy,gz,timestamp
-0.0551249526301813,-0.18190434550981202,9.778489175007074,0.008089569235190407,0.003934436723952918,0.004375507234168865,0.0
0.17708233499382556,0.038359970194699174,9.776954862130715,0.0029121048353819533,-0.004193073930670277,0.012312664779225735,0.01
0.027508113616728804,0.03261389453527421,9.580874700329911,0.005509834211617128,-0.0027629215391833414,-0.008016370718393274,0.02
-0.26035680144929496,-0.09630202244790387,9.838586155335438,-0.0011989807119548556,0.005924931239527852,0.0059908132947395065,0.03
-0.15768975667393814,-0.0008910222563104135,9.764225015777566,0.01854143155138291,0.013965423614124277,-0.005339271826231901,0.04
0.011939335373022272,-0.19329951066782922,9.781405280031398,-0.00409529418189423,-0.006377973817794808,-0.004060299946341933,0.05
-0.13503784416576944,0.07169608910867058,9.944348198811117,0.010001142162462808,-0.006898903142273285,-0.002101007984027579,0.06
0.13145245427856353,-0.006652273519097328,9.92307900937898,-0.009882925686206426,-0.0041108614148014635,-0.0031461651135034547,0.07
0.06104243161320847,0.06981838011725908,9.9539800009886,0.006418297801527505,-0.0009813774809269576,0.017309417302224853,0.08
0.08394067338569325,0.01586521269207913,9.81707052395402,0.003870986888242129,-0.012341829631732453,0.015019694252779646,0.09
-0.13575596914846955,-0.08020568008500716,9.83395659124047,0.026206971585513186,0.0008886843122674927,0.012005530071759956,0.1
0.07185393613669669,-0.03917923934340746,9.722032368210174,0.004624554164703149,-0.013979500681081954,-0.0010193828138285992,0.11
-0.009964218796568504,0.022041926224814736,9.767982255832903,-0.0058532192604967385,-0.01866598852313092,-0.005943876384219066,0.12
0.08625394362539501,-0.12338979567310693,9.704306135689599,-0.005817576513331847,0.006092377003588846,-0.008892099648492444,0.13
0.008509113550536185,-0.024166203531841124,9.868885627688146,0.012433979774622402,0.002654759991644261,-0.004980122926039167,0.14
-0.17091732011719132,-0.01713811209775563,9.750674786380179,0.003424350372901623,0.0067443408821755806,0.0034434635203138713,0.15
-0.06889110038547233,0.16543567423873023,9.674867442287239,0.012974540184170559,-0.02302020566076273,0.0068293480286096865,0.16
0.11189175737506465,-0.03023633187383414,9.858587418395231,-0.001736752213936348,-0.005974564165798105,-0.0179906005119457,0.17
0.03395425602370441,0.045108655870368115,9.810150198902083,-0.013812687774318162,0.008100964993960617,0.012562442986013167,0.18
0.11241252845002425,0.06661513207401941,9.837848520435754,-0.017553956970410983,-0.008369135541380426,-0.00689139137621105,0.19
0.2530282493819241,-0.12073698606693087,9.882600374352247,0.0024832184950250307,0.01259480807676731,-0.007857020667130154,0.2
0.05629952772493842,-0.18322530701840936,9.876053486874389,-0.005122163746777772,-0.019053679728135504,0.008828572608757778,0.21
-0.05022437067753064,0.11980110111822578,9.87483249103067,0.0035906161573936875,-0.005828913997350355,-0.00034229725518652776,0.22
-0.00791999894064841,0.09544088560980445,9.923316172060131,0.011389126117115955,0.0012941092278401746,0.0006289115691717307,0.23
0.07537070652908084,-0.09258495435964065,9.9185375747403,-0.013164720397948023,0.00415157086331192,-0.0016618805831627142,0.24
0.022942684778885003,-0.053923455368256656,10.129532514835752,-0.016785357289752036,-0.0022052772343238583,0.00440650775958622,0.25
-0.07754399092389927,-0.07357433643199299,9.711177741516861,0.026845627769106623,0.0034673493162906766,0.0037994239871058173,0.26
0.021641968175196282,0.058570509887087036,9.664925995406813,-0.00041806364163785075,0.009083201753045764,0.0109101575175049,0.27
-0.09846024975713998,0.07551943643206241,9.901842209469066,-0.011002196333331408,-0.016134610467548192,0.01109425569730916,0.28
-0.026589812488180466,0.11601658989593366,9.890971226143318,0.027813180318615408,0.014410515369649131,-0.005000439532980607,0.29
-0.014008449915635152,-0.11375942589574316,9.959584336869378,-0.010333057788669364,0.01849337635365766,-0.0063887229938289205,0.3
-0.11225449850136492,0.077476757293597,9.84708940820215,0.004661659307145869,0.03521463560969542,0.00574064154175627,0.31
-0.03637829507872405,0.011902668047668555,9.935225483885855,0.007785175475429087,0.0030102971025182746,0.024239901529060397,0.32
-0.03319595402731445,-0.09415759600094044,9.900072572019724,-0.0034654258801693565,0.0024896980549379785,0.0009547771398578658,0.33
-0.1299990695797698,0.01758985820819192,9.601799133775634,0.011969065953956741,0.001376460399463191,-0.002999197722638327,0.34
-0.022236634468641946,0.05326498192443868,9.993891537935953,0.0003341528725442549,-0.0130699738822747,-0.02169728259466581,0.35000000000000003
-0.049670316907927475,-0.041082066660532185,9.69491616404895,0.002795316304519423,0.01376649164384439,-0.014677340173873408,0.36
-0.07381813947154324,0.10265199977561446,9.825972575102778,-0.006167391086957641,0.006386344876393442,-0.005947623538863779,0.37
-0.008840553076068227,-0.15315739879723855,9.61443621011001,-0.004242432235655544,0.004519642324359766,0.0014684747735068334,0.38
0.09560971676537282,0.1299237175584906,9.886867960423675,-0.0016015390825525064,-0.009966616397738954,0.004026172296805351,0.39
0.04996976641447077,0.07658871386169,9.799395911412562,-0.003584785752981972,0.01477134361270379,0.017016592744891063,0.4
0.0798845478660994,0.15323211880949633,9.750502298950686,-0.02081927069746075,-0.004166366104729837,-0.003655197461132322,0.41000000000000003
0.05459487241569371,-0.06093827481500644,10.062091965292138,-0.007231188382243347,0.011663243018144361,-0.023486266939297288,0.42
0.013904130502738721,0.16100979904060433,9.67993876963332,0.024734597819320824,0.01561390234976004,-0.0024512979109953988,0.43
-0.07386230424518786,0.10786975540376971,9.959822050826014,4.195633180745303e-05,0.007391374522336076,0.010259128238781216,0.44
0.16733452054936274,-0.11781617558433717,9.730093782338653,0.013289932443852622,0.0029661937053911762,0.0010849669148873442,0.45
-0.0299185796992511,-0.11415599279420828,9.70693864748977,0.0043819051665260214,-0.0005265164822126916,0.0030382584833636267,0.46
0.11046119619688317,-0.017976282975903063,9.818375616928103,0.006194637914451111,-0.0004857294689863212,0.01041215747078959,0.47000000000000003
0.14693539615387277,0.10873882905853356,9.80009679442232,-0.0025307702267069643,-0.0021201162248615435,-0.005854993650527258,0.48
0.023307504460170998,0.15468218874767642,9.814318400148059,0.0008179664027859953,0.008512654272046836,0.002193941946687014,0.49
-0.13667762566962008,-0.17081231899140895,9.668086245396447,0.018225018789541098,-0.015206282731847367,0.01492425319225978,0.5
0.11737853160958459,-0.10673046147158681,9.819294322232276,-0.006493089486317307,-0.001632063688461013,0.010170219687046584,0.51
-0.06941107361755237,0.08847096496891124,9.716517309802699,0.0004971360531316971,-0.02192338672855326,-0.00603517107636946,0.52
0.005859760214156011,0.04300683872990616,9.929058714779718,-0.0016125404671853052,0.013889203071035035,0.018210419280197312,0.53
0.1345031773268943,-0.17324018863978885,9.796094878395335,0.0024262832281167534,-5.089629008883399e-05,0.006377400022877793,0.54
-0.12738869615317372,0.10851566372419859,9.770123348293954,0.007671128402072397,-0.007420727596900426,-0.008138780652303166,0.55
-0.026987950929647092,0.011405253902658619,9.831127127816677,-0.006071293304650925,0.007923511819693044,0.006863266239973693,0.56
-0.003170270037899518,0.04924572375243677,9.985089723417536,-0.0033934390775331716,0.009063013253917136,-0.0021453925793427846,0.5700000000000001
0.08420557430818927,-0.016406463941382007,9.607358304814692,0.00019679274856082102,-0.010556400662667846,0.007916956072708493,0.58
-0.17662580546235507,0.011966779083530006,9.786369260393688,-0.00854841458129657,0.01372049431960287,-0.005826880136177294,0.59
-0.029812757866761422,-0.024494751006017012,9.601871158884304,0.0016693647489580356,0.0008526719917078603,0.009050898647443874,0.6
0.19278411222884867,0.017871479639057785,9.82884372057455,0.0045461814464059,0.0020006243153649662,0.008229666129968002,0.61
-0.11904220543358518,-0.09822905500350299,9.721795001164269,0.018320920299315143,0.0020992751935727926,0.00720896086781123,0.62
-0.21792305746835094,0.051665410463600986,9.927384023248766,0.0032974210840260383,-0.00048019636589819895,0.005374425985847059,0.63
-0.0032577328086482275,-0.028189297447654665,9.728007988203512,-0.008629581743799578,-0.002338738717390134,0.0011998790553109152,0.64
0.05720664779256838,0.12892780936265194,9.76149443356505,0.00412344724848399,-0.0045449702499968485,-0.0019792775512891725,0.65
-0.13577017998842641,0.07961972167902374,9.72795883477153,0.005189909787662381,-0.015768340873264557,-0.009799074474610779,0.66
0.05822799472539571,0.23743714942027483,10.056861623537143,-0.01027749128879035,-0.021052285909766284,0.002466552308443525,0.67
0.12877221384599566,0.159846487702146,9.891414712988345,-0.007097751139762257,-0.0063377475484129725,-0.011553043740362964,0.68
-0.055678749971247415,0.03244380818106366,9.940679205909904,0.01349285753583586,-0.002212084187224565,-0.0003431709174914955,0.6900000000000001
-0.11141881553079079,0.10281246058186025,9.944131297324239,0.007934217355766143,0.0019383788739656019,-0.005423044829904375,0.7000000000000001
-0.09457728957320752,-0.10290551152323867,9.529226470622248,-0.01959601984028983,0.018396386049409772,0.009176132448507313,0.71
0.15301109483157235,-0.119258741182861,9.870050608729123,-0.02407918847700982,0.008565422914778359,0.010792305067885501,0.72
-0.02267805646977378,-0.15321946374564654,9.948502962348144,0.011300230808589988,-0.0026487027199867236,0.00874414953075013,0.73
-0.005909402987279865,0.21004658182281563,9.69676327980314,0.0014912020995256636,0.000557597565699519,0.008055149850424121,0.74
-0.12162134268035561,-0.1479634691208439,9.814871616853544,0.0037125234209902562,0.000618153127700462,0.00563723376442679,0.75
0.021507199865915053,0.07115630668716692,9.766142868001486,0.004529755247121945,-0.0043544723039425845,0.002332840354243123,0.76
-0.17066020733991494,0.13349749088302162,9.756316873372164,-0.007272287560875115,0.007088980650094901,-0.006536170204331052,0.77
0.08128560022867388,-0.06338125377018092,9.83884395921579,0.004345682869392577,-0.004022480774781531,0.02244882934511315,0.78
0.035245597905798676,0.17472080276816127,9.858940157017512,-0.0010394592984029622,-0.01678613734172604,0.01026769372737303,0.79
0.0026432471187757866,0.018438289000612864,9.976346539984439,-0.01207980289899362,0.01563583436780074,-0.014879705455949585,0.8
-0.021105842601054955,-0.09670183434081864,9.845669704873352,0.009740901166140995,-0.016230573499197983,-0.004824469819213683,0.81
0.11473020746370854,-0.055739954513340274,9.97127313982927,-0.0199042748278969,-0.010575007565199263,-0.015348827637738078,0.8200000000000001
0.19503769032899976,-0.1640620245687828,9.903963529403203,-0.002204946482872788,-0.004998179240606061,0.005411626893548349,0.8300000000000001
0.06995434782410935,-0.10264131216357437,9.78550809222535,-0.02549003905727421,-0.0009989302787398752,-0.007690695482682124,0.84
-0.0540602903784604,-0.050095517155968966,9.792461393394456,-0.0011631922689324286,-0.004921076133205856,-0.0028932103786977487,0.85
-0.01688518986891979,0.031882049613150276,9.901908664926733,-0.01922648298717493,0.009113518394942528,-0.008096242032031095,0.86
-0.09374553374802388,-0.046790950185187155,9.833362960504582,0.004587735819072698,0.004097204969885485,0.007631474015103179,0.87
-0.09326612014863926,-0.09888159009788189,9.540370713666668,0.0011628046332554213,-0.0045073468796306155,-0.011688488198934685,0.88
-0.0036904060581987325,-0.15801971083667693,9.732182261810271,-0.0190813931216277,-0.022924038927557046,0.0062541558869632675,0.89
-0.00015728456235895242,-0.08382635012012234,9.78697716370372,0.003304846474915547,-0.019985275558685126,-0.008456091137834264,0.9
-0.1086178729500936,-0.011617261557056283,9.858594383995406,-0.018164819947190974,0.002220186618221883,-0.003541774674235948,0.91
0.10713008143949243,-0.058960446757592745,9.820580916412094,0.003954705483508334,-0.008010012767141157,0.003481291578506295,0.92
0.04972405122356788,0.19353744234575218,9.828582851220407,-0.004663913883153323,-0.0028036764151127005,-0.004516458794895224,0.93
0.09372757120876833,0.01958439121981953,9.873993336915643,-0.004230944703833463,0.002053915793483566,-0.011662203834717179,0.9400000000000001
0.07060554297838727,0.018163014653193456,9.752138677688338,0.020785349860211404,0.01076683481269454,-0.010832310738380464,0.9500000000000001
-0.06954723269748544,-0.047558173212699534,9.759937725646983,0.00966167739294693,0.0011600100437583636,0.004733171925477295,0.96
0.0445908432171747,-0.12566859663226845,9.847143374761036,-0.01903438542542021,0.01694473777171556,0.008133158677528637,0.97
-0.0006914852021289997,0.010422269540999068,9.79105273699256,0.004256169471972634,-0.0015288713987281642,-0.012328388946644364,0.98
0.02422888549529903,0.08264936525193615,9.853948318498365,0.007690129951934034,0.010866969832984349,0.0017010550732347368,0.99
-0.13221475511005398,0.09581319154083537,9.79122725402993,0.00024706571399073755,0.011990018052419954,0.001464686139903294,1.0
0.03663676265018744,-0.19503132276009702,9.929482572741765,-0.0008298970279272425,-0.004678649977952813,-0.0035930815808459765,1.01
0.021362264907627562,-0.01968031479690413,10.015108092128019,0.01030864997944733,0.0020445528131089875,-0.007729475843672618,1.02
0.004196932202667972,0.0490310694645026,9.829056453548294,0.019948026074182394,-0.00306426910208918,-0.01613903161170081,1.03
0.03631026140279419,0.11703090748032559,9.98057953012478,-0.011032946080870252,-0.003127800143916246,-0.00471551951063693,1.04
-0.07673317384759042,0.1095663217370372,9.939981875409053,0.00938751549797348,-0.002782444479198334,-0.0177047197319034,1.05
-0.06376980325302989,0.18421987197379802,9.741315121605892,0.00785287288785222,-0.00016399828941812984,0.014463368239265613,1.06
0.035899222716383995,0.08471195440081422,9.823858954947047,0.002134048623443523,0.008663179439761972,0.0019066823248208129,1.07
-0.050527424436576734,-0.017990898993684067,9.813035364734551,0.013445282368826438,0.014729053256738402,0.008758818698845228,1.08
-0.049040594043810455,-0.07003839143058536,9.903339029179735,-0.004959441589808252,0.003512302491646426,-0.005511782530437891,1.09
0.0019711377894227507,0.21177611036923882,9.943270247456363,0.0072655049958574225,0.009357659212109655,0.010308505524574612,1.1
0.03165772151334521,0.03653712095086198,9.710256164685505,0.009877566561709294,-0.0017523144634197854,0.0006410368837999937,1.11
0.1418124596083926,-0.22684656665474973,9.827006552815712,0.01129163428998691,-0.005630318274283063,-0.01881559765147684,1.12
0.0737933439313582,-0.06308345667835101,9.852106565250905,0.00017479055710373906,0.0032914375078815714,0.004170513099766339,1.1300000000000001
0.13392668460003365,0.07424327998676035,9.597802114105598,0.006593138873623843,0.00521586438884744,-0.017554579812560655,1.1400000000000001
-0.09095850010360601,-0.09087631424727105,9.774729267619694,-0.00713713112420352,-0.0029438861954264894,0.006144976182330947,1.1500000000000001
-0.01601453849364048,0.07461221738293347,9.892762176124563,-0.0017422763168913503,0.00035964508123306803,-0.004353883579232431,1.16
-0.05790398195507194,0.05642009045953113,9.735839808576111,-0.008209977221169031,0.008033833142811874,-0.000272617437290002,1.17
0.0831170666296756,0.052693676523085514,9.869101159184705,-0.008755950822694356,0.0033651271129812184,-0.01910222740425787,1.18
-0.10076420626906113,-0.07524828365961851,9.908452530113168,0.017575327995136013,-0.023598856718940433,0.008763600763529483,1.19
-0.0823014394108612,0.023791356148655393,9.837103482901522,-0.014197117838179472,0.009997811433717273,-0.013276933489513434,1.2
-0.058385355431130506,-0.10000067609132786,10.028278844713013,-0.011073151615952972,0.004817275914336279,-0.0065139587013707595,1.21
0.008335627100410666,-0.13972543515886843,9.889782092417267,-0.013231369921758183,-0.008019255074898935,0.009813993431321054,1.22
0.11755755845138548,-0.04880460070562478,9.796022032920263,-0.00019608561440507158,0.003110564157069228,0.0033835964770761407,1.23
-0.037781192511374226,0.005095884769388867,10.035620473271983,0.0016154286031971974,0.0006247518491019219,0.0022366238955640948,1.24
-0.08587019024366123,-0.014917790804619952,9.661253268150007,-0.017118956509761894,-0.006076758096272625,0.014306566751847357,1.25
0.14505472909270814,0.028833762348115022,9.669235277898672,-0.007892240784698355,-0.0066066040891560205,0.00992259164283789,1.26
-0.12174664828262978,0.20612488468266316,9.805980395695176,-0.0015563347070406636,-0.013100531124619863,0.007029378870327143,1.27
-0.06644052544605077,-0.035885969577047976,9.943322643870987,-0.008138024982956363,-0.005315883135611666,-0.008120888848728122,1.28
0.03763603050455255,-0.12876453687623768,9.784102742561169,-0.006610578344456795,0.016177313463423132,-0.008854212161317652,1.29
0.09840233324524919,0.15359224716951414,9.897970648353851,0.0002911125759728517,-0.0054449642756225275,0.004934516385977374,1.3
-0.09684612419230111,0.1420470696996825,9.850823445874788,0.016701942391310995,0.004222801564519884,-0.009600540011588549,1.31
-0.15886175216171117,0.0035176764036454707,9.857289487179722,-0.002442071558839457,0.002941922750989918,0.007266042629234047,1.32
-0.036686502005425385,0.05725785517921979,9.707801289858416,0.008002852408399649,0.008912583573661488,-0.014299378747521681,1.33
0.01374700068807993,0.007109327987068086,9.940919090053068,0.0006875063491980059,-0.0198409784906882,-0.0046887820556889654,1.34
-0.1830285505755775,0.02680910215004527,9.75357644064885,-0.0025476311821224897,-0.006168348316644654,-0.011058953345101515,1.35
0.1611892032267146,-0.061579578773863435,9.722298099177788,-0.017124414050729973,0.027160022985995437,-0.00853440544630351,1.36
-0.15706014483676478,-0.07246567676338427,9.83816979538911,-0.008313528982600835,0.004648843367718723,-0.0032070723370031585,1.37
-0.173749613914478,0.24136970994415324,9.975384885880537,0.011778880836414587,-0.004345932197853618,0.017601596903660827,1.3800000000000001
-0.16103189098196719,0.08331324342652956,9.749073970351667,-0.0013627598811979669,-0.015523100859580013,0.022016292814844154,1.3900000000000001
-0.15792387740650993,0.03871978959928773,9.555781930728788,-0.010313589369485218,0.007439252913644541,-0.017270928152459147,1.4000000000000001
-0.15802926421903443,-0.03189537114465404,9.840105132403583,-0.02317297630698335,0.007144009636611657,-0.005631918486027029,1.41
0.16814508183594987,-0.16951638181228912,9.880849759825901,0.0005266189935731056,-0.005481542895968301,-0.004541007739434707,1.42
0.16122189786442964,-0.09656312407702125,9.673019437915343,0.006065543688339194,0.009806313843981075,-0.011989490880727127,1.43
-0.025482916861611443,-0.019116386607613906,9.887645917005273,-0.0018989535370861424,0.005139547084673218,-0.009666021020532907,1.44
-0.03274872178822027,-0.07758614641953941,9.760984799808824,-0.010861431445317118,0.019766311659487404,0.014474266596684786,1.45
-0.20349216252406338,-0.041803663049437584,9.59161620945113,0.0072090833473889785,-0.03276236335935878,-0.002951347889474814,1.46
0.03615382446300177,0.030101410925876204,9.903279922300385,0.004177061079047404,0.012591721908299885,0.00784838034460162,1.47
0.20027636332485488,0.07240274289168258,9.822486951223578,-0.012174888399890378,0.00809977879526529,-0.022075627029166243,1.48
-0.01711035276373386,0.05452025437312189,9.795156253234396,-0.0008274971669773698,-0.009993544091887964,0.02328377159075055,1.49
-0.04819901169744646,0.007451646612904005,9.820366700931675,0.015608812743902863,0.008644889257668603,0.004066514379582263,1.5
-0.24757612944915178,0.025496928173293493,9.925561331402395,-0.014239970247719702,-0.0054065213252761325,-0.007467413834353575,1.51
0.04868923815404072,-0.07476888434532052,9.934392305790496,-0.009752615018375484,-0.002530650623142951,-0.005129941071589508,1.52
-0.10984066099818529,-0.03179988954114703,9.621422773926637,-0.0017537953891987557,0.0018589924322925122,-0.002182138702878689,1.53
-0.1328938512057934,-0.18153872020289757,9.73347438943943,-0.002489248843631479,-0.010594146322061572,-0.006418246832488852,1.54
-0.16859849712940567,-0.044062706694016504,9.604565652476714,-0.0016644908153551135,-0.0005730902299158244,0.006741377275162266,1.55
-0.18190156723420614,0.0061368263134060075,9.832783502878687,0.009811213557737402,0.00708237304238223,-0.013632606784121737,1.56
0.07861391062584538,-0.17724293744739836,9.81820700210312,0.0123214316229292,0.0036937541689720174,0.0031274583377862045,1.57
0.04492587210263632,0.0972016351570521,9.750266655104413,0.0025724066275244367,0.0023429159969505773,-0.007586154925598295,1.58
0.06593618881026939,-0.1660517025224315,9.795193033272966,0.004744714259410244,0.0018732336361013755,-0.01496923455336417,1.59
-0.024116368538193905,-0.27695676780393774,9.748252707169415,0.02778344372897317,-0.009611726500923668,0.006506238545745942,1.6
-0.11517978372487131,0.019221898505321123,9.843048170818813,-0.0057685883380132405,-0.001490844684432207,0.003051415945281131,1.61
0.030952646316587253,-0.0846732571957994,9.754890509252323,-0.009223269866513796,0.005619796558607197,0.00988367295433434,1.62
-0.024867317323306888,-0.02597087042001285,9.675390959578793,-0.0092513847433368,-0.00012063515763098087,-0.0009229668324733671,1.6300000000000001
-0.06090958625560247,0.09963886929733921,9.809258967146452,0.015624974976903135,-0.015462081943654366,-0.0018768646830665682,1.6400000000000001
-0.03805047104211326,0.08948659319921685,9.835803134896885,0.020685257982338036,-0.004777407039761194,0.0021113175273927342,1.6500000000000001
-0.11189479882654199,-0.08120710411300659,9.811394603452735,-0.00038403476124898036,-0.004583309513115261,0.01094231827721026,1.6600000000000001
-0.015739473168423366,0.17627544268711792,10.009424751204062,0.00795228079218762,-0.010722601902511515,0.00036578908313397273,1.67
0.17274838253713004,0.0421229027995032,9.92737518799492,-0.008696227118883834,0.004074661262296686,-0.0071201345901238736,1.68
-0.11429419182567438,-0.014445318018274523,9.89365973018038,-0.010361550937220528,-0.0063178386206858275,0.001522995031759127,1.69
0.008548577253158546,0.13625397144053816,9.650410832507534,0.001597695439960774,0.0028013863387547646,0.0023099740895774004,1.7
-0.3044098626184493,-0.07369454742819247,9.720263172133828,-0.010607398001241398,0.00433615509406975,0.01816441278162499,1.71
-0.013453560243395543,0.059298113824330506,9.756504092063006,-0.017173586033123446,0.012143825361957074,0.005445156301951683,1.72
0.07254831120933845,0.1314373763179417,9.885859761952428,-0.014496583657512066,0.014667777841023822,-0.017344271548333925,1.73
-0.06183145769502847,0.08516432941398858,9.886139943103535,-0.0006495965617726243,0.0028697502502589563,0.00933696413578722,1.74
0.1693826449473933,0.03278361614449914,9.730139044058982,0.0045672208480304335,-0.010252945393330014,0.010366325096947671,1.75
0.07779384409330853,-0.129203669362957,9.844278770306378,0.014385158580765058,0.0014666091265104191,0.005249210405724489,1.76
0.0819165727042278,0.051744997274315356,9.557625549698345,0.002005839072050571,-0.008846481740746431,0.003036985018994696,1.77
0.14683023433496692,0.06098212126856343,9.87176896857496,-0.0032357118958480095,-0.013926538923062242,0.004246709815277218,1.78
-0.06374836632499957,0.05172443571429097,9.66180502608913,0.00034758969027543353,-0.007790020557878905,-0.01169902263353751,1.79
-0.049395829404570074,-0.23849682970934893,9.710578449883602,-0.0052342672143281515,0.008200686418694045,-0.0017580208756410142,1.8
0.1807667668782752,0.0604645433714274,9.787153851569954,-0.006699533433862932,0.0029355761784323428,0.015313143066827562,1.81
0.011216396135813943,-0.17135708220782198,9.701485205204447,0.006268184132115985,-0.013594850859937859,-0.007735731797498761,1.82
0.05701361360101548,-0.009841211463513803,9.648793452623762,0.010536797679884753,-0.0021215266446227045,-0.005461174378416328,1.83
-0.23820962630005493,0.008982142482314876,9.780013873629349,0.001881963241104464,0.0025586949403964606,-9.107786517081662e-05,1.84
-0.09268565798437989,0.12128477986225483,9.764692331637299,-0.02005901945921576,-0.004706223749427708,0.003780384590087611,1.85
-0.18038217661587694,0.020111222238140058,9.885508659680019,-0.013785668931657717,-0.0004444268526025263,-0.007262725102605746,1.86
-0.07409531152216452,0.17104386413099737,9.699874968002488,0.00577682948578373,0.006511502366741184,-0.007789452833468351,1.87
-0.01735072500751151,-0.09380347787512755,9.8779038493862,0.010330984739910598,0.009787130872600431,0.01090669846770341,1.8800000000000001
0.04949607844537035,-0.20377056235882632,9.744792156340964,0.008017835506188424,-0.0008947220420577158,-0.00096979016235063,1.8900000000000001
0.08458623799501219,0.012201493211399697,9.833399681098191,0.0003163357941666524,-0.01729304304708637,0.00017362687716631863,1.9000000000000001
0.19439581537817374,-0.0466971558452072,9.823992968736095,0.011162162431996855,0.01328999639006747,0.0028960722809316555,1.9100000000000001
-0.06158827716321467,0.13510081051305295,9.718172863462895,0.007120854712150646,0.012711537950517597,0.01430075725150184,1.92
0.06125585681976427,0.018375024516376414,9.71878352663697,0.0026754404100953278,0.012488800253876622,0.008831084860122544,1.93
-0.13655119704739502,-0.12403163668934808,9.73297589400881,-0.011228262331004353,0.0059638236790343895,-0.00020182312399779408,1.94
0.0377386880405006,0.06644352689212002,9.793005097946596,-0.007762793907692851,0.017241996392450484,-0.006329952521640897,1.95
0.17814710510025156,0.103847692867165,9.79359477531543,0.01821517933025866,-0.0019254723953581936,0.0038137917205165813,1.96
0.13113045186101605,-0.04034667341909526,9.856052222740834,0.010168212394008327,-0.0013169296233048824,0.003411311396413309,1.97
0.11093647234799264,0.05069047134357518,9.878466366691164,0.014050009873284067,0.004153685005130454,0.0011729636035394538,1.98
0.01174858355307682,0.09055064199800239,9.921571207280321,5.435393366640372e-05,0.00956225050029492,-0.014042874343758671,1.99
-0.008864923173293359,0.062068741193025245,9.841896570234868,-0.013777509689570368,-0.012156279301844429,0.007359881306815494,2.0
0.11922108009586936,0.0789547425812748,9.920974180583993,-0.0022250488644638103,-0.00029801400744866434,-1.8127069026002786e-05,2.0100000000000002
0.05105643704020873,-0.1285819705943406,9.568795480052207,-0.016442154740184164,-0.013319013712595583,-0.0004439166384690293,2.02
0.04454627386088175,-0.12384893257583827,9.791185985451976,-0.0041120777880785195,-0.005332307667536517,-0.005875634274922718,2.0300000000000002
-0.19485090565392768,0.09499887374467804,9.858978353822724,-0.0018899833725471338,-0.013525063430033115,0.006495108443912762,2.04
-0.044257220631798176,0.12159332429001601,9.655583505139433,0.007463965314703522,0.011430203566095547,0.01711737071950535,2.05
0.15423950894463156,-0.10481197491116445,9.720675035257461,-0.0055633389819258455,0.00753951284961772,0.02395143755925136,2.06
0.05208368449175441,-0.003736749340736656,10.021540722374835,-0.002574664351970241,0.015918793659867515,0.00558936337810548,2.07
0.06846465524725905,-0.015360144426384024,9.665878798442954,0.013540693504231876,-0.004462942232539791,0.0033399084845557765,2.08
-0.05874704507054815,-0.04704104904032789,9.570640755880747,-0.004726321933926274,-0.016826672049685173,0.012143202972594866,2.09
0.10690914344464673,0.058541849892707304,9.787489706973304,-0.0008088183572397321,0.0017321730342819647,-0.011940967080227063,2.1
-0.10893570637211705,-0.15578465857523618,9.747066249372319,-0.007070347273615661,0.011052242205378805,0.02460280501038141,2.11
0.007743840916520499,-0.10960094540671717,9.827447132422513,0.0007420083930705997,0.0038064899810014564,0.00044061700920320235,2.12
-0.08407839332572649,0.14514985275183437,9.796500533217671,0.00416365483253997,0.0010262522482662676,-0.00912670541171472,2.13
-0.07344666251266936,0.10980510996536388,9.788733705605797,0.012458164891015934,0.008730342566035547,0.006966977066516642,2.14
0.029996303589066953,-0.14221321264244002,9.975727067186241,-0.006623339759306806,-0.005265914897614408,-0.00818704004134709,2.15
-0.0662684128850858,-0.02286176860139618,9.870602004323947,-0.006649082990742202,0.008310808022400498,-0.0022670653126671317,2.16
-0.006726030986974054,-0.1099023635964349,9.773092595294603,-0.0027430879759555897,0.0034815377120408462,-0.0045610838745929255,2.17
0.042381156900242134,0.021386571688327513,9.822537724306995,0.008641742004622185,-0.0016366388107634082,-0.005295468662064425,2.18
0.1056158306624902,0.17078667534643263,9.767822721281547,-0.023786295143404287,-0.003987050900419843,-0.006275075279122273,2.19
0.10326558775653127,-0.19924489623623504,9.81233755060908,-0.017043261316874347,-0.009491554012257155,-0.0021658162758645357,2.2
0.11925348564982673,-0.0954431066238647,9.69715736965683,0.021869042379462793,0.0004625335386869414,-0.0028751820203307184,2.21
0.10332202088169762,-0.058608100238215256,9.837473059488378,0.011590938662981429,-0.00679775478856452,-0.001499476779896099,2.22
0.13225768942371613,0.17316897165286327,9.69283712379762,0.024673256829051266,-0.003202442574335095,0.005328354505539696,2.23
-0.02926531315177022,-0.07441284852730157,9.618520803425742,-0.032272044378085736,-0.007912084053279235,-0.01720123396223,2.24
-0.07043431982834221,0.17575499079012502,9.852355278355255,0.014740664647069482,0.003366311694401677,-0.017502737687835387,2.25
0.10775598026319476,-0.011464315562326322,9.707466725345736,-0.02027051475717856,-0.007450121670270363,-0.0036268269985955813,2.2600000000000002
0.08726240360486902,-0.0734437227828455,9.60852262945276,-0.010458173204073159,-0.002511207491663327,-0.00824863899203711,2.27
0.01677337844941787,0.07209355260509864,9.894615974228532,-0.00409940766400225,-0.010494972245928599,-0.009535070740426367,2.2800000000000002
-0.22713550883497058,0.0572087267233378,9.655924289194251,0.03040297027460953,-0.008708492524480645,0.005684457125695066,2.29
0.051441882931130334,-0.03276744574271175,9.85342000575108,0.008105731096731437,-0.006342869601538889,0.011255547112650522,2.3000000000000003
0.2080403249893783,0.022650617183687518,9.70116157363494,-0.0019920063875987788,0.008635881403048575,-0.004000736693711742,2.31
-0.12751169925960434,0.10915406168205964,9.886864845029981,0.005428431555388293,0.007150186079586625,0.011964806760700684,2.32
0.06227795464043162,0.15762699894410057,9.865403912298241,4.962138399423311e-05,0.006857456493021601,-0.009549553426369923,2.33
0.008993908687668079,-0.00809777393730868,9.676431787966685,0.0013412447547111045,0.011043340499911026,-0.0047589505437286095,2.34
0.01120166565385642,-0.18266150146505547,9.78142037844935,-0.013658589412821005,0.0070265597974108005,0.003772035568616887,2.35
0.0022016563545115774,0.16138522288474677,9.851044752062055,0.0036664063156906543,0.004767306697753945,0.011501959633074437,2.36
-0.07775642176750568,0.013636659851967579,9.841080485884971,0.005476446414569524,0.00027297459757750397,0.002340337949294572,2.37
0.04977263907027284,0.20265879757500135,9.808485147784141,-0.006355616004930814,-0.009359182154835806,0.0010362630626478693,2.38
0.12530789026831504,-0.04610891500427432,9.731649243078236,0.014440807388805972,-0.003845000009772589,0.004369524215537128,2.39
0.11218768022794506,0.20680979624543827,10.068765454061785,-0.0055824153422407196,-0.0005771193486150034,0.0105761186218126,2.4
-0.0656680034870072,-0.010813739983354342,9.77522793860801,0.02175330417539719,0.01300168436377798,-0.009416525093908062,2.41
0.0834615575082916,-0.04237244793735173,10.003093705920946,0.01982140067841381,0.008969797460225214,-0.008136176612782226,2.42
-0.043097065162135746,-0.1313109489047902,9.967735501617202,0.00018174858438767318,-0.009494710137933715,-0.006694980093121467,2.43
0.04676059228160591,0.11074311175082899,9.767549474502012,-0.0002622449349468605,0.0026458572857468647,0.0034866444086630805,2.44
-0.036227468133461165,-0.04213432197118844,9.859018218500742,-0.004952907960908428,0.001999287925427755,-0.011614611210098115,2.45
0.11870781139754485,0.04148823699739734,9.857664628386235,0.0082564325493602,0.007634853381008487,-0.009154078971228677,2.46
0.03469348650288968,0.002656546377167072,9.88719278866599,0.0020738904550392824,0.012434913413875216,-0.003754410430089031,2.47
0.12081847459992275,-0.162311217901545,9.84652079500528,0.007132793488096988,0.012031330945830736,-0.00572608470088882,2.48
0.14047445710349055,-0.0825802152583701,10.000413690248008,-0.01201514445549192,-0.003296261930756226,0.002787059200533084,2.49
-0.010339609819697924,0.043485552210216355,9.765304267422914,0.018235101923201304,-0.0016474645952031636,-0.006378489562806794,2.5
-0.05886237712244019,-0.03192290109729031,9.838291267392673,0.008916591603055128,0.0010057809949245097,0.006629468914913161,2.5100000000000002
-0.21768730746610332,-0.07842373979285387,9.897882867568999,-0.004613703464300739,0.005803717794314149,0.01812918119336563,2.52
-0.01340766125902129,-0.06992283221994676,9.735937629145743,0.0007042899220652891,0.0007957385714950963,-0.005577771913444254,2.5300000000000002
0.056593292176276636,-0.21495350754255838,9.622303738447101,-0.0026601729453479793,-0.004378525125811446,0.008992041513236182,2.54
0.033271377733503034,0.024735860749192713,9.823753058161179,-0.008631332759417047,0.012215844976264587,-0.014696856613046674,2.5500000000000003
0.09722919423567841,0.0025978900621942873,9.907074151230821,0.004098340526908364,0.0020559338712422513,0.004020980941865859,2.56
0.03145590122880557,0.05173999319157934,9.840473008308376,0.0005748662554284404,0.006638094257857077,-0.011157946427747818,2.57
-0.22344810569791856,0.10356863366000149,9.758439584133042,-0.00017290816304631686,-0.0100485214932743,-0.0028559516833474652,2.58
0.004811042853345297,0.08602020587754451,9.964502639074288,-0.012831506513009513,-0.0028698894429949147,-0.016522192174552246,2.59
0.1124929292817072,0.020845336711730816,9.833677419257207,0.0012647125218713823,-0.02414993830898502,0.008206964803733565,2.6
-0.16108312328213248,0.09904996190469835,9.910074609027442,0.008703348464491638,-0.007739225221666871,-0.005477393363989989,2.61
0.13503394584070708,0.12473972453481369,9.791027203232717,-0.00017749128787341526,0.006944966612556881,-0.0063427982925368855,2.62
-0.10216783684280668,-0.05251286925494735,9.70666007104261,-0.00048777569916606166,-0.015924996870857307,-0.0022642828488069543,2.63
0.042400887791299385,-0.15082285026476744,9.678858438352647,-0.009299632102132385,-0.009397730684107495,-0.01671128705397382,2.64
0.07142453539891512,0.07463198963295635,9.739947138302378,-0.0027502908741101257,-0.011998565796833241,-0.008965573070069994,2.65
0.020351384001256707,-0.007541092340671789,9.754300259845518,0.0005476071070872065,0.005129002978967915,0.001244300563950012,2.66
0.07593496140633715,0.0922771727210469,9.829986730096172,-0.01220221070742357,-0.003496322045544383,0.0270770961360242,2.67
0.13600485461123268,-0.07533449847753516,9.84261352388847,-0.01400181481772175,0.013717470965776394,0.01769878475539605,2.68
0.13934901637346772,-0.10108617590640033,9.801791944269539,0.006396499680722068,-0.0013447565317329059,0.001186612947995355,2.69
-0.0012676793833514808,0.07234983201960356,9.910888364431345,0.013036266942004366,0.008093969349798006,-0.010412540815888221,2.7
0.03649457528110862,0.14571455997886754,9.925149478774996,0.0027472422311123792,-0.00703456340163113,0.0019626288507302117,2.71
-0.006539484347296599,0.036981415323459395,9.78062018781288,-0.004298050564238988,0.0068038935117097545,-0.0003724009120458209,2.72
0.12634423411299311,0.07614311069685302,9.81998249032115,0.020125433806139962,0.011828831884361408,0.010747996947131641,2.73
0.08396265155259608,0.04998215692625929,9.758143698002899,-0.022627966416309903,-0.0009026979144049028,0.0051121544316801645,2.74
-0.011199279560045947,0.08699458160450058,9.623351683767067,0.015658076108042335,0.021779465510157126,-0.0033716350906328506,2.75
0.017482826393562134,0.01910668832306143,9.821770004957695,-0.0006603364745905718,0.003359824339415462,-0.004676409567606354,2.7600000000000002
-0.08289884641778436,-0.17389289820447826,9.738461145424614,-0.002958392424260309,-0.01595800033856143,-0.010725237807761244,2.77
0.01751598425626386,-0.08612015238773785,9.734237669480889,-0.0054951703073946164,-0.014456114542723959,-0.0016295426065660358,2.7800000000000002
0.019806116949557136,-0.056964176587023865,9.887759082942065,0.012747692884530586,0.017731490029126083,0.005057971387677387,2.79
0.06845534462699172,-0.08906435505090578,9.734628185142759,0.004463412748084279,-0.0197083873332965,-0.0009849053989204977,2.8000000000000003
-0.01640642139121071,0.08177142955631916,9.774434695236817,0.0009609416848329744,0.007687656200746544,0.004236424137780687,2.81
0.072757865094513,-0.018070954586244217,9.973551770732215,-0.005233374019106426,-0.0027426830764940542,-0.006548459636651257,2.82
0.0823421400957095,-0.06462671735608082,9.568785466026233,-0.004539840752325899,-0.008397063310438246,-0.0034197768083778996,2.83
-0.07044962954073873,0.061861037101109344,9.688059416512946,-0.0032248209013853893,0.0034655846885007224,-0.006454659025106546,2.84
-0.029804763309374444,0.004216782234399446,9.619700044223942,-0.01570981746427225,-0.005566986697500667,-0.0018194081744699736,2.85
-0.11175330178147719,0.03165943203161955,9.679659918764637,-0.007081994084610524,0.007711541905080831,0.0030891530916183356,2.86
-0.056285857755727565,0.0381539028062238,9.754168125136095,0.0004512739326036914,-0.024861280576013504,0.009417153039539947,2.87
0.11447288844248278,-0.14886964739174102,9.868061221815644,0.01080818816090648,0.004104586467682097,-0.005659192191308281,2.88
-0.13215924625817965,0.06043053073417272,9.910644251582566,0.0029970850370728734,0.012772350499794418,-0.003565673548906228,2.89
-0.02134835009694315,0.05245028705576502,9.696996681020998,-0.0009749363567594048,0.0034670898025473914,-0.013773990491652649,2.9
0.08505420055711864,0.050572137979566126,9.74188810044357,-0.0032334981194980985,0.00013480684604518918,0.010927962717310207,2.91
0.2587036829401583,-0.14736171500005757,9.910158471067328,0.019243192492068132,0.001537650841839168,-0.005279459993211419,2.92
0.07404050523886893,-0.04570148085904744,9.781699278642362,-0.0006036082398281024,0.00368171700419953,-0.003398499793269998,2.93
0.09827336488965949,0.08133526045254774,9.836645790352183,-0.001799358435549307,-0.0027435946668781146,0.022253956376804853,2.94
0.017786476743771446,0.06944380019044745,9.690777009398284,0.00841602944057791,-0.012070007218232011,0.01598407825353495,2.95
-0.22293309713314102,-0.00522692227027593,9.516255140941158,0.006546348471975014,0.011221637483451856,-0.008678630938489244,2.96
0.07527427492088523,-0.20724416184398742,9.730262192188997,0.002288705649048187,0.009059025435999919,0.01980992891810712,2.97
-0.10877427307258314,0.017185501853375248,9.848302008191748,0.005254916398382721,-0.013812515395257186,-0.00204025740224332,2.98
-0.13199941188732398,0.0005060912029012098,9.714319103251833,-0.003938978839492242,-0.005828604721037061,0.00851944840025865,2.99
0.015577882738558431,-0.004091133400629671,9.691964504103575,0.009389225059858751,0.0010273967126370228,0.005666421257673152,3.0
0.09433345598275421,-0.1634056966463862,9.769639573215002,-0.0008305186410353817,-0.02328858841053949,0.006923771937692951,3.0100000000000002
0.03706340060943269,-0.14842387978432892,9.769369651895339,-0.0010698056980194528,0.004830638467108119,-0.004856404862689226,3.02
0.005337435326052535,-0.08792733899954457,9.88287890203906,1.208994188694016e-05,-0.005803518219551693,-0.01756615682671135,3.0300000000000002
-0.06281743319681858,0.15654758641165412,9.824909678138576,0.007835157660578294,0.00011652288578911212,0.00531980103272058,3.04
-0.030303037935204936,-0.12007153513739909,10.028440338730254,0.01118447148650834,0.0036001744468317155,0.004163656421103813,3.0500000000000003
-0.03225284119668842,-0.007728013809257546,9.885308996972336,-0.0012369727754529688,0.004815566150478147,0.005860069448602171,3.06
-0.03914603302913504,-0.04947548324830051,9.772388898286561,0.01286061709729232,0.0037409973358053144,0.00011751152899269248,3.0700000000000003
0.07526524801551782,-0.04146956278449663,9.798485469704074,0.023107283259995278,-0.001965203326475847,-0.0066209909812188425,3.08
0.11692024252334761,0.07098221537400946,9.955720761770225,-0.006720968973750229,0.001279307932039215,-0.01603851042452494,3.09
0.20443509225479928,-0.03056626859303957,9.695193118029069,-0.01120898291846697,0.0067274606887177514,0.011524841025953629,3.1
0.07878303032066614,0.022977909953383127,9.67582092146304,-0.020507454726519294,-0.004342248354355154,0.013539512406660488,3.11
-0.0646754613114086,-0.15654924121793773,9.811988301154944,0.006003071361244823,0.002697397493639347,-0.0138357760482083,3.12
0.060927149926454205,0.019733966564828623,9.93880605643968,-0.0005197690835414592,-0.00025892470957536917,-0.007690063870590111,3.13
0.019881188394864333,-0.15366699922061375,9.880905635371983,0.006450511336528201,0.006348328905144859,0.012433935840847182,3.14
-0.11697912074423189,-0.03321479055839484,9.712525461497272,-0.012412957907293486,-0.0027560866702155385,-0.007083270867540099,3.15
0.10685709124600738,-0.053999130424334775,9.733301277639287,0.005577875244184837,-0.00637105841863212,0.007938750674575779,3.16
0.1123173624897988,0.12272135274943519,9.828788930042766,0.006598279360280632,-0.002561902667534523,-0.005719532527685297,3.17
0.10788506250930292,0.2238901720976484,9.862132959933392,-0.007180271668162199,-0.008190577905419286,-0.007991975881951989,3.18
0.15795920213805703,-0.005608938948750374,9.846240072109769,-0.0026036520097032383,-0.0064596902364645985,0.009652294688787299,3.19
0.0430491120946851,-0.18348200913460427,9.966175531135633,0.003028049089526888,0.002188939874646604,-0.00879496401066704,3.2
-0.051459801978178,-0.026967556057772176,9.903454468441224,0.007866162838313887,0.01540414668638915,0.007216351749998426,3.21
0.027616312513828584,-0.15399207864648012,9.792744115767809,0.012833248300766029,0.0048032071871581886,-0.0004819922776702838,3.22
0.0035866703947373666,0.07946671775664188,9.889835701583115,-0.0018765965585850956,-0.0019139170094653775,-0.007504297715176695,3.23
0.06518404453593345,0.1915318067844958,9.808861676876685,-0.0018630781536552788,-0.0022532095992985673,0.012013608878845583,3.24
-0.06531011147879752,0.2189970294926163,9.707235667046742,-0.0071230078038706,-0.011019593892322481,0.0020273120012482956,3.25
-0.14794369012860975,-0.02715027197748023,9.761469551823694,-0.005000185899023307,0.02374277105490266,0.0041304784593082745,3.2600000000000002
0.02991450369438163,-0.017378954075503463,9.984025407045404,0.007705353660448044,-0.003065973570385772,0.018273833464669334,3.27
0.10407763596019766,0.20371974677126103,9.660813234231638,-0.020439087920004772,-0.007395465366156702,0.0032431199821483796,3.2800000000000002
0.004616719978080163,-0.07603012649727868,9.73285422207261,-0.005066011414905659,0.002092108248427876,0.01550024491574405,3.29
-0.07462336072914318,0.06078691702784731,9.853898923903845,-0.010908519944832325,0.00112877483543488,0.003177211971620904,3.3000000000000003
-0.008107962813194909,-0.13760645502307164,9.727481523587823,-0.0012180958029990225,-0.018431191636761136,0.0031685624959139867,3.31
-0.10201330800811254,0.06040946866942788,9.844257307309299,0.01343241575677677,0.01102761217786984,0.0014234303901625948,3.3200000000000003
-0.017261369014250776,0.0688409940704107,9.811606581476644,-0.005950602200711217,0.0012146019850578418,-0.00957658076819386,3.33
0.05033668630033792,0.024744510777926318,9.725322585472476,0.005963721962631605,-0.011577661420667594,-0.0007287126393155564,3.34
0.07017755444551109,-0.020775203075004453,9.826147893309967,0.009881094156746624,-0.013437993104939707,-0.00558399165974739,3.35
-0.11418560693514167,-0.04471638991283889,9.685020890889659,0.005094850316465265,0.005737461580999794,0.009814644680968652,3.36
-0.03243586509473944,-0.06035884000772229,9.736213794443024,0.008999510124886905,0.004555857205990202,0.007189367230052026,3.37
-0.0027060239191183362,-0.013374415625074312,9.93898466750446,0.005226039995227146,-0.013683880238578607,0.0021580821504813357,3.38
0.08218691434285619,0.03822792756378274,9.735684065733983,-0.011491091932980053,0.0004241712039311682,0.006413548129976243,3.39
0.01629877533171972,-0.04479046404028995,9.723342370265357,0.010268793689581803,0.02324043756825418,-0.0056231781316488025,3.4
0.12820138485961582,-0.039750580821007304,9.723563437207947,0.00935087824331193,0.001183913254722403,-0.011334016043473467,3.41
-0.012293925997345592,0.09494379527926156,9.7455312116324,-0.0030479342549609746,0.00022532513856652958,0.006835805185007517,3.42
0.02496982183821661,-0.0679856438242163,9.724829963917088,-0.007648719542947315,-0.005107867740614985,0.015352884932517056,3.43
-0.1464581917546832,-0.04728447764984195,9.777060568692661,0.0031697484326245508,0.012771705629009535,0.004778540068544551,3.44
0.10677235987612331,-0.09327274202129322,9.658583436506763,0.0030981431144527717,0.008049441152515793,0.006832034930754237,3.45
-0.02374758005480337,0.12684663708305263,9.905708466814428,0.01936801775089135,-0.0042621504372190285,-0.0009519540366713259,3.46
0.023765529235113204,0.025235227473010893,10.019661001769737,0.004749485602751163,-0.0022025285890895996,-0.01250846225846093,3.47
-0.08235598565391472,-0.12603095448385862,9.896344551001638,-0.01217840819786958,0.011562466820624433,-0.0025219289016153094,3.48
-0.08083748544666432,0.015793920086954513,9.759608641720044,-0.0014810025163093505,-0.005406564849173502,0.00858384724310918,3.49
-0.13963684870041462,-0.08847253907266238,9.641601534330752,0.016233451514145517,0.022557327429766322,0.015338389244658714,3.5
-0.052326129829437885,0.027297570204076655,9.729315692356566,0.006960667854055996,0.00843224629525976,-0.013872905822231383,3.5100000000000002
-0.04814448020362617,-0.0345319402035412,9.79842054114051,-0.007476002515011985,0.006134556611710893,-0.015906932063328775,3.52
-0.03524046105228761,-0.09629970984947167,9.739134066612039,-0.012177446621806065,-0.0016541494926270153,0.0024016904361410197,3.5300000000000002
-0.05660018711754821,-0.057397446140660814,9.719943652905672,0.011087911206601365,-0.007376635619358101,0.024926843698390756,3.54
0.16122632481205856,-0.03246417272610035,9.735849746935337,0.012437475134072253,-0.010223707128155863,0.013465950889234107,3.5500000000000003
-0.1007021962636928,0.12755288643524101,9.842995576719572,-0.002110785042320454,0.004950851738226591,0.00589103902704168,3.56
0.004717914165968762,0.031558187560751065,9.796871393114378,-0.003119887890283152,-0.008141817689931708,0.00010317901860670185,3.5700000000000003
0.04751624460370148,0.17117427909662883,9.80928498648103,-0.005257624433996427,-0.02942721206065963,0.01656211118475206,3.58
0.10613902364371193,-0.04474125747742535,9.915724244608056,-0.005830278244240438,0.00913571944718231,0.0038114400452664405,3.59
0.1242902989029173,0.08438565052473956,9.751548744169662,0.014157944830902665,0.005031187787018312,-0.00319783990056034,3.6
0.03196100632488055,-0.05748747230456176,9.699619022424894,-0.008094182110236695,-0.015675511125720715,-0.008388016527072729,3.61
-0.12059912726434008,-0.056022646463600556,9.956188780871862,0.009846239883468845,0.010934380891890902,0.011983380568081979,3.62
-0.024694072850534418,-0.04523943783724048,9.74658989114238,0.0023700760899709127,0.012041400064236457,0.00010994844791597052,3.63
-0.1482302410498881,-0.23121446579961394,9.772274895192608,-0.011514377661783768,0.013385118670989422,0.0004912444826315622,3.64
0.10251300807554989,-0.09690727493025188,9.799954956540997,0.005458914256258104,0.003848007612721033,0.008470733930546766,3.65
-0.13180998258025609,-0.06055048977217751,9.689302768881877,0.0009705331440137999,-0.017092567642625112,-0.01316939876415668,3.66
-0.002540469825656087,-0.027867973189986697,9.67191588008796,0.006014806164290447,0.0060530070381809254,-0.009691554018029859,3.67
-0.06357155293415453,-0.17925137962918417,9.82190672833735,0.011555140177181856,0.008410206201242396,-0.0073647354652735895,3.68
-0.062162388941577856,0.046593180464327255,9.846820576497148,-0.012584489565196418,-0.004521234608767731,-0.007860844669721251,3.69
-0.1157381022460434,-0.10886675817607981,9.86896224434179,0.00544163995749522,0.0019164149293482541,0.01838806861637017,3.7
0.1256868343544562,-0.02494164355710897,9.689412866103565,0.0007341258627932032,0.010846919434973961,0.014089237796414068,3.71
-0.021625476172967874,-0.2492964967297133,9.845746588627096,-0.0030588074119565667,0.003845510647424921,-0.008988393892383637,3.72
-0.015233710053093189,0.1915703026584257,9.607058166454054,-0.011497577354613174,-0.008759368344892845,-0.007198035957225583,3.73
0.11060682542893281,0.1813383116798253,9.813028233646214,0.00281314865448736,0.00413612862607667,-0.01834940163148118,3.74
-0.0027382880805447984,0.13682975196949582,9.746044870887417,0.007587875336870363,-0.0059118673510992524,-0.002440575253088497,3.75
-0.2533875166582785,0.19424333051555678,9.84484629995582,0.014953317813917245,0.009416675939916477,-0.011668768948401948,3.7600000000000002
0.019578130583239615,0.04241972903905916,9.849082396776788,-0.020750426088382543,0.009895482819802246,0.014482440226110399,3.77
0.06351966792787338,-0.005658727831136185,9.76595025167447,0.009859411984003384,0.009219198587419493,0.016332867550771214,3.7800000000000002
0.1030232487739607,0.1329881845256079,9.861277583649777,0.008072445909390394,-0.010010068801991958,-0.0013621935644303512,3.79
0.022748805606354026,-0.10865591689795617,9.694676026786397,-0.004119540990762577,0.008848220845983067,-0.0026902282224759645,3.8000000000000003
-0.10879564444406825,0.0896165641802683,9.802951865341496,-0.0024983188432342656,-0.01053160131319966,-0.010520724492929652,3.81
0.07469047807051832,-0.00855963599745762,9.810691770084906,0.0014032985126041738,-0.022311005427536716,0.004161777924494223,3.8200000000000003
0.022481933514203044,-0.11539731229824012,9.935113916972627,-0.005881957542278706,-0.006730269424698078,-0.016679223986384082,3.83
0.038569653670491,-0.042885724825046906,9.791007481464561,-0.004906319054335715,-0.003114636773090571,-0.002108010715968569,3.84
0.07571129378588741,-0.12188079391271432,9.770077014663471,-0.025989397180815756,0.0039439411180487395,-0.005654885893401816,3.85
-0.03505921742357563,0.11254954261016559,9.643766420938855,0.0027968672645968824,0.00417201668098455,-0.009489354796947975,3.86
0.20316114208139752,-0.10863285530989542,9.900949471664331,0.00621266051206433,-0.005190438839504537,0.008686643411392801,3.87
0.12566702883734604,0.04241205619863109,9.697815188577184,0.003044096020156262,0.004979599860527102,-0.006194025236273445,3.88
0.00031970854292046817,0.0768895532590839,9.847665370393385,0.013791805560938307,0.003586273978312699,0.02165707468573512,3.89
0.16327737519969776,-0.12309347799039823,9.865989554535608,-0.011008068155091455,-0.023547046000623784,-0.00589939545289522,3.9
0.04938054803614648,-0.02710014141224671,9.803212325799226,0.0128890953176635,-0.009268232987632784,-0.02319309985753955,3.91
-0.014096907255464511,0.028868401182482534,9.721483211906435,0.006480842775137172,-0.0019432861934231772,0.008167411390558467,3.92
0.13545560031486,0.05283582581464113,9.786699074286291,-0.005082974067113101,0.019321757880693055,-0.00530938793398686,3.93
0.04709840913441718,0.09358168543081956,9.8920729312455,0.005465256242253893,0.004664422822865998,0.013053685977643352,3.94
0.018694256086667436,0.05115316082640641,9.963358284440751,0.0009634896521452695,0.01380958753853296,-0.01920288867679541,3.95
0.04906790306322875,-0.07041843132908208,9.69671432376471,0.007277522838813006,0.011595221894739074,0.007521811371412223,3.96
0.02995954163308645,-0.044836182033325886,9.81696650971359,-0.019949640296719917,-0.003816313950398533,-0.016233497714371707,3.97
-0.06214579566464186,-0.0673586385103301,9.820603870370185,-0.009106657496432906,0.0077204736536755705,0.007886485384900378,3.98
0.10082533366792167,-0.030303416475714745,9.81680577528416,0.013748574625266546,0.004768833708973512,-8.918622666683493e-05,3.99
0.011237740656326729,-0.07258417343279372,9.84327212604241,0.016886096271309263,-0.000983938412015314,-0.0005662309454819848,4.0
0.013970651062108303,0.02919450923733948,9.665987399117773,-0.0024901344705417767,-7.999720585780486e-05,-0.0033111844303211693,4.01
0.0554807076441061,0.08428859080357294,9.949097616151356,0.013048525794412926,-0.01924207600277232,0.0008241981757085529,4.0200000000000005
0.02067103795589429,0.19886664841625956,9.784932886151196,0.004167666566786396,0.0010852564334292067,-0.014834712322785213,4.03
0.025827897310100753,0.12324892819882383,9.852251525459188,0.006179602198212631,-0.01771424907750419,-0.00226395826110055,4.04
0.04197836737738617,-0.10625143425189697,9.812909148141228,0.014958731808913788,-0.009042650582626545,-0.008834312034624758,4.05
0.0021137860079912785,0.017851083983021418,9.983855387091616,0.00824129194399245,-0.0032755675485126325,0.0030570792249024373,4.0600000000000005
0.075044043510945,-0.07258347667959089,9.974148462469703,-0.014588134395127378,-0.014412496026148315,0.027362610877690003,4.07
0.013002205510335697,0.015879094734595388,9.829477132741095,-0.0017413527948022282,0.0014742008947565596,0.004319721372730324,4.08
-0.16831709329490974,0.048140230683635016,9.908129347268918,-0.00022411742962345356,0.006820824446845619,-0.0006300201124332589,4.09
0.04313021153836971,-0.2493523634245507,9.758561795627166,-0.03406605309992854,0.011955946390490841,0.0020269732346886856,4.1
0.04823191354696573,0.006130083446174669,9.836299876525873,0.0020327428321834074,-0.0028565056349066638,0.01608544057367632,4.11
0.09959354722302151,0.024621308132208954,9.915056396161612,-0.002287309316189075,0.009549080744830513,0.0059068269643643605,4.12
0.1341896319601224,0.2019199278097179,9.90780743060868,-0.013035837089552285,0.009808653913629551,0.00023682856994244772,4.13
-0.011526057249819893,0.06380841630431905,9.535208418747025,-0.014865928784711773,-0.009026449230452436,0.014354013018692357,4.14
0.1112109592447415,0.0015530359203976807,9.901454581721678,-0.011116226744000627,0.007000385019565355,0.0027913526088057254,4.15
0.06068726916577943,0.030460116858871584,9.727095555781338,-0.005370841811919103,0.003135652793841896,-0.006278979960887346,4.16
0.07644279614324204,-0.17966121591488415,9.592647062858175,-0.023042751451416602,-0.014273739197376813,-0.008978916306814303,4.17
-0.04505065795791471,0.042790042642350014,9.695391555775252,-0.0022391025289832385,-0.01152003940468272,-0.006452197702071048,4.18
0.06320498167935899,0.05427128079678169,9.866922992391945,0.005859706097182948,-0.0019575094679270743,-0.010314258026992372,4.19
-0.1543813396652431,0.14697839100922047,9.719094373507371,0.008539121244123154,-0.0007613257867949299,-0.008987658103249516,4.2
0.1325839541872553,0.13087149009645369,9.63632311889862,-0.006744173090523693,0.0076258820376614465,0.015045986533337524,4.21
-0.04192796885542063,0.10845354135819828,9.689866965523981,0.007535215417502628,-0.005562628483656485,-0.009670876770972453,4.22
-0.0436331420492573,0.03471693335217932,9.70398203050906,-0.006643781616624025,0.024922385800681283,-0.0005419292798648663,4.23
0.30214834586836736,-0.06765528670011345,9.763341664834964,0.002780223037574948,-0.0016876863590508649,-0.000957064883533582,4.24
0.03394975451774739,0.09927072344914789,9.777453147209242,0.007934799288584548,0.0013289519444980601,-0.006650946836017516,4.25
0.13374514154829462,-0.25238465938953064,9.773199193479575,0.0032904941382927845,-0.006991831377398676,0.01744569501916954,4.26
-0.03130872261277256,0.15021632004484667,9.902926589974863,0.012563838092920712,-0.012202466872700523,-0.0005575159125203807,4.2700000000000005
0.11361110904766757,0.13875743561461337,9.742855452140219,-0.00045053992102882067,0.006908707610620475,0.007393875612191161,4.28
-0.019680839887245075,-0.1586832013720086,9.84924709120456,0.001034876097418944,0.001323090577389391,-0.012866471170356109,4.29
0.1179823636999201,0.03101662348832128,9.897041744884682,0.01632413379028582,0.01117999568617825,-0.01060044987023121,4.3
-0.06786397670217566,0.00010479606658486442,9.712742774810215,-0.004690409803471881,0.0019473623145967764,0.015642366715799518,4.3100000000000005
0.03112771862092119,0.003873174440472472,9.694345443529079,-0.0021115192508263983,0.008574715672441412,0.009043111969390285,4.32
0.024366082086144342,0.08560269193989511,9.823491819380784,0.017286283922169788,0.008516476766680605,0.005225296264453022,4.33
-0.01939395036081355,-0.039490500825720795,9.815099434660706,-0.016627468956316952,-0.015884879731015697,0.0036519993275149288,4.34
-0.08895947638347612,0.11367161216242888,9.865624828909775,-0.00023945274510616508,-0.008978805211898241,-0.0007181745081333651,4.3500000000000005
0.03799221141338597,-0.1518696936258038,9.625820862006414,0.014211692669780274,-0.004525089133876115,-0.003647736413983033,4.36
0.1464081359503347,0.06578460956888653,9.771204043945586,0.004971546070086821,0.0025244249655311693,-0.01343853390552368,4.37
-0.13077612998950208,-0.011897517069560382,9.71818302324211,-0.015950957007265898,0.001445293372255993,-0.006870748337819255,4.38
0.042959567369973625,-0.010289353446622743,9.788143604205654,-0.012828799175534061,0.011346483579347168,-6.0362589905697264e-05,4.39
-0.0992951721765114,0.10408431521908586,9.854517343266663,-0.026036698990031387,-0.0006991638404332942,-0.004596872381382476,4.4
0.03349329896046914,0.08210619940525125,9.765563076157722,0.012430871648300092,-0.0037954578372599392,0.021014053216054724,4.41
-0.055761646731329995,0.08473230185491282,9.881181577630633,3.615464416353843e-05,-0.0015960064750346968,-0.0020406313241156005,4.42
-0.03984157215543639,-0.031730113270450035,9.67968766895935,-0.0003992304489660867,-0.006079288972631214,-0.011510475831091995,4.43
0.09535851117095917,0.08036055219284854,9.890928320675275,0.0021089536296978275,-0.005651514282406518,-0.006643884261571388,4.44
-0.08159946098261966,-0.02132859852129165,9.93584428280435,-0.00710039972861705,-0.021228874104673542,0.0006098807150724204,4.45
0.031323856204224364,-0.004470910243015706,9.759375476020828,-0.0036522074302197684,0.0007930523597849114,0.0009030474697593494,4.46
0.05503223567261282,-0.019705616336192302,9.815784320785745,0.007570575725996717,-0.00794536925175297,0.016044167315046015,4.47
-0.11322575730598985,-0.06972486819643184,9.797532386296771,0.005627676505477709,0.0070613479434456505,-0.001979603457429642,4.48
0.045599025582201115,-0.15033549239209382,9.701520561560779,0.024295575236463526,-0.0030130649327079996,0.014606023290217953,4.49
0.02663034431785648,-0.0848556907546415,9.733775082930562,0.01573925178144087,-0.004107903261256723,0.0065598699853699404,4.5
0.09677981987784944,-0.0939318644457714,9.725386619816485,0.0013895004825430313,0.006423296958739761,0.003541044357620481,4.51
-0.0047310655302553115,0.12347539214239658,9.964444588980287,0.017660468209621413,0.024299444551798156,-0.003918678171184056,4.5200000000000005
0.019998870570907438,-0.04873630156426031,9.76203761599378,-0.003338811499823541,0.020311633228605987,0.0012299600196476396,4.53
0.0607625102166995,0.03648752561365528,9.750351175791323,0.0009076957742399296,0.00766804846911979,-0.0025045515485283536,4.54
0.06052325390762388,-0.02348726950124288,9.969242851675897,0.009013701751919663,-0.0023812842585226065,0.0025496530649349834,4.55
0.14484197440523938,0.00461934786222113,9.929187092931917,0.0011052443960868537,0.012609377326711326,-0.008947874923834438,4.5600000000000005
0.12333877233830084,-0.04694809300178043,9.737932754913626,0.014755403240314435,0.015553739949215963,0.0033032026222926192,4.57
0.03215626757813724,0.02182404708490769,9.912938556786965,-0.01423182883979262,-0.01526288997165309,-0.011297241809468629,4.58
-0.1774749041472782,-0.04936009721567645,9.9443160649004,-0.005603205317288016,0.01768738075126807,-0.008427920575815949,4.59
0.01155940259140713,-0.07350126664591876,9.996449954858095,-0.015696498655123035,0.005305317390804998,0.007659803822245889,4.6000000000000005
0.04188920044916081,-0.16051164438294588,9.702409302256937,0.02033146793898266,-0.011615902912278311,-0.0033997492633950446,4.61
-0.022945526223818135,0.06110075298361837,9.63885842047889,-0.013465442390967076,-0.007112632354928424,0.0033833897247405277,4.62
-0.04898565250894895,0.026169700408467084,9.784922398064499,-0.006980700833008488,-0.017458896510710326,0.007746900418324879,4.63
-0.05959430654117262,0.16750920923747978,9.726581565250688,-0.008536344903029966,-0.007172427527900565,-0.006727266743654258,4.64
0.07389626300115897,0.04505665417226981,9.816320557765954,-0.004964290490811489,0.010237467083629288,-0.0012575744152264032,4.65
0.1885215420947954,0.00433846588319087,10.005602208039404,-0.010085353062114928,0.011710051476258221,-0.024357884259875725,4.66
0.01217950515730707,0.08918512203749386,9.735429946405151,0.02345341806293296,0.019187287475773706,0.014148321278025655,4.67
-0.2228885831947377,-0.02453487971001604,9.825891246573628,-0.011223653211087236,-0.006167329851055561,-0.00359333899186892,4.68
0.15761180583106577,0.15775302092908255,9.826901480154477,-0.006611129194120526,-0.004278927032856743,-0.014345692044571397,4.69
-0.0007075785401631564,-0.11616000925789727,9.86951013659194,0.009415831068395712,-0.002640068461987812,0.0001986073112364515,4.7
-0.12257976959260282,0.10512000911482289,9.770946593172143,0.008512138003416592,-0.00705871048268717,0.006074210725950975,4.71
-0.1510442659220279,0.0884485980328988,9.732060332499584,-0.015081530056249855,-0.010904261516768345,0.003810810975836944,4.72
0.2932977018678684,-0.031976036776063525,9.93013345705793,0.0037281702593588697,-0.00574893279541235,-0.014568965605411863,4.73
0.025069721241566097,-0.06319311911544868,10.018319775597298,0.009455147237951185,0.009274041352480226,-0.0034855671422604753,4.74
0.193007668861519,0.03263866828541246,9.809648658697697,0.019724618888727546,-0.005146064273106734,0.009486979713749653,4.75
0.07049517951490747,-0.07369880055651613,9.950386485906973,0.0165925206472113,0.0027058399436381774,0.0034899943902129598,4.76
-0.026249082916875707,0.059999852307126435,9.791552849623013,-0.007159872759166538,0.014284216353406343,0.010021919706227445,4.7700000000000005
0.13989383946540215,-0.17495330035813003,9.888407374618144,-0.014208917806815869,-0.0041293719616514405,0.00396060142263971,4.78
0.11895792327569395,0.04948759576403494,9.788315942840235,0.006650593875076738,0.0010472867925317422,-0.005148148930467788,4.79
-0.05451790117027125,0.2879832354821535,9.850555176839606,0.0007132312916708815,0.0152897050929605,0.001715393567645001,4.8
0.03859989659260708,0.06551634794593678,9.72265060229195,0.02284110517757246,-0.014791963396821602,-0.0018126394351604225,4.8100000000000005
-0.0741668741872807,-0.10071605346134777,9.906730683857631,-0.003930281822201836,-0.011779216567740853,0.01148111855621967,4.82
-0.02356628477872642,0.027918332361242013,9.593453007949547,-0.009702632660937845,0.00578201084075338,-0.0004983940256283759,4.83
0.08601826250248745,-0.005083713697367632,9.843212763075543,0.00021817680550713196,0.011890149376738789,0.0034043724060683718,4.84
-0.019023497504929057,-0.08437031447732524,9.977613075719399,0.005210381031982063,-0.00862941667251887,-0.00196163220483199,4.8500000000000005
-0.08720313406366609,-0.043576949031675416,9.666651831945222,-0.001784081739066323,-0.003521648994062807,2.493608586004003e-05,4.86
0.1908812999414413,-0.08339970466232856,9.989444839256622,-0.00106558113800838,-0.002421388040507588,0.008301592091264232,4.87
0.005711682781627188,-0.08797951935685933,9.725978436524969,0.0017090193630330186,-0.009428312210663667,-0.003809494788929952,4.88
-0.0940850899387237,-0.14669593154695018,9.81220038969071,-0.0017346535097039185,-0.004440297998720466,-0.0075448537336127944,4.89
0.1966150429542772,-0.12344305867850713,9.664344517482615,-0.0033825777956998254,-0.003779905800073455,0.0024086898277158432,4.9
0.03342718909935057,-0.09864487613438642,9.740238503088646,-0.013920153187969386,-0.011532262390444126,-0.007873258352444816,4.91
-0.12511894867161652,-0.08742429191053726,9.663493744843864,0.01094253187794235,-0.0010633805985350146,0.01711531056964731,4.92
0.04868665203266021,0.07827768937461718,9.73215013991949,0.013138181117534769,0.0027164954589520922,-0.01670212887762698,4.93
0.04273264498533717,0.08973187054586618,9.866411896946774,-0.0124629539100627,-0.0016220288534183442,-0.002190804227317498,4.94
0.18317750160930898,0.08133004923842012,9.721259515213223,0.0010916488580103873,-0.026406110488215763,0.0067177608481635035,4.95
0.06507338707831041,-0.07049330332771016,9.714315716496598,0.005494256676914661,0.0027267763429444838,-0.012615744534486812,4.96
-0.06410069829128444,0.07559531986353007,9.835489299822651,0.003399952591470199,0.00047554933973999235,0.010267475777654604,4.97
0.11536070080553543,-0.008567435105069694,9.870292870984526,-0.015294691301230406,0.013510144658197101,0.008942069221652992,4.98
0.05210656614038278,-0.03320770633359931,9.930568057986855,0.01089037463816806,0.013582217718394308,-0.004940727043355172,4.99
-0.001199356789101341,0.0022410910145143625,9.830219413572726,-0.008509515917251506,-0.005467748692090122,-0.009890147722253521,5.0
0.13503120851429173,-0.04215708184885651,10.012134923439252,0.019634436901778463,0.0101257472349181,0.002355952785530213,5.01
0.1484351337536419,0.1661195395845439,9.833513835178152,-0.020227788213818577,0.000919342979707407,0.012469049611520809,5.0200000000000005
0.0009835238631995173,0.0068516709610171745,9.561876404846716,0.002153436739976454,-0.015967512253865657,-0.009149139343887294,5.03
-0.14354180558183724,-0.09136418200198816,9.850737287936033,-0.01359790676709013,-0.007612813301969342,-0.004308277077892206,5.04
-0.09518961904369438,0.08005311043661649,9.978578107754206,0.013535799480143329,0.002268041151692222,-0.012595483331980862,5.05
0.01675041236188491,-0.10537943689050883,9.80070787506455,0.0003513931308865206,0.0191512432355702,-0.012908733679729747,5.0600000000000005
-0.08659828047718238,-0.013759183857029476,9.794277465061413,-0.010538702056317252,-0.0051254287831595,0.008255901118736243,5.07
0.12547147892242042,0.07747155363384452,9.658129170877515,0.00530623105102299,0.011538369766466086,0.006907546474955235,5.08
-0.10146968477320895,0.020866877829958316,9.670824622128274,0.0007750794489079891,-0.002694142853056295,0.007572223101943925,5.09
-0.05343187920693182,-0.08666357686324355,9.93550090473349,0.014751008479931372,0.0011320741941825247,0.000565549376839549,5.1000000000000005
0.010186466439424884,0.03709704170968069,9.87780773990079,-0.012621906474031377,0.0025788556290853772,0.008559205371576468,5.11
-0.00019628854635751595,-0.0959068356878023,9.800271850924158,0.012853543541398029,-0.015138135534930095,0.009112593245440656,5.12
-0.08093371557443005,0.21751845307679296,9.688212941200064,0.002052708028278275,-0.0067148208584907965,0.0073187351314024755,5.13
0.1184056497755798,-0.09780358447989969,9.786607186147698,-0.008143118236714302,0.002301983281797816,0.001458651608754965,5.14
-0.058724021069946765,-0.16882732142540066,9.692042784185604,-0.001981679567959084,-0.003152620491339705,-0.0016864533088291004,5.15
0.18298658021888478,-0.041453270828704925,9.842291026815099,-0.0013490342419767334,0.006316730022636064,-0.0026191350617434227,5.16
-0.017281243496267664,-0.028890400627290758,9.839932348147022,0.003621832147367225,-0.009019138384484551,-0.002087293955402905,5.17
-0.2898976029616511,-0.025533242482322013,9.876988697501405,-0.02394130893121444,0.0006669834390968403,-0.0017586850094033935,5.18
-0.07701151002012105,0.03496770519883807,9.704714866127784,0.0074549111504130065,-0.006690870470048708,-0.007981727806381473,5.19
0.05068737849019415,-0.11298219596335822,9.862870403111042,-0.010460701487389415,0.006852915511800046,-0.005931251919684853,5.2
0.03494648698994631,0.02689300554548052,9.760195561859582,-0.011893820283056822,0.009596497465506768,-0.0006982375302147687,5.21
0.05713615159587313,-0.07986907514115078,9.759274922241527,-0.010733097240251491,-0.009497600821833476,0.007075819894167753,5.22
0.1196019467117619,0.14631735754761352,9.86250473421314,0.011575865306789432,-0.0056996901734436625,0.0027644761161508664,5.23
0.15339853854277274,-0.04243495283613938,9.806069783827772,-0.0016192542921346683,0.018700462448698867,0.019483640851530554,5.24
-0.08318266646492828,-0.03271653860333642,9.871846751251521,0.005017258588709148,-0.015052394678026793,-0.014406364248132488,5.25
-0.09204793071503231,0.03528212043166065,9.746714025539857,-0.011109294703156256,0.016317134943076256,0.004971171781450667,5.26
-0.09688810011466341,-0.05400857067381494,9.721292362566597,0.009246762363625425,-0.0007008885454856654,0.011325252127161478,5.2700000000000005
0.12575831009043983,-0.011732741426730692,9.980371985940314,0.002914663990945412,-0.0029448402989148705,-0.0012314949356684625,5.28
-0.1352043967619647,-0.14958658578052725,9.83906234443403,0.000850573316642535,-0.012114786659267986,-0.0046414834895409235,5.29
0.1204797074405018,0.002002925574290652,9.956446930355948,0.006483287565408894,-0.0008697884285629576,0.00844062514771974,5.3
0.09134192825844423,-0.08901284466653775,9.843969406909457,-0.0018348655787548368,0.0004004104453621557,0.008024004366772437,5.3100000000000005
0.14162878728436115,-0.08482218700526854,9.909417013216643,-0.010797984355629866,-0.015222634466759153,0.009714361837907571,5.32
0.1297227760367724,0.16809097535799042,9.84724644680837,-0.02268341910361067,-7.113764928807962e-05,-0.00917030229207955,5.33
-0.031828662873843915,-0.19693340580205185,9.664073508293676,0.0026586797989680646,-0.003965429262616063,0.006030326435539536,5.34
0.05813861630940459,-0.011948699255085573,9.82478263195263,0.0020911631009661934,-0.009328607219076633,-0.010729675791156131,5.3500000000000005
-0.02818045692009808,0.13471796554123008,9.718614025377095,0.006737089383842624,-0.004153955673117872,-0.008139638931212055,5.36
-0.1524418894381238,-0.0058134748398284445,9.77466838439706,-0.009330670596379174,0.009387601600406983,0.004184932486343044,5.37
-0.0420920720028971,-0.003048908936186269,9.88576184316001,-0.010106995106077177,-0.0025625942742182255,-0.008688818959388356,5.38
-0.01627315084614752,0.25066025695793903,9.98506681664293,-0.010381368450556136,-0.014614101120622922,-0.005783875916923916,5.39
-0.04781067468574723,-0.08083767222162375,9.8122644899158,-0.017155893065724452,0.011565578853446128,-0.0061778835369358685,5.4
-0.03469012783020596,-0.042050521617031045,9.839242531752635,0.010505029681972906,0.007596027964006121,0.00405559541094903,5.41
0.010165499190658997,0.11860942929197263,9.728118263830174,-0.0013916351960823693,0.001002363311235739,0.0078057586930166895,5.42
0.044999254220103195,-0.09188492015748667,9.69999409324997,0.0016412792667643752,0.0009917721424020198,0.01929925927623484,5.43
-0.1503999122468981,-0.12881971423578378,9.861126681277787,0.0001554983590008796,-0.011670286231352611,0.0012295428734292934,5.44
-0.11965798883222618,0.10801053681781986,9.730789939781046,0.007189185352435611,0.006830915999006996,-0.016242687780437123,5.45
0.02119379067501596,0.09018406519403027,9.737781828069947,-0.0084304412127971,-0.005234336177980994,-0.0030710736224961854,5.46
-0.0006569630405906992,-0.08908078560260585,9.552514504483856,-0.012601124664515944,-0.007799427468636401,-0.008283326631338983,5.47
0.15605771032203342,0.025502734673812505,9.803153566615011,-0.005108885569156337,0.00010552866022790915,0.0032165309849690933,5.48
-0.08081345468679652,-0.030577219042589993,10.089365611369596,-0.004964066880771237,-0.011791884608854232,-0.00025189497682044865,5.49
0.06734870186716652,0.09549331511664513,9.756986819361506,0.009114292749725668,0.005286337152475074,-0.017822473026380795,5.5
-0.04818366864046089,0.037381167019533965,9.837659957054267,-0.016157143014340437,0.015138441748261754,0.016274233263983983,5.51
-0.1610909976410058,-0.021071924086593658,9.900609809433485,0.006051076629207251,0.012992518491396422,-0.014706365442701383,5.5200000000000005
0.10140324003441614,0.02407388012495902,9.662805595725978,-0.0009602807681079362,0.008578440843918048,-0.01984385321332745,5.53
0.06581087774168536,-0.0979690505378932,9.90700575050958,-0.004474657657622502,-0.012320397825549537,-0.013595465570134609,5.54
0.07523625539202632,-0.040531542959735364,9.71329605716135,0.004035626410958036,0.004453349732470074,0.0012020144636389612,5.55
0.11007861040238204,0.05292185757756177,9.803762380163246,0.0068447485385292285,0.003279137899552192,-0.00010901385153805503,5.5600000000000005
-0.13448639784605926,0.016873984183134846,9.832500826022299,-0.007379519618804104,0.002167013916068228,-0.0013874602922857172,5.57
-0.051249580724784444,-0.011010527108016428,9.741403426128585,-0.019029085230943234,-0.009114099767124883,-0.012746082420663597,5.58
-0.0047449951272044415,-0.13540650026407325,9.835477817163945,0.005621979079915806,0.0019488917900226384,0.01052777943268157,5.59
0.05142107788928996,-0.021705107107383693,9.880735116444589,-0.00959284955398827,-0.0067599731354711316,-0.0037015806941347045,5.6000000000000005
-0.06258083214380311,-0.014277344532053177,9.720057770824154,-0.004515080169926951,0.000992471513893446,-0.02593973091154394,5.61
0.043524350347310274,0.11729369610533416,9.765702551484248,0.00809698736974787,-0.010164139348154681,-0.0032628786524010016,5.62
-0.008304592232694944,0.0008150027751204412,9.844518045020234,0.008370269368639733,0.004287848801734732,0.013748819543439436,5.63
0.03951207250677666,0.08253807363637052,9.85179279199262,0.0016712739840943234,-0.006320375353137659,0.0110337557751191,5.64
-0.07632044322073299,-0.03608061653630831,9.897812005839683,-0.002098108165891543,-0.003630365586785145,-0.004428810790888931,5.65
-0.1359654590060669,-0.022387272429846124,9.74489896858648,-0.003941124051880093,-0.005271460401107242,0.0011629852866728901,5.66
0.11639793142291127,0.09750484940867529,9.761642318926748,-0.007139580108727669,0.015591095250812783,-0.009641536940648197,5.67
0.032485960087598235,-0.05424703977699272,9.762484659981267,0.0034032623704912564,0.0036995273501082906,-0.0016158216583806433,5.68
0.09381128834332453,-0.20067354745518995,10.03509301544401,-0.016860695779540122,-0.00637667142380561,-0.0015323005341100393,5.69
0.09261340422829749,-0.04710694896216801,9.77940252667186,0.01805561884356887,0.010311960254386325,0.005964074624975742,5.7
-0.0943041775697684,0.10699283622369887,9.829842210384761,0.0064083372838599,-0.015021395711140723,-0.00857112687147661,5.71
0.08918882445155357,-0.012717833154901995,9.86439564373527,-0.004492899548784967,0.00413882915035334,0.0007613023325148017,5.72
0.11660163655247698,-0.047465387891974437,9.76950631814911,0.012085213641901727,0.0030933964976203473,0.0035367306171092696,5.73
0.09465703137271865,0.05040599126554534,9.893960518699318,-0.012851801725897241,0.005264907995092728,0.0065461577719471056,5.74
0.08854083819079249,-0.045886201881308486,9.843346150662523,0.0033962459956210144,-0.00927074162118086,0.0028340908604928385,5.75
-0.11816868006484274,0.0361369749261081,9.74767965390685,0.0036269798527800933,0.006053569032447608,-0.007928070168471127,5.76
0.1427685540389769,-0.009241197943651303,9.886769032029076,0.005467761648010655,0.0007752972239239769,0.006432708987607963,5.7700000000000005
0.03650430115218561,0.017792142459748864,9.932925885222394,0.011828317107657312,0.015334674822854338,0.014302118965753919,5.78
0.2240032117693001,0.03800478994612801,9.848116181898757,0.0012148957730488406,0.010209248736395386,-0.0008461426550171687,5.79
0.059980804576847936,0.039440963611894246,9.676323718144518,-0.010380878810450292,-0.0009622090914021571,0.014727602903795399,5.8
-0.001954094219523412,-0.012496639996944513,9.850029364945437,0.011755884690759635,0.0031269527167424155,-0.001536594752867113,5.8100000000000005
0.09460436036234171,0.08165497641961542,9.81935835241134,0.0024364173293349714,-0.007410900739807367,0.007166109069723916,5.82
0.07538200675083065,-0.0835093173812438,9.85436251516729,0.008041515061837683,-0.002180843592717506,0.004256786347117986,5.83
-0.09414531562850974,-0.12458065757965778,9.763868497995832,0.0005793279180020391,-0.008389980043997028,-0.007747553829709252,5.84
-0.027956334123690637,-0.10933437034402867,9.863078384186364,-0.005457463716854645,-0.0042156378653581406,0.0006642107631535755,5.8500000000000005
-0.09268390395853637,-0.00643097560947479,9.958596057241834,0.0015049945190717942,-0.007454168086419391,-0.0027046268589005517,5.86
0.18652606020422455,-0.00019520487155139563,9.587176201569967,0.01494503190656359,-0.017094431222691484,0.00467117246346716,5.87
0.1252555554811555,-0.12139336725076244,9.809074209787285,0.012480924480990767,-0.007645944206305876,0.0009035877498823401,5.88
-0.05514011236321079,-0.03703900482360924,9.75441800294563,0.0010916083084806835,-0.00601395025345768,0.007218140899933781,5.89
-0.01767217606333602,-0.057231982125411966,9.663984652519872,-0.0063709462502968385,-0.008883943253062392,-0.014358183901838312,5.9
0.011430516712630925,0.006893642147058412,9.82992063704838,-0.0032591957701626744,-0.019537163242472594,-0.0036485296510968936,5.91
-0.03090284873839047,-0.04132886773618492,9.828740601083252,-0.002464960766029581,0.008640422361249914,-0.015091105883005156,5.92
0.13523912941301583,-0.05345088140198994,9.976057152272928,-0.007434661887104264,-0.0050884961381062015,-0.0015473856563291064,5.93
0.12978507860641098,-0.006818964903717722,9.809245234076553,-0.00048805616127004187,-0.013357011324664015,-0.0004934003959307174,5.94
-0.11523933677645766,0.007228166032407105,9.768851110223283,-0.0041412266736368985,-0.005857896559251671,-0.020825669721170326,5.95
-0.14979839603833575,0.12275221083770037,9.638221703227446,-0.0014283301078185462,-0.016002132506934413,-0.004844666581690193,5.96
-0.08139620030721227,0.06217547205105796,9.794357219624699,-0.002576964510518317,-0.006360110046005526,-0.0019130615251298766,5.97
-0.0667489400026522,0.03954531957694027,9.8989713750768,-0.005845023872818963,0.0037311247576776265,-0.01174163284946746,5.98
-0.12293247364664567,0.05358182099798797,9.807445954328436,0.003663586783603895,0.007479559221712727,-0.0015855289317621224,5.99
-0.03874125871147119,-0.1093782173762677,9.832102637132191,0.0022336828146812355,0.004152164409037603,0.01692708901371474,6.0
0.029143215401757478,0.0714031883120412,9.828741188364116,0.020137960158539716,0.01644698693057077,0.011798254785582123,6.01
-0.09848784139218375,0.07085627183807419,9.850541950942809,0.000736635268531046,0.010501897419672128,2.9336917780784603e-05,6.0200000000000005
0.028510062646515,0.08358124876465423,9.845751401431986,0.01731267246693609,0.00614413352989753,0.011787146488467579,6.03
0.0508498667875642,0.012196967561421676,9.788101258012379,-0.004101706988343165,-0.0027787363860143177,0.005110044273732906,6.04
-0.03584427607011798,0.0849137328545395,9.888890030345262,-0.009153295679864419,-0.005023307187686877,-0.015659269351256465,6.05
0.06612230306932719,0.0021967037951707113,9.815602645697755,0.016553626964077334,0.00756474748629716,-6.15806129571806e-05,6.0600000000000005
-0.04747989304459581,0.007614561698503982,9.80337260703957,0.00930375054609163,0.005492142154605011,-0.002071591133567871,6.07
-0.038898946312564464,0.03593996531502299,9.77877360778325,-0.019460932860648587,0.0076408035456142975,0.001680783080364907,6.08
0.13362827554655926,-0.1486876604572836,9.992058485125265,-0.018288617704769507,0.0014192248055510976,-0.0073855556187828655,6.09
-0.008462715122525121,-0.024860603072641277,9.87252221546382,-0.0045128939419347295,-0.011056162463574371,0.0005769631006061717,6.1000000000000005
0.21394630155186115,-0.23266651679444764,9.881797417511162,0.006125495174772899,0.015795986577391313,0.003596146471701904,6.11
0.0382241452216769,-0.04197662520909162,9.73508935393727,0.00244524265553887,0.0027787715448605176,-0.01197649013572371,6.12
0.02841766064519114,-0.03737454047232468,9.810822873385415,0.0006276959532632237,0.01146714551089894,-0.004919430219476579,6.13
0.04169717150619063,-0.11134239628423546,9.784846545010486,0.0011564106136501184,0.021976630816334237,0.0009247985279640557,6.140000000000001
0.02423858070384343,0.0003797588322665738,9.897554974666887,-0.03171082112987665,-0.002461744088751038,-0.006394196878797994,6.15
-0.08289438135021195,-0.064400252843961,9.722497490626656,0.0033109751591946933,0.0008163358197606164,-0.004440632754714345,6.16
0.16561819666974503,-0.07054812803069892,9.816875408082227,-0.012220869460662448,-0.0004841540577589689,-0.012184380316051971,6.17
-0.051704166402062324,0.09501408649122994,9.743734391638808,-0.011327224917826536,0.00025664245580691485,0.0006949330594414282,6.18
0.0208127008046057,0.10855682898802071,9.782164887226925,0.002785879986462774,-0.013528926864595267,-0.0031248276424351924,6.19
-0.17515486417518888,0.1489125159227481,9.7379179769304,-0.0018115296277504793,-0.002074063451564518,0.0016375155360178657,6.2
-0.05585355923895957,-0.03630185199664681,9.806911718858979,-0.009556689656756961,-0.0001443286000997881,-0.0014876327882105678,6.21
-0.013816242225498222,-0.07185255513684945,9.922057990611696,-0.0077882341006460165,-0.012844643099198113,0.018292108260336785,6.22
-0.11990200198298412,0.04159150818460716,9.868142949539445,0.015443867423253922,0.012552927470554054,-0.00651991550957469,6.23
-0.06884604063742455,0.07487400456505595,9.689509158333617,-0.003477291384497518,-0.0031177156927942214,0.008086481228063002,6.24
0.10664065771530983,0.1289774631766769,9.82853640297446,-0.00389754163855508,0.004464874492800705,0.002847091363039242,6.25
-0.02939202415881408,0.06933796786160054,9.826714165007767,0.0008339298720438682,0.022980179427620557,-0.0002751992462112751,6.26
-0.024852937377290763,0.09395309309206985,9.927010461067002,-0.01693611830450378,-0.016676526882363697,0.001708547740228101,6.2700000000000005
-0.05748513909932465,-0.0588321184166712,9.882118035833466,0.018430468247404595,0.002077820946177369,-0.011683538043555852,6.28
-0.08460447042653402,-0.03394035295470519,9.811632137525878,-0.0023406177492234018,0.012043078433820962,0.0044845946211878205,6.29
0.002887558805295538,-0.1584415689322778,9.800497493504574,0.005204067498977404,-0.005483492685556479,0.005683081176753272,6.3
-0.24630286061754492,-0.0665273425297814,9.803184366142917,0.01292991183177791,-0.008466876029590046,-3.640954726219754e-06,6.3100000000000005
-0.05305706359426418,0.013469969438267174,9.716279587265502,0.0022325028093404344,-0.023443611723206498,0.01150727452402961,6.32
0.1710690663215662,-0.1036483322878366,9.970635156707722,-0.0008893107085792331,-0.01437939155019708,0.013897857338960014,6.33
0.05300022237514947,-0.04063493216794381,9.900288690152594,0.011259577788882254,-0.010472536128027852,-0.008414870500671997,6.34
0.023417109502483404,0.1459503776174986,9.712856818444914,-0.01694962342893827,-0.017972258204019084,-0.008151099825258516,6.3500000000000005
-0.028589066427417077,-0.01393993085019165,9.947710213929456,-0.004522925171735816,0.009703040664299594,-0.010242698272880853,6.36
0.06420909021207014,-0.12193501858612879,9.9797412837218,0.0013543679779023713,0.005792946213909704,0.010078273279036383,6.37
-0.11737475802168698,0.07042428231128402,9.852537431598964,-0.004734448894781882,-0.0025717042837497,-0.018853892946455106,6.38
0.07998233550165013,0.027689671454009288,9.86446571830552,0.001567788664496861,-0.0022123820250209655,-0.0007773590918174053,6.390000000000001
0.03708402400989114,-0.049031565858578464,9.75531931952608,-0.022353228023350314,0.004856134059262236,0.006655690922542757,6.4
-0.036389982638080784,0.1325089359083356,9.936726461773333,0.0013606444483370958,0.003933608649150332,-0.010655932130126172,6.41
-0.09504510024012316,-0.10251341267286035,9.908763121836225,0.018392777961124804,-0.0019183550819745628,-0.0227215051971531,6.42
0.018777437523921636,0.0597437953490972,9.99141940206354,-0.014525798110903456,-0.008182137707110449,-0.01290014702133609,6.43
-0.14266242794903972,0.0637833957554938,9.693155429198343,-0.006177696027227829,0.002267792854852357,-0.0119297978047657,6.44
-0.04013589254012053,-0.013954492679148129,9.852897036764407,0.006476831205941773,-0.016156389896877753,-0.006497595115749353,6.45
-0.22274418529513992,-0.23683491930793094,9.723403903340365,0.01082849950657786,0.016858036869388113,-0.0014113765990475726,6.46
-0.026091711683952697,-0.007153622168944156,9.894462940786685,-0.015300247304382333,0.01075813565657394,-0.012858000948590612,6.47
-0.0555155853949501,-0.03605748837062341,9.849512351547302,0.005559383429708912,0.020356310401886183,-0.007971282136246188,6.48
0.18776468573867183,-0.0932012297872082,9.902646134348373,0.02982573968755859,-0.010022580497910586,-0.008282508705461633,6.49
0.08251557142609843,0.05574273043251046,9.747824919506716,-0.022758061434771416,0.00842472504985056,0.0037878194792022564,6.5
0.03284914303646912,0.07017909340342394,9.795539021629407,0.005034944054085887,0.010845806600638417,-0.006173043636299047,6.51
-0.03855158458026753,0.07825082169716674,9.930746656646452,0.014869964950932985,0.014023603249704654,0.03456613348446236,6.5200000000000005
-0.07034238467371026,-0.025452391363589164,9.793031299885737,0.0009945185104980971,-0.012588049973230635,-0.005087078102129808,6.53
0.00906743148361951,0.006918226571370966,9.796283075453909,-0.012575916936555385,0.004748335139793567,-0.0023885616433633873,6.54
-0.024196247176922023,0.06917219746900673,10.088820962527564,0.00039512110527064654,0.008832484356573867,-0.0021196524424839562,6.55
-0.025100057410826992,-0.12389627408523962,9.696999438042658,-0.012746415681816224,0.004702330087056559,0.014661523551652407,6.5600000000000005
-0.05802447083816024,0.01363742861744596,9.915863770374214,-0.01130603958577415,-0.0032888219537533896,0.013376218016779812,6.57
0.10348768134427629,0.08334717517824096,9.800787943286238,-0.006655370379520913,-0.00667326043978902,0.005766996010072008,6.58
-0.08002267841745528,0.10638295756359024,9.844159403234743,-0.00721013783009506,0.010776167435748945,-0.009865486215875378,6.59
0.018932685193959846,0.08188437207645088,9.793023716539032,0.005853373951658252,-0.004900991465465569,-0.00871613966817249,6.6000000000000005
-0.05221997841929358,0.1301586310702298,9.590432689094769,-0.007929005803534108,0.00014384017212514062,0.005110947941649076,6.61
0.0125348824316164,0.055094182853877544,9.628383474801314,-0.008001208474253783,-0.007642398716035528,0.004472937630294317,6.62
0.0477358166379544,-0.10896913429312619,9.703218683805005,-0.006215647077308167,-0.0034221558398066522,0.00022936506090747422,6.63
-0.05260605119976461,-0.28958645070247074,9.706707084570178,-0.0013755318363628504,0.0016987324265720675,-0.0011645523627521962,6.640000000000001
0.1284206601660577,-0.1268967277489692,9.958628152377724,-0.0015475783032566468,0.017358982964348808,0.00642724869640314,6.65
-0.06238338880184274,-0.05008137787057515,9.739052675721803,-0.004771306655384497,0.013017096497385422,0.005326808299509589,6.66
0.006282883404501654,-0.023083444481138905,9.736635534652914,-0.0023769801228446384,-0.011567208411801942,0.008600526304388857,6.67
0.0032139054067753256,0.08620586367716115,9.808736310863813,-0.00021298599311574698,0.008343623265810635,-0.022988253309097578,6.68
0.10341736206055303,0.064921519105842,9.702301031109428,0.008680781169844371,-0.003605173434381944,0.017177769331994473,6.69
-0.02711251753455028,0.11372097852667787,9.9488199951589,0.0002192546953052596,-0.011069667223245792,-0.004041218413688972,6.7
0.07452162575626839,0.028083929725798536,9.845364495831188,-0.011880076702989444,0.002084956783422237,0.00382767203996357,6.71
-0.09087537227450404,-0.02669833024695725,9.778242120860552,-0.010515401724328936,-0.0042006774731612765,0.016433253974567113,6.72
-0.09394080155039321,0.13229253545489014,9.916151173800902,-0.016942533775725355,0.008691317666740249,0.0007709428609507536,6.73
-0.07408830892423289,9.382109449658331e-05,9.748339555640833,0.005461939935362667,0.00815463767740383,0.000977672647312096,6.74
0.07254845482081401,0.08942468587031355,9.900258453189611,0.004769534346701537,0.007855126511078236,0.00040836634554077466,6.75
0.08353238232802286,0.2309157908801062,9.742842049552863,-0.014146517691039478,0.011686509295767237,0.008862583693703355,6.76
-0.03369553165189543,-0.033089873284962976,9.709925156640193,-0.01368962513716733,0.0021647581478302113,0.02026224655212541,6.7700000000000005
0.14803387894589445,0.1341239700473947,9.624025283883126,-0.01913132175528243,-0.00910515000113469,0.0014879154086623841,6.78
0.008186721643982594,-0.11859538579378076,9.648052098219482,0.005059256041987822,0.005915506110669424,0.01015454339839669,6.79
0.014650895331282766,0.018338549025624828,9.983232085939727,0.005201860054184593,0.0068581111083070535,0.001719641366205513,6.8
0.004512048394683936,-0.10236637516324283,9.688261262930965,-0.003317364469171169,-0.018903099826538646,0.005808014427996179,6.8100000000000005
0.18319139892816727,0.10981612297567095,9.741721929605808,0.0056854984143838985,0.0017347825717097638,-0.011453741465128708,6.82
0.02329463159302689,0.22955483253649833,9.618836691573224,0.016441326835179744,0.012053238331710186,0.006218353420611269,6.83
-0.17088803083759985,0.07482382045603352,9.824534293536097,-0.006595013521413672,-0.015364605974559176,0.0177593247967975,6.84
0.03641514318860445,0.03477211074300513,9.73076962319019,-0.00751466381662447,-0.0023843969848718677,-0.006738806838484823,6.8500000000000005
-0.06750044984001123,-0.0799704874454101,9.817647848770534,-0.013279240323527073,-0.0017572003661902663,0.01280158795863428,6.86
-0.023950064174773494,-0.033988697519674746,9.746383785094231,0.009470233728122644,-0.0015874748473485227,-0.009676942267865512,6.87
-0.006300414701854245,0.0572686831135824,9.90032115493155,-0.00185160078279844,-0.013557161695727831,0.0026388541528925688,6.88
-0.009338648370305788,0.04383722598375886,9.757907768218384,-0.00463260124504035,-0.010155794865343305,-0.007118096979652126,6.890000000000001
-0.1734070927888444,-0.026067045558550994,9.66687134595851,0.0006353710988891728,-0.009060765110673514,0.011564955226304864,6.9
0.05768435226908697,0.09654191332645669,9.722226280310041,-0.017842237947946486,0.002128784324575195,-0.016979626498460715,6.91
-0.1128300390082387,0.1469672283176338,9.90185683631495,0.005928248468631658,0.0032434100222021867,-0.007442708933623582,6.92
-0.012645822112395566,-0.029815483122914422,9.653222998461658,0.018848097942239374,0.004690136513491345,-0.006579511096071066,6.93
0.17451970495415392,-0.012369340070368702,10.01270680193472,0.009230716570302661,4.616681094696834e-05,-0.008351272674609356,6.94
0.1000202208054276,0.034097575409696414,9.855401247899414,-0.02081434285423771,-0.006046974463171198,-0.012116612911206892,6.95
-0.13896917620507482,-0.19391330015421346,9.722791207863647,-0.002288509804875108,-0.0402931473101635,-0.014441522191282476,6.96
0.07408529033381629,0.19485302550292138,9.882064131186233,-0.004252353712239394,-0.007830339000461782,-0.00626271545300232,6.97
0.05954195741780186,0.09365572877406315,9.855942304779068,0.008945990975830112,-0.002261048172595987,-0.010582575735342624,6.98
0.177155211169082,-0.15502081494519948,9.787773985726831,0.010424618053618873,-0.006634246045062198,0.009441202289851845,6.99
0.11514712747998124,0.06675875584040965,9.73581644941474,-0.020073610578340038,0.012496366685007651,0.01332726441797177,7.0
-0.03208920472402992,0.06432583260001688,10.029591281610411,-0.0005165388209895837,0.004059753437298702,0.02145020458178661,7.01
-0.09347268902481834,0.12161985867623058,9.834066494171815,-0.004389551752588854,0.015292462518129123,0.0016902744839632179,7.0200000000000005
-0.1293569272731247,-0.00133790052892572,9.849977662551318,-0.006533919609356448,0.007157827463370084,-0.0163572308344108,7.03
-0.195705516812983,-0.10388360045965617,9.883473561560695,-0.005774083104705781,0.020204088857536252,-0.007319928613416193,7.04
0.005995497155405392,-0.08801754641384274,9.942706978507061,0.01339231879694411,0.005264860842793737,0.00659962515082137,7.05
-0.10275121162255774,0.11650590451515029,9.62575584781712,0.010744045518027576,0.025698747444569486,0.0013730522802492598,7.0600000000000005
-0.06203600012066163,0.16679636779192028,9.688037818859783,-0.0029660404954029384,0.006586171051036308,0.0039104460117430195,7.07
-0.09352798932660664,-0.031927409808025733,9.812080943794344,-0.0025485387979145434,-7.137031355440349e-05,0.001080658645882943,7.08
-0.01682471804846447,0.1363301461397016,9.894765678856464,0.0031973005207735702,0.009691803494836946,0.0014922858306505918,7.09
-0.05484667087649867,0.09955429391690586,9.707742048886233,0.015734196631107308,-0.008445787241911716,-0.003961358087249885,7.1000000000000005
0.03710062979207104,0.13366642705238796,9.85405319322344,0.004983875565674886,-0.005229728791233547,-0.003898442811785827,7.11
-0.125339406189702,-0.21128256915818003,9.860062710912672,0.005417881350307125,-0.015842078347058197,0.011116587795088582,7.12
0.09754117053003783,0.10515139028086345,9.811359268726672,0.0011644099685225848,0.012755411816518845,-0.004128320983043282,7.13
-0.04779265239345901,-0.08613873604392991,9.656929617970352,-0.0037069024032347075,-0.0008491066609642412,-0.015700375371004487,7.140000000000001
0.15016580091678733,0.19041847989272898,9.853757476186917,0.002857123704708931,-0.001988416205319272,-0.006822322547233426,7.15
-0.13850738762300333,-0.021808870967771954,9.722855512810959,0.004104790299481786,0.007275350597586177,0.004351275664135685,7.16
0.026354110777032272,-0.111810660442609,9.777585851984574,-0.009054426370949251,0.017403551456397895,-0.0002481700909003187,7.17
0.07334277283501384,-0.0720674243603576,9.815460134963503,0.0025016516762905662,0.0005878521010954143,-0.013496851511264072,7.18
-0.0032610200105308313,0.03286010864230138,9.821962064960788,-0.0009229119814888096,0.0031813033519412486,-0.029125853848282715,7.19
0.0011393941478818005,0.032690262841749945,9.843300259216756,0.006875037620353952,0.017470246195937747,-6.627997827669676e-05,7.2
0.1054306934863235,0.07246177211291394,10.049731313750279,-0.008939348002199834,-0.0021514016126077174,0.004455963855659458,7.21
-0.07933936851203495,0.06919475146800357,9.855233877672337,0.004279163635435086,0.01387423706725094,0.004199297714967907,7.22
-0.08030379416692393,0.010491197224904193,9.900399747974504,0.0027078481384989056,-0.003146379159442927,-0.005244073263581204,7.23
-0.013473178748360508,0.024657540931636687,9.76810548508362,5.970846247524952e-05,-0.004794180826746639,-0.002340676465850451,7.24
-0.015439377875790795,0.015000032200496375,9.660369322170371,0.006244353640660845,-0.005044571298161968,0.008361146181985227,7.25
-0.034962977972723214,0.06794900702440017,9.964088172874181,-0.006653909325254073,-0.00756657571982768,0.0011878948689180286,7.26
0.04999602009702045,0.015148485050164077,9.932758117964354,-0.009063636661707956,-0.006220570417437545,0.012244479453386237,7.2700000000000005
-0.2619462330968951,0.12698031138450527,9.921912250570498,-0.0069947822840880115,0.0031765069434066453,0.006449071098385634,7.28
-0.0630323371385386,0.2284652256755998,9.882743742051764,-0.005953683401534482,0.013207359332294943,-0.013076112514123071,7.29
0.010749441067613804,0.016584168358675287,9.750336372235894,0.0035717724881521623,-0.020332594904184785,0.01186214968091406,7.3
0.025565064914548682,-0.03838799239067606,10.049280979503814,0.0067465770707994515,-0.008835450994080991,0.004061056339788537,7.3100000000000005
0.10179507794605452,-0.015402713450371858,9.822774642050206,-0.0014311698971961628,-0.006593361809884813,-0.003298070815908944,7.32
0.03963082484003332,-0.07047402934900664,9.888186086973278,0.005790923390437698,-0.0022038969200465957,-0.011529698660700319,7.33
-0.11868051104565705,-0.14967920048110098,9.81981562582437,0.011385096780595086,0.004147044963920672,-0.013304659804737383,7.34
0.04206623889330434,0.034405616458918764,9.997204741568515,-0.0030002467650807685,0.0009805222481163282,-0.0009735090892192453,7.3500000000000005
-0.01586685409666309,0.05776506192278648,9.794546584568247,0.00011759040822489332,0.018624032349220467,-0.014263658793133651,7.36
-0.1255768868058704,-0.07395272749184865,9.688033992727465,0.01195967701565434,-0.004982921892056792,0.00190443426770604,7.37
0.09311088964792187,-0.06214655708891684,9.754707465793466,-0.005022853094742145,-0.0028147947933829342,-0.001327737350959741,7.38
0.1648380025184104,0.06778562946990162,9.926376176861343,-0.024160315973588094,0.009456917351072763,-0.0009735547065926903,7.390000000000001
0.19089925447727638,-0.059772598589992676,9.738853888262595,-0.0024210239352933744,0.00502510445894691,-0.01184089097297973,7.4
0.12172831657201857,-0.060766012831669936,9.894983477718174,0.0006249788024258396,-0.004941009160812288,-0.02090089011258156,7.41
0.09491148398727836,-0.0020933365280871937,9.892029496886545,-0.005883568992276662,-0.01061256188230697,0.009256191155473149,7.42
-0.03127305428802624,-0.10065367281347007,9.854726225374408,0.010775303382688783,0.011283535878697536,-0.021833179929953542,7.43
0.1995173931117895,0.16517378494711255,9.83886517974654,-0.006697533244006945,-0.005549927415674373,-0.004796998145369238,7.44
0.0852239279724351,-0.03872935836697344,9.825743999113664,0.005322400851216202,-0.009752344898964647,0.013409252036065052,7.45
-0.15314152485456603,-0.08916750187244406,9.750200010292984,0.0027108642112295164,-0.0014196940128368449,-0.00411830713643986,7.46
0.03456381927255363,-0.24678534025297202,9.826581851388445,0.00014185296263100508,0.009825508384997605,-0.004765283186418385,7.47
0.061271827066738165,-0.0669403906310154,9.555928054317478,0.0034366469628085033,-0.010206906774686216,-0.005933072778999948,7.48
-0.09774779709128029,-0.1012417071597777,9.813247664290655,0.01623964043368816,-0.005518021979433194,0.009884628388002982,7.49
-0.1740835407278173,0.16663829079440642,9.61958438819904,0.010670050897462192,-0.017319813656537775,-0.005800106559875053,7.5
-0.020770602246612452,-0.06026156743441183,9.58341659742526,-0.0019602657438180064,0.010090396983281305,-0.003721571521560537,7.51
0.12803928458074507,-0.014550089482440912,9.88873583022419,-0.0008138559290281328,0.007921686805522828,-0.0029991220797354018,7.5200000000000005
0.22140155514296952,0.18358061293297476,9.819957194113947,0.010076694169562595,-0.002241144427050854,0.006831245047790063,7.53
0.09571627671094492,0.09888412956031555,9.963507974271575,0.004588383571965351,0.005805872757662925,-0.0061044889856308624,7.54
-0.18036960668802074,0.16868582310268107,9.978280001974447,0.017961174258820604,0.012872871800353711,-0.0046055826904959195,7.55
-0.018364537537935603,-0.17505021312058355,9.506437126508363,-0.015744108789638965,-0.011693081144270047,0.008817201490913284,7.5600000000000005
0.04361712871433383,-0.058494404576249825,9.906095607011935,-0.017191646827178286,0.011672926378804275,0.010189160169147154,7.57
0.22703164694087616,-0.11256478384632705,9.774452060531841,-0.007224560069789185,0.0019019473786449498,-0.003938695011708305,7.58
0.011883375475928541,0.029902144978432355,9.860966972184839,0.008562405374467784,0.001744039131412694,-0.007828291001448716,7.59
0.1223261304073236,0.12715156354375065,9.75849816868308,-0.007409802295731527,0.0037187214659676103,-0.011082392332387404,7.6000000000000005
0.038422714628818945,-0.06108721176643133,10.026750754038531,-0.003279469345956957,0.0060110912375714075,0.0011381647570901678,7.61
0.02352391653167038,0.06062029227707991,9.812389298889077,0.010214072428398039,0.010952225777361829,-0.009451868499238746,7.62
-0.03190805246426522,0.05606242381292497,10.029215459479852,-0.005795289346820447,0.011106987544340498,0.015033151577420951,7.63
-0.030965679850362523,0.029116659904465728,9.921838073739579,0.0022566527653528332,0.007774244583738022,0.008517407478143979,7.640000000000001
0.0007930176199514218,-0.024108451613832755,9.885524475006529,0.015227757144734136,-0.0039260355367961184,-0.004704942821448023,7.65
-0.17307265884585066,-0.08417475714931244,9.680306667503768,0.0030031677839234745,0.0018195517978319442,0.00807800554440171,7.66
-0.2171569293221142,-0.08165703644523936,9.761981507871345,0.0017983363777233038,-0.014528817839953094,0.010257031684362861,7.67
-0.02684400337909039,0.11285744854704989,9.784274283711014,0.010265557824062067,0.0257119325639951,0.011556108351724948,7.68
0.013823131445083828,0.09018128155884375,9.815344135485304,-0.004342088450968002,-0.005461722914517911,0.00862764347659701,7.69
-0.028987970273071546,0.18083123313342936,10.048141510820843,-0.007026663859691666,0.00659642825647457,0.021899960129870815,7.7
0.05044877826261114,-0.08095580447273823,9.882168415678306,0.002256757072731531,-0.005296786136754233,0.0004930941123330437,7.71
0.06056417372231213,-0.08454427868893216,9.634264235694664,-0.023026387674700274,-0.008912501967692174,-0.008725265081438217,7.72
-0.01667360753227497,0.06301152837022388,9.719109376002276,-0.010205056457431643,0.016542827317541815,0.0026430257915880974,7.73
-0.20357113942973967,0.12747960438499878,9.572175330258535,-0.016260883511659788,0.01616056605540424,0.0001839908675181458,7.74
0.04343960689536736,-0.14411358002897026,9.7347230488029,-0.020784768784941655,-0.006846174299830968,0.004446285940545408,7.75
-0.25901385533598725,0.09077651231430584,9.88352214362547,0.004218847687566181,-0.02515334140312649,-0.01648119852871095,7.76
0.00041348457589937483,-0.10421525315828649,9.947544374864455,-0.007505560394766486,-0.011014508878841478,0.01741259369664431,7.7700000000000005
-0.1297459234447418,0.03495488285116086,9.819976259017423,0.0220038355920666,0.0050167763798513,-0.005561012952919172,7.78
0.06346454235671851,-0.01738951828715161,9.78799990582253,0.013891803435666988,0.010992725820638306,0.006286802453263567,7.79
0.1186013822691,0.06849964880401281,9.775676862336487,-0.008383064947855394,-0.007566570396448693,-0.007085481262655996,7.8
-0.24196269764561118,0.14374877064464847,9.743648428458545,-4.14528802950763e-06,0.013668817740721451,0.02134524753022493,7.8100000000000005
0.012955130193192409,0.10225031817954078,10.012786942535318,-0.0005327501553766724,-0.007047728528525931,0.00040035137940530266,7.82
0.050925147707469455,-0.21670762934169796,9.93670890796834,0.0019215129320706392,0.0014870685805339135,0.0007164673006908402,7.83
0.17899420639226016,-0.01921368779702789,9.931322539775762,-0.01859700844437189,-0.014029233854720132,-0.004571636987992795,7.84
-0.02780268547581624,-0.09363216396640468,9.837828940952624,-0.00012184536829947671,-0.005718735521402491,0.006822332244018453,7.8500000000000005
0.06163271250540125,-0.10449849012838924,9.707254055374014,0.004561048344662809,-0.015491403370483318,-0.00810950532209491,7.86
0.11720119813691815,-0.136038060669379,9.786433751257698,0.005505620006329954,0.008006899001090625,0.003314873038080879,7.87
-0.27557494370346464,0.14214955999798243,9.673706298947328,-0.0014008012508546924,0.011537329395725961,0.0039011096122975575,7.88
0.01950023892003856,0.10060907760447482,9.738128096958077,0.003368816036251306,-0.01953519661296382,0.0025366500747277007,7.890000000000001
-0.0015001856451994046,-0.20030356482310063,9.94350331510789,-0.017035693002166487,0.02068921344970747,-0.017200134062653784,7.9
0.07855319372331876,-0.08434109101432474,9.879309354519588,0.005914172021772884,-0.014587243068643136,-0.006609849852118336,7.91
0.13732174704286657,0.13923747659791327,9.715127189728227,-0.005657778793904955,-0.007157064218826649,0.008060172683211738,7.92
0.07395970950345013,-0.20667714119335825,10.002382340857828,0.007066177805772915,-0.012963091507858964,-0.009484672577203973,7.930000000000001
0.10285916546324665,0.07998946834661809,9.621915168536123,0.00706488976674475,-0.003645435402725416,-0.01671604683126479,7.94
-0.10884616344909659,0.010045368964106193,9.792586588521266,0.0012598360492133557,0.008628379882880781,0.011876567752112203,7.95
0.055886016755590906,-0.04976733720807374,9.69536460996411,-0.008283275545330595,-0.0002105697620411472,-0.008398826923529215,7.96
0.0978165433594183,0.12881142323271264,9.736196111739142,-0.019093863601305845,-0.004862352397977029,-0.0013265170017399384,7.97
0.04060530825643713,0.036829039825116094,9.77978938651467,0.01656381387348441,0.008684724637797452,-0.0036801024688237,7.98
0.1044906219234289,-0.07669592260305269,9.620579442151742,-0.0031217220541646514,0.004513125603972292,-0.01546031293027185,7.99
-0.05648887344679504,-0.08784131619991181,9.735845682372616,0.014622502468334275,0.02320955342723836,-0.006224918428136841,8.0
0.0380214098099646,0.028214556249221603,9.907718614590847,0.014855707767399348,-0.009505013575998473,-0.011867648272419564,8.01
-0.06861037280168107,-0.032604178921562914,9.789539425390739,-0.002393635640459317,0.0014894062859106942,0.00898740516241327,8.02
0.10489837791827893,-0.09553417516244164,9.897751126149597,-0.0014112379435847172,-0.011326104296228618,-0.0010670077385125547,8.03
0.00039751164472567576,0.0899718219959078,9.745053663906505,-0.01040383446218996,0.004678827301018166,0.005496349540856153,8.040000000000001
-0.04093541527811562,0.04766543346724654,9.8571176349103,-0.01266252694425653,-0.017787141068837324,-0.017441252958288404,8.05
0.06750714593355679,0.026956410091041688,9.742919555864953,-0.00371592900080362,0.0046475828425275876,-0.0057551446709115505,8.06
-0.1277677943359342,0.06626702834047082,9.93337840047757,-0.020298950072712655,-0.0018850269703598044,-0.010420717161133929,8.07
0.062335920298255604,0.010678070307285355,9.685051963951626,0.0019963697988452664,-0.0058220059067808526,0.0006524374670276791,8.08
0.0891423104802257,0.1782893676688971,9.836921118494008,-0.0024483419364082827,-0.003045631983430067,0.027211481706317694,8.09
0.019982527645900486,0.0013327649191256638,9.771054838567697,-0.014749276940716571,-0.006667095102085697,0.0002145873141364414,8.1
-0.1333427024116103,0.011247336867470578,9.894368605321032,0.005524115029013721,0.021165509306010195,-0.01211123203212859,8.11
-0.019069682338738528,-0.07068229786085975,9.831715161434147,0.008700414679691699,-0.010748605310001371,0.008615291986437472,8.120000000000001
0.11678454998050586,0.011807999628365463,9.7855207434675,0.005919108043600184,-0.01531130951009749,0.008535369114464338,8.13
0.08923217002473385,-0.0749878505843311,9.689013431797775,-0.005773905410101202,-0.008473059083864885,0.005688312542867453,8.14
0.04645680645687373,-0.07117466206737559,9.932701019480774,-0.01620158219391578,0.013687774097935913,-0.008705888615087573,8.15
-0.04232374868017233,0.04487921108249815,9.654412687494,-0.015003387649281929,0.0119663129224354,0.009299353795297062,8.16
0.03616156327678976,-0.23036966365772013,9.739053260077272,0.010470464320494761,-0.002549588078962866,0.028866599889905864,8.17
-0.057855594972284576,-0.10020966194792902,9.828718126088189,-0.001464421354652867,0.010040223262700147,-0.0013562387421161481,8.18
0.09290383817898047,-0.20477733021611058,9.930042844550464,-0.006069761105569402,0.02494611231051435,0.02023341232542814,8.19
-0.00014771025496069536,-0.031070838254089173,9.835063580106949,0.01098633484032461,-0.0031100831714733356,-0.02006625606723619,8.2
-0.0076896645094209895,-0.12805613711576433,9.884338045042334,0.0058128546155151815,0.0063452537331318325,0.00824685838291838,8.21
-0.20420240642218795,-0.12866840837006344,9.883184973215622,-0.007865624291023549,-0.00524235189578433,0.0052066719542974,8.22
0.02682636652717496,0.05761299542362221,9.779608012210625,0.010476989981972343,0.01020845331448667,0.009068267858621106,8.23
0.0037650628124255257,-0.010854391631392929,9.804687516312587,-0.005086394758611169,-0.024839834465311236,0.025585277788236504,8.24
-0.10300834664314072,-0.14754639831319347,9.871198234052148,-0.015787028208398914,0.006127501323184543,0.0007364634168703473,8.25
-0.016665355164503567,0.05115771206114187,9.73658040950489,0.0002868664679161361,0.004425041222707748,0.008554109065036637,8.26
-0.017136759677176174,-0.10717488328004471,9.868258187349682,0.005665423341144858,0.010716760496313614,-0.01715795998505832,8.27
0.12062323870435564,-0.00407023818388823,9.85103607746178,-0.01274475842664067,0.0014519360064356643,-0.005929114818032452,8.28
0.08932379714566907,-1.0415018595042728e-05,9.808411433519048,-0.0048721224053353135,-0.007599191433896527,0.015696431927622462,8.290000000000001
-0.08161584533285991,0.03277966897721716,9.761958824487406,0.0029367754237377853,-0.006852399533995163,0.003739346471630221,8.3
-0.0013236766082596538,0.11518373910239349,9.90023994607631,-0.02149693672059567,-0.013074133715103072,-0.021171374519174342,8.31
-0.016285198195630412,0.12323348508128301,9.73643203828679,-0.0025767317208627866,-0.006833466302652659,0.0007417292648539977,8.32
0.12696503675735626,0.12970180575733145,9.830448934086853,0.0053929070545058735,-0.00828702962469584,-0.011217966163126813,8.33
0.178759667947403,-0.02205138753299567,9.682736094789504,-0.009978966897526937,-0.0009041727633530629,0.01579930636855456,8.34
-0.08819219039220848,0.10114486612966239,9.934008702215799,0.011497175731018496,-0.011531952142468738,0.004964423380973825,8.35
0.016560697976891185,0.1144611944517592,9.830415839538848,-0.005538808585517278,-0.002960266660169651,-0.006924970675087303,8.36
0.014102265159705533,0.05596450837491357,9.862016774138485,-0.011580555689759093,0.00567139680455981,0.0027542297729207512,8.370000000000001
-0.2050896911804031,0.04526146308134801,9.790558093719879,-0.01824078518551672,-0.0016409243800915255,0.016497482928055696,8.38
0.09531872694662279,0.12992650197597488,9.809767567231287,-0.002598466457423529,0.007798951820077733,0.0006671349353919516,8.39
0.10144349912832613,-0.004323782731020656,9.857701528570635,0.002603025586573496,0.0031520453881516025,-0.003434488808878587,8.4
0.06410169731574393,0.08289122831831748,10.023514545001374,-0.006180469627590155,-0.02553943122266533,-0.0027433838048708816,8.41
-0.1426298807332149,-0.032021786091102934,9.929192019322333,-0.0030188802020682326,0.0028230406980596506,-0.014695191157964199,8.42
-0.27632339410068824,0.07418937136694365,9.909975826609758,-0.0019517300814915297,-0.006183662302266151,-0.012512785355566797,8.43
-0.10974388241963949,-0.05503682745237958,9.816694060505506,0.00740394996412516,0.01768437983751279,-0.014534793498985326,8.44
0.07927015948933425,-0.05436650774998867,9.81116828242548,-0.012826809250641516,-0.0011146127382020228,0.0017014685571238866,8.45
0.08176278405976609,0.06621535140165767,9.78115780446541,0.0007322958545124704,-0.00018151358988365213,-0.014715265364994685,8.46
-0.06752033672774164,0.10594920391977132,9.757300523947928,0.007329770362006981,0.0074975165602670256,0.00707238663459721,8.47
-0.07114074769693239,-0.06370195677679419,9.730361372705381,0.009168519615061734,-0.016296098826685233,0.0020913645985739054,8.48
-0.1504273302995885,-0.05164498590132385,9.695396133953544,-0.018513521988129812,0.007705037242022858,-0.007949263167583685,8.49
0.18965124940140912,0.11287331069872414,9.733062336323238,-0.012761860886709601,0.007469052625449711,0.011174228331760275,8.5
-0.0382518536151999,-0.05220770367137456,9.72733160662747,-0.0036706776378673187,0.0023622345066212835,-0.009651264708863112,8.51
-0.06379478929260367,-0.037196351763744806,9.701114138521547,-0.00391639483871706,-0.010157373956757245,-0.008509605143028565,8.52
-0.013596633659972438,-0.058585309488822804,9.848476433289806,0.002294825988630002,-0.007678078811163319,-0.012393538305218952,8.53
0.2381214823398121,-0.04350811073379612,9.76426343853227,0.01276163215053696,0.0065953217584663135,-0.00022964167122171885,8.540000000000001
0.08450426304302783,0.055428549374952854,9.897932903270787,-0.000985903520842533,-0.005342703584531788,0.013732706683119683,8.55
0.05302297014873249,0.08554057609309017,9.802493067135275,-0.0003733830927414846,0.0027408747947730524,0.02559531514938091,8.56
0.046712355920174725,0.05168873395120155,9.851580877573506,-0.0006217628862678945,-0.015315014274992218,-0.02030653570720269,8.57
-0.01357015299837258,-0.036113450631085814,9.956078956892934,0.014980548635742486,0.0013421305615763047,-0.006101805039534058,8.58
-0.018643181749266047,0.16150347483562377,9.797445629602509,0.006004053079702445,-0.008659957541500944,-0.012663008868691752,8.59
0.015644437858639292,0.0969223523109014,9.778355167623449,0.01997296394896431,-0.0020135903443826513,0.014001926450486193,8.6
0.07295079702099522,-0.06514347596224689,9.727177540637102,0.02737438452796365,0.003796849375871868,-0.0015538089332345845,8.61
-0.2232665579416675,0.011023436715597197,9.560746416359663,-0.0062415746503279535,-0.018263940898339708,-0.011972104402969013,8.620000000000001
0.08642207653840643,0.0813273561473701,9.871291437510898,-0.004670124924214993,0.008296262495120143,-0.014139869214496531,8.63
-0.11384031349460713,-0.061353960677308285,9.717892837129646,-0.01518518139618326,-0.006148114305275972,-0.0004596971864815489,8.64
0.02453028797501616,-0.07176533223141145,9.788484506273948,-0.009555355519757888,-0.003379523976737608,-0.0018129482434939867,8.65
0.1136156354144262,-0.020885876435744827,9.911218683988098,0.003849323972116156,0.004661540744247487,-0.00020683878592072142,8.66
0.011965324889214708,-0.02202330890993157,9.615377753256606,-0.01795102355723972,0.0034194157950334465,-0.0037138832636220086,8.67
-0.09358994640297402,-0.08757376826355305,9.915580837304109,0.011465904279476866,0.0035061853484943386,0.012198681309180249,8.68
-0.030184743067978182,-0.10472612490674241,9.956183045015255,-0.001360682945113042,-0.01168091838496782,-0.0010997549567801055,8.69
-0.08627017881942296,0.009804742772327025,9.848903580092088,0.014097493848117246,0.00034973713728222766,-0.011746323364239307,8.700000000000001
-0.004254770884462692,0.012541760097872843,9.870992054166695,0.02064117858419167,-0.01041929206953004,0.014463439361156278,8.71
0.08437209076431323,-0.08168630065817595,9.852745287523357,-0.006381689506521222,-0.004515628664997444,-0.009115117419540129,8.72
-0.05157229150781644,0.015811756474695255,9.741525036446808,-0.0010703298877684007,0.0023076604673524697,-0.013527843630960011,8.73
-0.03936071885674509,-0.09916133803758673,9.686145339630137,-0.01604969153663191,0.004362441528267986,-0.011116689484539293,8.74
-0.11835090542406164,0.1099932970340669,9.783713265805538,0.0018256352200063143,0.013784209086330197,0.004165378594936762,8.75
0.16035144817865554,0.05875307733759928,9.82368419254502,-0.002958165463833889,-0.01142274122698633,-0.0031146653538836333,8.76
0.13282673532787953,-0.09112701502195192,9.632882990355473,-0.010013328953226748,-0.013923979774303279,-0.004319658852831317,8.77
0.06797442746245513,0.03599681204252545,9.753758548363571,0.0030923511163670476,-0.019158593856884655,0.004359687741981395,8.78
-0.16821555924956189,0.023527478642424365,9.929187137799921,0.00048614490268588317,0.001451137501756991,0.0010186600029447282,8.790000000000001
0.022778722062768514,0.13589366088119292,9.801635055246432,-0.007480008903175775,0.002180547714319731,-0.01979099548523964,8.8
0.08792371921315306,-0.1374221179112986,9.959488942635714,0.0010062351201757518,-0.0008888375488070186,0.01965825829375056,8.81
-0.02503936130088552,0.07844932036000465,9.840391436031998,0.000925251960435669,-0.006555073194909126,-0.0012229194519396886,8.82
0.02826255737765307,-0.22161216425615665,9.872077694849004,-0.0022462831252873035,0.0007652775483116705,-0.0027644795380042785,8.83
0.20136316587018005,0.035164637475674686,9.952629582382587,-0.0024660850698324096,0.0010001546001382781,0.015804094353364523,8.84
-0.04919793673299444,-0.07045416324171279,9.914167187338622,0.005419607661805614,0.002211994132179569,-0.0042465553314632995,8.85
-0.07697090020028609,0.1199252277677221,9.765815891297166,-0.00016679708381117238,0.005981593766021195,0.005525070540920809,8.86
-0.0478769847305652,0.02872715999373281,10.056365518591456,0.004766315772437528,-0.008931888955081999,0.008295842084288296,8.870000000000001
0.055679786384911306,-0.026787259938085724,9.883672121633893,0.011629335874108176,0.010606641333893234,0.00941732276207281,8.88
-0.03234512295393521,-0.0852076206097725,9.874525283549422,0.01091336144134262,0.012230627511089885,0.002191835484170467,8.89
-0.06618998645147829,-0.13806086144164445,9.691761159624479,-0.00802593550463629,-0.012239006359959354,-0.0004860822516518118,8.9
0.1717070833765095,0.02299762489189075,9.788509988703687,0.023155020676929684,0.006416902925391991,-0.014638234267973092,8.91
-0.08854355318349383,0.11158848905698437,9.765233534750848,0.0029171994105924837,0.014024127976293686,-0.016424642293525728,8.92
0.19397541771244434,-0.1391383624276305,9.902013597953717,-0.006202242294331969,-0.0021631972799065107,0.01901657417808298,8.93
0.07289706785884524,0.10471952748200238,9.815832531674685,0.019341254970077413,0.009587104510301614,-0.0064297605366356635,8.94
-0.007094495709567961,0.26933627756494966,9.913516308125182,-0.0022321784080202387,0.0034270291522364126,-0.004455447326414753,8.950000000000001
-0.08685368108633125,0.04323326475575062,9.856694516687398,-0.002751755269308207,0.005694086158854614,0.006863550386397161,8.96
0.05424293181434772,-0.01526557408430147,9.799223714381208,0.0027985807854289998,0.006039626137877226,-0.005082171929424703,8.97
-0.12413797631172502,0.03758625927137312,9.894198063645238,0.000403490484172914,-0.004758575504903682,0.0030043128978708518,8.98
-0.044384069440327356,0.04259080527149731,9.720305960799063,-0.00849567950048699,0.012310948574689552,0.007561194536812336,8.99
-0.13803206669566145,-0.06432176007737338,9.700824893393506,0.007977925620842301,-0.0018547782557655785,0.01045161541034203,9.0
-0.0973451180347687,-0.0792804315043739,10.060450370022473,-0.011829922991869357,-0.008575663334244366,0.001888500923486883,9.01
-0.042136019698419305,-0.08833093213687972,9.76357143443164,0.01743637984951732,-0.0008680848807581724,0.012733661542328403,9.02
-0.013713535769739752,-0.029520353574635217,9.793946343277003,-0.010086310016959072,-0.013844447769151218,-0.004946666102445576,9.03
-0.06723920745036578,-0.028015623998845114,9.847819509443902,-0.0001956412412662384,-0.005491382507315333,0.003090534949854558,9.040000000000001
-0.05874939237032456,0.10433155512789097,9.943976313354415,-0.01570757416852686,-0.002063532173571645,0.0013745053539521465,9.05
0.06097190048479645,-0.019069841348835333,9.669806866361672,0.002398796943861247,-0.0018376309274685811,6.918942278383568e-05,9.06
-0.05458206088067863,0.12558959877947382,9.791539152910158,0.011474285095494764,-0.006931131617950277,-0.015337645453737921,9.07
0.07782852530058344,-0.06154877885844258,9.733094737307127,0.001012694238072717,-0.011513139865062458,0.0026920993561156954,9.08
0.04243902744646816,0.08732244921216138,9.814448722871719,-0.0009883744398638923,-0.00902509619441302,-0.00031418298072991854,9.09
-0.10091594231157615,-0.014264217991024817,9.641168116259669,0.002156983085574764,-0.01325959831758805,0.0005688436774229616,9.1
0.07961860033639445,0.13580828458266705,9.869094552479815,-0.0069582987107285645,0.0003983057077244797,-0.004745181522943208,9.11
-0.010173615129156939,-0.03325010025398701,9.749453683725099,-0.001894227474061673,0.015946028336158834,0.01186533464473951,9.120000000000001
-0.039283086225232536,0.16967024035621622,9.943732546562194,-0.009379651607784764,0.010826038619199497,0.011829700912036438,9.13
-0.050547963854109416,0.0062990107650220785,9.772561346156172,0.014236572209556025,0.009203880413856587,-9.641413000578319e-05,9.14
0.003596264967427921,0.010353727162247904,9.679858739889651,-0.00473104988820282,0.01095634928839779,0.007045771694568728,9.15
-0.049150678130719466,0.07741392659597163,9.7218912266186,-0.000915313697346141,0.005436576658435654,-0.009098232931591023,9.16
-0.17599663186926182,0.20921830484592363,9.747766819083248,0.01266270036099191,-0.01968970078617647,-0.0018073718426318559,9.17
