ax,ay,az,gx,gy,gz,timestamp
-0.0007695239194686931,-0.04166347258001831,9.77957612485697,0.0018554644096747696,-0.0009307960240038625,0.003976702573278325,0.0
0.14442422188600162,-0.2847337563065606,9.878640991142506,0.009863644151184748,0.017742716672225895,-0.010213858750526956,0.01
0.06492951228222507,0.07026914135344996,9.82186181841166,-0.020945165442720175,-0.00019661753126251646,-0.0027899708550385783,0.02
-0.019747703596719117,-0.022525903535434794,9.651731348887632,-0.008801371059212557,0.0052080700300226705,0.007596967241153571,0.03
0.10020512351102046,-0.16226357361556565,9.779240852178216,0.02017659519237003,-0.01563040566486442,0.0004447834922980257,0.04
-0.059435808390731384,0.0872665303666253,9.95323613884688,0.0016029673649679552,6.605135379524525e-05,-0.0072210884267505425,0.05
0.003709204128431915,-0.09168075380522256,9.7589295175321,-0.003947858227851353,0.0031369106752279835,0.006847129314033441,0.06
0.08896778585886064,-0.08335204630150359,9.704927391230097,0.0055916961696327976,-0.005835425371541071,-0.014908693886247397,0.07
0.1139123869563909,-0.08945287568391926,9.821523354002847,-0.005178168168289103,-0.001363977340916719,0.005871069471239911,0.08
0.06304309443175812,0.0031721506629192237,9.816498783042565,-0.01146492348561022,-0.014459267210449501,0.005184991226047964,0.09
-0.006656927761906337,0.004789924790997771,9.839105982449796,0.016181384599777252,-0.010516648338293638,0.010938395397400453,0.1
-0.09503984827456735,0.05030398877075424,9.846721020995059,-0.005343357499454466,-0.011834820046629786,0.01216361657866093,0.11
-0.046755646696098906,-0.03650055565683826,9.848180188282418,0.005761951164327912,0.0030945727038257354,0.012352803195275618,0.12
-0.011367071823559166,-0.008954714702224394,9.653887350373825,0.013800901712996472,0.010733709068734014,0.01370667189052063,0.13
0.06233280534155843,-0.0746137897975241,9.741115680345134,0.009689639858175714,0.00919417063911835,0.003530200969921941,0.14
-0.08506484170822708,0.029530291672635364,9.761333467367567,-0.005974823083108204,0.008959406739173153,0.00996314582484941,0.15
-0.13888316816695903,-0.16015764960202383,9.928620478175324,0.006879678949067022,0.008541268614858698,0.00942088875609712,0.16
0.02761138908362262,-0.1201377856850242,9.844194074244896,0.003705108280537849,0.019174788927709744,0.008571555148199314,0.17
0.02849390658722822,-0.03426687182696646,9.803703833657439,-0.0021639714077337094,-0.0169107580925598,0.00965526871165447,0.18
0.049833396313291665,-0.11542539896606052,9.78254030179065,0.011960774969747208,-0.005760531989339167,-0.001888810352908892,0.19
0.18171803727631078,0.029994814988443554,9.780499420733479,-0.00045908806956609054,0.027174246108748887,0.00809824479190456,0.2
-0.11699762680525268,-0.08497358022644114,9.863098566047622,0.00011030124109261022,-0.007780964977136149,0.017469269486456964,0.21
0.03541530453655918,-0.10491380092620406,9.858790037167074,0.005358849567662733,-0.006094104680238244,0.010853387592437716,0.22
0.08222008023065747,0.08424251733839741,9.74102098866558,-0.001077068737426856,-0.00578486450510458,0.00040483081161233025,0.23
-0.02602085682390784,0.012342874666110629,9.81848000156969,0.002164922511371116,-0.012701361535457962,-0.002339801463618997,0.24
0.05589902370524367,-0.12067457828345718,9.921669223224717,0.0011824702676720854,-0.008850170978968576,0.000426813442895512,0.25
-0.023274980165461923,0.13008281308314523,9.798619048312474,0.003446693582289639,0.0025283568011944726,0.001985536899766624,0.26
-0.07093791882357557,-0.01902697925722538,9.782231320123485,0.004857117330717063,-0.0038446603091206355,-0.009102078693569826,0.27
-0.04626430782198958,-0.050217604669201554,9.737693285797587,0.006987066954352975,-0.0023760613268966977,-0.0037126206580996067,0.28
-0.018947852172167066,0.08448080825855031,9.832180525015259,-0.017996948331738555,-0.022279241677675084,0.0035889738576705787,0.29
0.20455334723823737,0.16331895450880551,9.820151968573098,0.00731977803524299,0.015841189605368157,-0.0062208130261215445,0.3
0.05439150791628418,-0.01368445055349618,9.82921766795474,0.001862238996779515,-0.009522681312931817,0.014486247188507544,0.31
-0.02441697716862548,-0.013300423393207772,9.870608978018641,-0.01582192779514289,0.00611487406572793,0.011773532704897088,0.32
0.10045863418242632,-0.07911153833587822,9.883575755285335,-0.0034608720040271873,0.01674124747395544,-0.0033552252094902,0.33
-0.15067733063944144,-0.021774005941095863,9.93956463398718,-0.010036858825504622,0.015338568492298137,-0.006373794976073436,0.34
0.12677538879414676,-0.003846068862372116,9.809375792491293,0.008455674723089472,0.002883585874312628,-0.0009840301900097162,0.35000000000000003
-0.1306184668823764,0.1766704328964258,9.58264546560469,-0.004846895915394265,0.008124686645086447,-0.0034312534592646367,0.36
-0.051654039066308666,0.011557573104194812,9.780047392499661,-0.01231350979004732,-0.00960481489340556,0.014656620105732779,0.37
-0.20249620648787736,-0.1882599901464623,9.917719681195482,-0.01728740382264469,0.021944844794308183,-0.013153456531452477,0.38
-0.10785135931096775,-0.06294651833550859,9.787456587066353,-0.008145508356614298,-0.009837322897193825,0.003733920545990766,0.39
-0.12478899334993493,0.03816672504235638,9.884422616512683,-0.002979016777148695,-0.004907528109483659,0.012725409880066553,0.4
-0.11480026213345096,-0.02418443608603453,9.73327576846748,0.03367895711792222,-0.007038780911700892,-0.0018407064990807278,0.41000000000000003
-0.07836363269171445,-0.009001045990673596,9.826157849431947,-0.013102922188723902,0.015286204627545047,0.01962125313263216,0.42
-0.22309569759603606,0.0027498405693999082,9.864271628855727,-0.00222971012562272,0.0038195885504782403,-0.006977543162281921,0.43
-0.05228299154166345,-0.026161985149331487,9.768642331590433,-0.0029652755112848333,-0.007848520663108127,0.01689196450991377,0.44
-0.10545930126282765,-0.28417476238732714,9.77712239747726,-0.0013424309047480635,-0.001688758402196678,-0.006136893475808315,0.45
-0.09137492175691368,0.12923556804951594,9.981928440324129,-0.002096973064008304,-0.007769576036649152,0.02146519408737743,0.46
-0.11968066306637148,-0.1568600159854966,9.872659089459331,0.022365445294293535,0.007802288662690168,0.014847568446133417,0.47000000000000003
-0.09176895287458878,0.07174926281431197,9.785464767872742,-0.003197131762291153,0.00291108526739739,-0.007680126237921089,0.48
-0.07460112704974349,-0.11345825840373763,9.73583607621984,0.00549088177785989,-0.006574775793295429,-0.010662763217686482,0.49
-0.032537968314687575,-0.12145483029433508,9.66626246591984,0.009938575116526644,-0.0006501077316871513,-0.008516469403394945,0.5
-0.02548017785148053,0.05163327049487601,9.759858913708937,0.00525862516388556,0.0016577959634934013,0.007348451311227096,0.51
0.0770505905747714,-0.07244627799060245,9.909305534572798,-0.005284361996225582,-0.00904614041777452,-0.013538600442733369,0.52
0.13251082459705774,0.1443020740456429,9.809615812214531,0.012416145838923478,-0.0031671252317756046,0.011136620284381352,0.53
-0.07820579304297387,-0.027929383224710044,9.822220138517531,-0.01121976412639178,0.004385778502660631,-0.01304837563295645,0.54
0.12593580234848167,-0.009565814447539959,9.960731707645252,0.005191207502569165,0.010376187465962918,0.004157421831821697,0.55
0.011295136377516614,-0.010028830021046434,9.736268202178085,-0.017221301971884064,-0.0030116969523211637,0.01142448500511784,0.56
-0.1392040283896281,0.014303461285220502,9.728283585094625,0.02200245902753547,0.01574871369646282,-0.00831889692550768,0.5700000000000001
-0.11648343413828957,0.15230120200371608,9.789504333169159,0.013209146394116038,0.010781494726966106,-0.008864035946845811,0.58
0.2633285640608222,0.09230620060518135,9.985931075581645,0.008442224544862492,-0.00452550261200736,-0.00555408367789572,0.59
0.187050064385815,0.07775531725963471,9.740139373053239,-0.005691647338478926,0.0014128981823777304,-0.006038200726480948,0.6
-0.09172071306954814,-0.006672352266497795,9.823095719396942,-0.0024320184187452518,0.00435387361652115,0.00429005913573526,0.61
0.01092022273416723,-0.12323309649065906,9.87489153269095,-0.004263421278577727,-0.016474314976919167,0.00776812998671289,0.62
-0.01785993720971834,-0.015032995672480037,9.703775493230431,-0.006540970215708966,0.005613757264604832,-0.018974601739442706,0.63
0.11402893664503094,-0.06717485182197895,9.782923370586122,0.007712529274426876,0.0005517128701533998,-0.003165007984186264,0.64
-0.06732988187570074,-0.0656849223787628,9.858003021621117,0.0045760556511424905,-0.008517290749907475,0.00011925970319215699,0.65
0.05599168484937363,0.20790157478618496,9.769752666157244,-0.00986079947324254,0.006230872282281917,0.00258094519354046,0.66
0.030882651910635453,-0.01219789759252654,9.9744285934362,-0.0037473475272490277,0.0006462769092147672,0.0021604996340656886,0.67
-0.08494314819626578,0.0005655214122336879,9.780387049684458,0.016816105337782435,-0.005086195752270396,-0.0024815499424490415,0.68
0.006115353603303764,-0.01943497691292244,9.880213933581643,-0.015022293202499986,-0.0011304170282123336,-0.009245301012361077,0.6900000000000001
0.05677035710499694,-0.005914860811431,9.790197363863415,0.0001396014174636672,-0.01000998942742438,0.006928644365495539,0.7000000000000001
0.13339062334904214,0.03906793235101031,9.740362471841236,-0.008800308387730148,-0.014974536918055071,0.007353273741830934,0.71
0.015244008053764158,0.029266091967663922,9.85349016522215,-0.0012268001828530108,-0.0035238094231886457,-0.0022706687497214798,0.72
0.1249787278288258,0.07128458926656472,9.821504530097608,0.008458498915706271,-0.00887513675903284,-0.005238229294978707,0.73
0.01543109400830841,-0.010314228037080861,9.981985892817363,-0.0035789971191774713,0.0051338653750060016,-0.005242513760460155,0.74
-0.10719034060098515,0.0426282568036356,9.673042187699375,0.012465894366930394,-0.026837144325691138,-0.02967706845162419,0.75
0.04726493564510623,-0.06996018005020868,9.655845097769019,0.013714093952228184,0.011592403189585898,0.010742571233372139,0.76
-0.1795269357402296,-0.04988323446339865,9.604704626247647,-0.012973490859836363,0.02045457560610164,-0.0087757959001013,0.77
-0.07968569010335112,0.13846910110191046,9.697798693428604,-0.022682171217183102,0.007522963791823537,0.0004743172890561851,0.78
-0.018702036223299048,0.0870766608710493,9.832295941102357,-0.002819594786967523,-0.006978042056257131,0.002424610636995258,0.79
0.11961419591206442,-0.1860922359136453,9.882622184824562,-0.001615830917522797,-0.0028199475976555316,-0.01645002070543117,0.8
0.08679162636888618,-0.1130832053756496,9.87006160840313,0.007119023330468602,-0.02420563757645075,0.033262412963784876,0.81
-0.01754220625079401,0.10117558511642129,9.711989851457488,0.0005705670162558479,-0.0036433823693944574,-0.010769893244321944,0.8200000000000001
0.17053165823575045,-0.11577946516613238,9.933521893876248,0.004830875359476854,-0.016130749398921375,0.012607387927522182,0.8300000000000001
-0.03439036489927122,0.053587384954515864,9.72447522781385,-0.015831211326601126,-0.016277521299624387,-0.00581086580892914,0.84
0.009079454661814933,0.03031818099465336,9.660729253429604,-0.0011266248239348215,0.006617928720962487,0.007200590643286732,0.85
-0.081330402831264,-0.10642880927560541,9.779472869323165,0.019362433140457897,-0.00028781433571375357,-0.010227027949411095,0.86
-0.06445694117129622,-0.013082499576489154,9.87442766862863,-0.010298083811738,-0.00795311488491913,-0.013041824572037643,0.87
0.020443195832743788,-0.20163194665617412,10.006515485889777,-0.007580083490139112,-0.017735777175492972,-0.007171185055061108,0.88
0.060934618625711125,0.0916808377134462,9.77716641730198,-0.014833911480407809,-0.01484092645929558,0.0014916385750394585,0.89
0.19720465387850647,0.04227510576329249,9.785054001014727,-0.002082130901832206,-0.0003821409530028852,-0.012472776982196985,0.9
-0.010659978293407249,-0.18311858062935882,9.81960678206072,0.0025635425529028245,0.010040832243109041,0.0018812574063734985,0.91
0.013626753377427053,0.050243784024340765,9.797363011818119,-0.016624617657118403,0.0036850344773046873,0.007352488821728319,0.92
-0.11111028281993265,0.0746865347031369,9.85588945849395,0.01107859465039392,0.02183365471338889,0.002853487466144512,0.93
-0.016966083185123444,-0.10771813740628969,9.898958742234168,0.007756805098346741,0.0019450268417844786,-0.00692628697690261,0.9400000000000001
0.06678656837503565,0.058543314245571465,9.713325176341046,0.008687746983040241,0.03292658498544164,0.0061079678648397195,0.9500000000000001
-0.19394687457872295,-0.050131351449707054,9.61802291697714,-0.000980308320846137,-0.0006563777735630422,0.02252418764338556,0.96
0.1583036778187671,0.042867121874720415,9.63531647211023,-0.005018117569787982,0.009351502215372941,-0.006375700365071868,0.97
0.006238351658477143,0.000542054019142194,9.729366540715708,0.013988184085616416,0.015931704313400387,-0.012314722827290766,0.98
0.08626903281386022,0.07903729925250297,9.642936098438817,0.023537134255929834,0.01199140092579409,0.006126737522439924,0.99
-0.11182304482136465,0.0946888411430239,9.81786035639659,-0.009859552510616992,0.017140127506666557,0.008533940377620886,1.0
-0.022353563381290215,0.08070019946990487,9.979531166521728,0.0024787774952001553,-0.015845771404437638,0.004615865447749351,1.01
0.11298786952189298,0.05172188435155062,9.758905128948848,-0.01814086282259967,0.0026914426384632936,0.00724070622503388,1.02
0.010525756190827216,0.13005933890101226,9.872483771104916,0.00763442229447893,0.004747306650442361,0.003297612742046085,1.03
0.1647046390489158,-0.18044259925553754,9.84209806953813,-0.013788969264128903,0.010806764985288753,0.007495204511989276,1.04
-0.02483454747522819,0.1036191503536088,9.81647699011029,-0.0038430639388897687,-0.02195937494222645,-0.0004897098480935604,1.05
-0.054617503353943456,0.14682210539084736,9.734524235739224,0.005479273694264914,-0.009066820534558791,0.0022527057738796004,1.06
0.21235344908238815,-0.04620139636696308,9.813746624781263,0.011139827574273098,-0.013747888246946432,-0.009766705350609453,1.07
0.06550473052289428,-0.02336348551085523,9.672018839339449,-0.008688475964164345,0.02079386921965119,0.0005308824627053937,1.08
-0.12566250184054917,-0.14105260556578506,9.831191367209634,-0.0015438588090285921,-0.0008252184421876521,0.006620014054741901,1.09
-0.021035174441983273,-0.16113892295174592,9.791838405182947,-0.004388988382409024,-0.010594234761458585,-0.011904217148673034,1.1
-0.06050627752541596,-0.005278563169179771,9.60112904076896,-0.00025116166623400375,-0.005525289696311322,0.007347813095908758,1.11
0.15854927798252272,0.07262051455589556,9.793724363359496,0.003264557169581309,-0.015501708200028644,0.0035353466427919715,1.12
0.07625352059173252,-0.16390855029305315,9.82510218775561,-0.018139582528074676,0.019394016336342787,0.013489496579913399,1.1300000000000001
-0.18250286869597926,0.2518052289371395,9.798002928648287,0.004041951689772489,0.005166655741124806,-0.005965231390237931,1.1400000000000001
-0.011177366117164023,-0.007102151140913476,9.6657898544342,0.01470567533964992,-0.000837082417860403,0.025610450637506266,1.1500000000000001
-0.01940992058596916,0.20073711527067234,9.716059824375597,-0.010036527609127474,0.01016819287776603,0.00017944994083510496,1.16
-0.1336739713325392,-0.06487870974493473,9.7401094227148,-0.01187630398147091,-0.0002844723650691823,0.000595612324726911,1.17
-0.04876291137990625,-0.21889331569597453,9.911446687394239,-0.008519405813616486,0.01766529485637881,-0.002766981324749641,1.18
0.07004646991721815,-0.11165795138766937,9.80998215575004,-0.006590261362953725,-0.005777507977386848,-0.010865053568103753,1.19
-0.19692647221392057,-0.11133522986528033,9.815168983733443,-0.004405344628628156,0.013510374827201336,-0.005656321550604256,1.2
0.07717076787635281,-0.0005530381754295222,9.787035285360782,-0.001714316794102444,-0.00013046826861701964,0.01547328205301597,1.21
-0.07345445597403609,0.019353410225006883,9.741109579810985,0.012247763426536096,0.01448594908357963,0.001975497238488803,1.22
0.10699179213894575,0.015321293897358205,9.806267127929537,-0.016420784976006467,-0.018223052481215102,0.0007930949899676098,1.23
0.09674734827241889,0.002064339622145706,9.740615058200733,-0.00043594695053823844,-0.0011264150595185606,-0.011982796410860091,1.24
-0.09282550812020877,0.05879642297343904,9.76749437752819,0.005594157378858452,-0.012178198700284845,-0.012273610140603214,1.25
-0.09685891066931836,0.030091571951024805,9.837793367763188,-0.011973319123860111,-0.0008091236608913108,0.0036221989191540472,1.26
0.06766824043015021,0.01746518097520684,9.605775932221889,-0.014593938808010083,-0.010358902508011482,0.005367324732136329,1.27
-0.00018021510404994873,0.035065742658644115,9.814203041881015,0.012335447906815076,0.001437252087203376,-0.002966564014978825,1.28
-0.012604837331959518,-0.046000692802624754,9.822131968735775,0.005806539056186787,0.006875754500109699,-0.01202104520979488,1.29
0.023054255072536167,-0.018902840472464315,9.901455044479095,-0.004863998472932614,-0.017233217650875973,0.017777241530588503,1.3
0.11066233087224375,0.07337642368584661,9.870517785419567,0.009559073461622119,-0.008475122729745651,0.018355452231419198,1.31
0.025555152231907116,0.14445980280486145,9.97737148559243,-0.008425728829211618,2.5548537359878352e-05,0.0009218609244027126,1.32
-0.005389066852783092,0.15447688141852,9.88786041350003,0.0002464882633993523,-0.006230772498141907,-0.011772134572801832,1.33
-0.021584824907794592,-0.07215572199727692,9.845373907014308,-0.003386536872102491,0.010592230994422466,0.014702294880891345,1.34
-0.08603975452121478,-0.04272230604092502,9.7471850484958,-0.01237027443016047,-0.008735428229709512,0.016344930980115656,1.35
0.12193640510201108,0.018207672466498428,9.598670026888907,0.005714761320951017,0.013352397499409434,0.00783738086939287,1.36
0.022869522821250154,0.07002740082277299,9.84674046202026,-0.006243817264396976,-0.019079957509609488,0.00832285792025236,1.37
-0.02256962658266183,0.01484161692323697,9.81655624979256,-0.004596670489449887,-0.0006295703946474427,-0.009329297366834273,1.3800000000000001
-0.21934202123472618,-0.04497641699874523,9.849708709829102,0.015714947308817617,-0.0012551811285414962,-0.012648001852400241,1.3900000000000001
-0.03325863102442112,-0.0027182868117413077,9.706463579770261,-0.0015902552598714144,0.0006609311940739307,0.0046484595780002845,1.4000000000000001
0.06597091844299224,-0.04860517476780667,9.796925337228462,-0.007142579954706937,-0.0038713519992612743,0.013427805745741291,1.41
0.16653062405317465,0.03128423162901424,10.03852406335288,-0.0023131625539962934,0.016756392606531795,-0.017523953795847775,1.42
0.14800055845451748,0.017706077208033227,9.769553848490185,-0.014028907954727865,-0.004648503020808973,0.013743121995960752,1.43
-0.04739528049865782,0.10586591565371438,9.681577833151218,0.008830564131310172,-0.00558192311749308,-0.0069260873451836855,1.44
-0.043857865502628234,-0.14700787536579907,9.70024683832825,0.0027502310896619898,-0.002279827571012716,0.01674709136277614,1.45
0.047612683641999665,-0.1375355182556554,9.904972627006106,0.0012695630614841375,-0.009498237613760672,-0.014895655196944533,1.46
-0.06537599765870193,-0.0215973883750271,9.761156994111486,-0.006720331267122769,-0.008335975525147057,-0.004200405464011257,1.47
0.10317452119641071,0.21436649416924364,9.770841342850005,-0.012499588463522093,0.009013902192765886,-0.0005163382741703661,1.48
0.01187164088532619,-0.07751742009862747,9.775246776939532,-0.01243809711722207,0.005848642739146558,0.00030757745739718736,1.49
-0.08399066922389226,0.19252098657462655,9.939086818917682,0.0019759857190798434,0.0013501274532861421,-0.004471443107172513,1.5
-0.22750004060625814,-0.05623771069339533,9.807070030429731,-0.009447690385754633,-0.02042136741024715,0.020243584962298486,1.51
-0.14685044716781132,0.08117505375553011,9.735109284838238,-0.006753950175240743,0.006166563944418861,-0.007885521173549076,1.52
-0.027237597587637177,-0.11694699416599297,9.838688997654787,0.0010077610086967877,-0.003053622098602153,0.0038905969539771716,1.53
-0.03705776668549199,0.09632066800505812,9.741060671317511,0.0042798055791427835,-0.0015887610037240705,-0.0017467321145992415,1.54
-0.175963255877721,0.031850725988230626,9.907063965951307,0.010544766451427249,0.005965821267451967,-0.0005948108395956745,1.55
0.1611766808631808,-0.10111499856880278,9.874888617404778,-0.0057691611899760575,-0.017037487686385296,0.011370008517094899,1.56
-0.022600496143920252,-0.059616194299127116,9.750342536814657,0.008429516879594886,0.0011904331883651879,-0.007533317330903038,1.57
-0.13715033603565216,0.06566436616797823,9.66584041393789,0.0010635147002677904,-0.010138270507343495,-0.0009931827213330922,1.58
0.02247979649827861,-0.1660095559362393,9.59099923584435,0.0013703928605757537,-0.006751767782823401,-0.010898176502103285,1.59
0.016148682988908116,-0.11841772547703555,9.923026317480492,-0.014090214944727869,0.0010044785262908417,0.005416198635736957,1.6
0.02435614396462705,0.025496960323997897,9.822225288843587,-0.008728843432166629,-0.009994423378077223,0.00010983910729028872,1.61
-0.10443222958866374,0.027209311614613402,9.681793437404863,-0.01371667930351754,-0.013457926018925493,0.004548461393813886,1.62
0.03870278786816023,-0.050136954336921294,9.709787360603169,-0.00477340054720088,0.0229278473946249,-0.005114985213319608,1.6300000000000001
-0.08730676371335697,0.006662750352854425,9.81424962376647,0.0038925649353968904,0.013557491565263232,-0.01962703907371652,1.6400000000000001
-0.1467237320749748,-0.0966297533311451,9.64324047420099,0.006075596272225588,0.006103837492347565,0.020470754745711688,1.6500000000000001
-0.04659367897301216,0.06358605067512017,9.696797791283887,-0.0029340384624033013,0.019199096875938595,-0.008250633715811653,1.6600000000000001
-0.16122239479152833,0.07592433697715653,9.816375085429566,-0.012695876239104937,-0.008592377263154047,-0.0024457608775778693,1.67
0.004699242068885205,-0.0489030703033325,9.69325155479407,0.013432600415785903,0.004950679107302905,0.006770115550927063,1.68
0.08921458458397322,0.04066965221351483,9.813153571188106,-0.0004992523669400577,0.0015309958681841685,8.556216512929937e-05,1.69
-0.049800495057807016,-0.2356903753295755,9.881269449622868,-0.003526546224366707,-0.001438382610992471,0.0021842595627242643,1.7
0.006258738518965162,0.08112841622809525,9.941592296080728,0.009783527087572715,0.005180469914505595,-0.0037396358112828064,1.71
0.0842042046339529,0.0966293988821935,9.757968722829075,0.0037923974846691233,-0.0005031975859456669,0.006723744481278338,1.72
-0.08323874648164328,0.03664550501573326,9.769923422773067,0.0036677550837827012,-0.012812960143153668,-0.0059880089719318635,1.73
0.02013076757991673,-0.11778645394300556,9.68010845114572,-0.010741081065901312,0.004121407395609785,0.005372316209410763,1.74
-0.13221853151953375,0.10572308060043976,9.839192575103743,0.0031539285115134105,-0.0017530311702982576,-0.010926644055171311,1.75
-0.009968257828809432,0.04517175415232305,9.904694230731147,-0.01283130494038329,-0.006161238398841325,-0.0061262441845916695,1.76
-0.16786274365386905,-0.07039784358149458,9.632856128026377,-0.014241677805508937,8.297597422112464e-05,0.007085012829982817,1.77
0.16853381426329614,0.046663339227492856,9.894033432440057,0.00730111264315385,0.0008081577991135296,-0.015041529500969384,1.78
0.0005129667702482706,0.1700785413157007,9.914199919526206,0.010816963659483174,-0.005581313150731162,0.0022005526791269766,1.79
-0.016595544344958316,-0.05124867154187432,9.648989266756708,-0.003482489119191731,0.007802253370540136,0.011671842833710906,1.8
0.06698541958828123,0.14496890788210667,9.931725719791434,-0.003246065921501021,0.008330878689196053,0.0026790371262596863,1.81
0.04369639669447416,-0.09299090245833469,9.95151402359136,-0.0036549521910739574,0.006347030883003282,0.001673630872079638,1.82
-0.06602176179256466,-0.034613716755438825,9.825297607218527,0.0026775643385334776,-0.013475262856759925,0.020733001950374454,1.83
0.06626153445445603,0.046206192362150816,9.785341276459391,-0.01514211507249457,-0.003906469385446409,-0.006417338485518984,1.84
-0.03911685839516767,0.010556419047456623,9.877265649699437,-0.016409912053803797,-0.004978657665933543,-0.01577926187472126,1.85
-0.20701315893793704,0.0764679735259094,9.748781384693487,-0.006524772475177767,-0.012601753773106886,-0.006344902169314425,1.86
0.17433591432071682,-0.026528614539928302,9.912661853446606,-0.002182119749206693,0.0031679289980076873,0.0018577473268038284,1.87
-0.11245229782243482,-0.05041664572368895,9.765706487654084,-0.012923025673297546,0.0031014987735067108,0.001803177562567873,1.8800000000000001
0.10991243513556355,0.2358861958900972,9.824236023183177,0.0016965857393992931,-0.0011910366945332722,0.006046248151524184,1.8900000000000001
-0.167130183093489,-0.06937582281360623,9.909924823148344,0.019042327352393324,-0.013977080442913944,-0.004767861131764152,1.9000000000000001
0.173453437494805,-0.03150161203979629,9.639134024449604,-0.0007604329576160344,-0.01256995660065582,-0.010434999548721555,1.9100000000000001
0.08176043135826683,0.05092991026257565,9.858952864869671,0.003721799612241907,0.0060999403776265775,0.0028314274008633946,1.92
-0.0005817390047784136,-0.12557919185735567,9.842071585503227,-7.068409334287918e-05,0.011236513883292847,-0.012282369857897563,1.93
0.19371107065876425,0.07800983167834628,9.792907073585457,-0.005395919086326975,0.0021769757065184616,0.0037009857786879275,1.94
0.004668810360132712,0.16028434638600128,9.632202836724943,0.021781698833167443,-0.009412442191165585,0.007048726188481641,1.95
0.2619908187032158,-0.14078903406431018,9.872094804870036,-0.010062329568918631,-0.0021989316752388773,0.005577761885033742,1.96
-0.0992132010757264,-0.01717954107160003,9.743559181856964,-0.005970308037372294,-0.0016104557438425524,-0.002235736199525655,1.97
-0.005363386387902677,-0.03837969239764402,9.871302761278745,-0.008178609023265759,0.010432715619881017,-0.01046297529201036,1.98
-0.18455309617150825,-0.0027962680562341174,9.851626163134004,-0.0016399431333108888,0.006827191768713519,0.012510732977713759,1.99
-0.015372564542915294,0.03321529571714862,9.655818339878536,0.00884079351522868,0.015733961397924177,0.010810052997979094,2.0
0.12654104265106964,0.07739859683753941,10.00204600905898,0.003722483890221982,-0.014368819473165371,0.007508384665733587,2.0100000000000002
0.05900078644628065,0.12870423760775132,9.949615280156637,0.0015268775414073363,0.01125061679147933,-0.0010431230656949336,2.02
0.06764780943465838,0.07845240137035908,9.958244625222022,-0.004635004716789826,-0.006514473215977049,-0.0036503372436211936,2.0300000000000002
-0.2015880545685895,0.050302857752382774,9.72350817906876,-0.004281004883376389,0.0038562735925524606,0.010142633280793385,2.04
-0.15244569074056144,0.05117944327583343,9.64045294591831,0.004961727237062093,0.007108768629388399,0.007687956478789972,2.05
-0.02542113889235952,-0.009208837296047535,9.627505592245019,-0.0021753302394828694,-0.009220246565182636,-0.009889250439005936,2.06
-0.09421382875812602,-0.04181586196185701,9.771909097015861,-0.00990488693038511,-0.004166825427379471,-0.020395620841022505,2.07
-0.15307371587562638,-0.09877560920957257,9.89208933663123,0.007398188725102074,0.013693020233627885,0.0017902791330818358,2.08
-0.06282456642357333,0.002873362391235139,9.790900573375135,0.00862621107015356,0.003933553754424034,-0.012732923220404457,2.09
-0.03675307026137921,0.09576988660779914,9.868292733737977,0.018583545131435463,-0.008257402737177877,0.008866376144260781,2.1
0.0003942101314630812,0.20288169983341053,9.780994424518765,-0.009465169697556354,-0.009109380403833462,-0.005656447306390593,2.11
-0.017438475215565637,-0.013455523167765491,9.85460939125865,0.006991140046337678,-0.0005722478825057907,0.0020276426518331964,2.12
-0.10040904756785447,-0.11467104220502329,9.87878982963214,0.005574829630157286,0.015406346834625948,-0.011486343797606543,2.13
-0.12885975184388404,0.029320137081486588,9.690858755054458,-0.0009839980793707422,0.007914706046909688,-0.015642685000239152,2.14
0.02468585687880577,0.03531170734567596,9.899373890164583,-0.0067695106667907635,-0.002092147110304227,-0.005560174934460731,2.15
-0.02644169508918928,-0.023617887630012352,10.020501839012073,-0.01978382686570274,0.0031394429372974793,-0.002912213418895462,2.16
0.05342615982161008,0.17963952649431797,10.02774583103384,-0.016251723877031363,-0.0030852132608082724,0.029933444896216514,2.17
0.04099563297213609,-0.09717102009269805,9.798535293283903,-0.005189499574286255,0.0075635312838174575,0.005117659127266465,2.18
0.05659373879639808,0.199451044208104,9.990821693515558,0.0004182000821124161,0.010237253873275825,0.007776157927647388,2.19
0.030985477307185823,-0.10002679863594695,9.862679207161339,0.012406195081040119,0.011510906657516126,0.0029190575548149046,2.2
-0.024953386407946875,-0.031365939053715756,9.756567480989284,0.014788077929243526,0.002630843678029686,0.0005962173585852777,2.21
-0.10285072270783205,-0.14796230978021013,9.773869248581084,-0.016088051720277767,0.013678456920671678,0.001834027489276099,2.22
-0.03085531040233352,-0.007810014899092572,10.053396367837237,-0.0066130477849946365,-0.008696141013407236,0.010203518748248035,2.23
0.001064022417635292,0.24932653602344643,9.625436664831355,0.015266928175333948,0.0047884245300373095,-0.00427360354203692,2.24
-0.08937448815505772,0.002957681440699568,9.873244833350501,0.008179583065690306,-0.0030991364816899142,-0.007849696970647961,2.25
0.1158706769734208,-0.12774760178900166,9.743420409975329,0.0029153302900072633,0.010362086670117647,-0.00978502233005177,2.2600000000000002
0.07513175464125557,-0.059778805138594085,9.715606045526773,0.028828741863595977,-0.008107216694892009,0.006735653632868986,2.27
-0.02358507378979312,0.03706151582706405,9.879474633811547,-0.007355379920428827,-0.0010954132333393716,-0.010351212295964692,2.2800000000000002
-0.166783624370193,0.11726430426369475,9.83817554999435,-0.006513253444126022,-0.002701985821789967,-0.0009752631907482379,2.29
0.10862877652280245,-0.042762931954072374,9.714413180950787,-0.016794169662794674,0.008437811658194402,-0.0014974363426804068,2.3000000000000003
0.08037497080266304,-0.013815788753475942,9.741626655403508,-0.007403837296802247,-0.0172892537385132,-0.0065898399863653714,2.31
0.11083435906862393,-0.029359739188860513,9.790280606681115,-0.0078965966960113,0.006677503198851999,-0.004480028279500458,2.32
-0.06907616871487297,0.03738512466711055,9.643039578117481,0.006320443330452692,-0.012806951968612534,0.014210386760960122,2.33
-0.11769295144202024,0.021549870548981775,9.648257472064929,-0.002669679788584369,0.010231451143352926,0.009830011163201867,2.34
-0.08341665604243255,-0.06384421252279798,9.703871881747817,0.012146814003897307,-0.0030092771877135716,0.00502922094936616,2.35
0.08923230616005479,0.16574215382546348,9.826032591833844,0.0021647030052675824,0.00440164483360859,0.007611558105676212,2.36
-0.07519693951644003,0.06835010847586337,9.860252407811041,0.010654429234562186,-0.004587562882052771,0.0008005174639482415,2.37
0.13443445933695483,-0.047317310270613214,9.70058726821865,-0.0012147933293688241,0.002421605311598519,0.011882188010898794,2.38
0.005126550246759986,0.07892131259060824,9.619644110522685,0.008459145457016273,-0.007409525899862566,-0.0027652818962850944,2.39
0.16248057727355705,-0.079741055762638,9.718387394420278,0.014219505633341215,0.002847455741673477,0.013808761779135599,2.4
0.06765891942328649,-0.012891234209988412,9.684012152624797,-0.003459098147292237,-0.015918517261489518,0.0003891523560435307,2.41
0.07831649153313049,-0.0125560356395614,9.939870881192283,0.014877617012651775,-0.007699140724363664,-0.0042097389892638585,2.42
-0.07948231219209947,-0.05110919861180238,9.806807978377575,-0.0006753252322661735,-0.009936032338228531,0.0111708384503781,2.43
-0.056013672674851994,-0.06558785204578668,9.930894056905995,-0.003414125366432275,0.0009527290018984657,-0.006410227483901345,2.44
0.019075821759217838,-0.1341822038978336,9.77620989900258,-0.0026618221966956653,0.00899108708331461,0.0018155356491490143,2.45
0.014504553561952483,-0.14070385777721778,9.723005991612053,-0.007759309386788204,0.006035084472027695,-0.004378304109347559,2.46
0.006853506849322202,0.13652338025989583,9.639474134243647,-0.0041694013384703365,0.0066686843275447286,0.018688595259183677,2.47
-0.22425287267296087,-0.08269228890671781,9.860739161459678,0.013271294736615487,0.010868788915709023,-0.017647542791339222,2.48
-0.022111227019631155,0.07911610406391689,9.929525689324308,0.023981910459837556,-0.004231805152185943,0.008130905911594077,2.49
0.03474290616330799,0.08661651363331647,9.9012581541415,0.018350920283873546,0.00869219461215135,-0.0011748547068126684,2.5
-0.019327780292758966,-0.04924288389020526,9.665891256957584,0.0051259039139660775,0.007109650647948199,0.005543928316909295,2.5100000000000002
-0.03454762381336595,0.05968971665916986,9.783015436901426,-0.001461562758427339,-0.0026073056581136502,0.00336731300285674,2.52
0.09847974156414184,0.18359667134756352,9.86181262431435,0.01217850557860525,0.012893825317462007,-0.012199706189644362,2.5300000000000002
0.03435377006464551,0.04709836152478399,9.658219585496996,0.016823888594823696,-0.008473993894500348,0.01741415641405863,2.54
-0.12925575220588487,-0.06645003821842774,9.818659600343265,-0.005854537132083182,-0.009397500962202794,0.008941573843866898,2.5500000000000003
-0.02073419337792992,0.0940201419474997,9.601490193687663,0.005504724057736219,0.006099973695574713,-0.007574536724301565,2.56
-0.12300099917896208,0.03217949734840294,9.798136411717715,0.0021536089417849343,0.023575478227157182,-0.013960735111183621,2.57
0.04567796430741955,0.10585335092322552,9.77336930356996,0.0010559791636903485,-0.013035919386575685,0.0010492487426044426,2.58
0.1254891336933265,0.002966086179859592,9.913562771761288,-0.0024162997691625286,-0.009389261779814565,0.004338194371799824,2.59
-0.06966406384993401,0.030260984647027755,9.74884822715218,-0.0019727257719385737,0.005131714918089877,-0.003946426454641691,2.6
-0.04360503387682643,0.20918400898187253,9.77000734242807,-0.004947033758550711,-0.018576819777088763,-0.0009915145351014206,2.61
0.1381300859469416,0.07894455978709533,9.799631245501464,-0.001003589242911532,0.011737639304057981,0.0033115548872751045,2.62
-0.05200535857871108,0.026677423657206486,9.721952376170123,-0.0062352013344164695,-0.0011916299759664791,-0.0023058366537343127,2.63
0.06226076119050159,0.1349856102480127,9.80112377435304,-0.0006055638241955986,-0.0010544471897996916,0.015594110676418476,2.64
0.013234292837921572,0.08539164251972228,9.922547892531078,-0.005999948310501907,0.009458538327853584,0.006200445628163584,2.65
-0.1654470287117951,-0.03679928086167894,9.95719413378634,0.0003435698820458447,-0.0010360049711534477,-0.006477846437820409,2.66
0.06928045279026465,-0.04870780141313342,9.946984441737335,0.0005505377593004673,-0.013393872305695583,-0.0003787817676218898,2.67
0.2731387937425067,-0.0004546093208522578,9.548219524767319,-0.018424242017289576,0.004073453648214554,0.010783720192937819,2.68
-0.1712402144155153,-0.033830989614791175,9.864850774487843,0.0030431073014342692,-0.0056803795651383686,0.014798293556833942,2.69
0.06769324747715512,0.012350998264591939,9.72146894446167,-0.001192837233072402,0.005231906719910422,-0.0011825098239964676,2.7
0.013812137589614266,0.1311790552245265,9.902426660229894,-0.009750105693912868,-0.004058864276278293,0.02423121151012079,2.71
0.08623488540461297,-0.05908667228687904,9.865412250015023,-0.026188301374880037,-0.015421716884881602,0.0045665138749230935,2.72
0.14061727949710667,-0.006561843600264565,9.88530455645636,0.0050878883331367565,0.0053222284937272666,-0.008454525121808606,2.73
0.14995685404597198,-0.08252222211588858,9.910781911586266,0.0018622278149558276,0.0006643965825082732,-0.012578086783493116,2.74
0.0074241676481708214,0.03935349319702815,9.801593164379403,0.009181597255595092,0.028776706213065394,0.001186861719494704,2.75
0.19428409774384117,-0.054234775194384466,9.802793538497081,0.0027108021104624543,-0.009656818581942995,0.009286587652731215,2.7600000000000002
0.06736714212535681,-0.03745736022904007,9.776759884980043,0.00784456181583052,0.005606647532107397,0.009767736079854726,2.77
0.01970912746436909,-0.05227390523429624,9.821033084354571,-0.01577167633554877,0.006515556256849536,-0.011924039161451183,2.7800000000000002
-0.01806240684905144,-0.06032516432259778,9.826003656992555,-0.016640244986086145,0.005723991645006329,0.009882263619942171,2.79
-0.10627325509873463,0.24676522005138568,9.634506825247195,0.005225284614227498,-0.02397479133254083,-0.017897159663673837,2.8000000000000003
0.0598154059973832,-0.142556885379557,9.765223088485676,0.012757037963322676,-0.0031948760293625633,0.019181236614983638,2.81
0.023253689520536358,-0.03863980804234515,9.713396083985629,0.000608970146569092,-0.005828661958088664,-0.014641462285571472,2.82
-0.007831113482519225,-0.18143398644154532,9.730617970383838,-0.008682327583045183,-0.0031937857386008586,-0.011323177455168743,2.83
-0.07346869602347515,-0.0375654705699838,9.900461826765381,-0.010740341259205864,-0.0013930079188545564,0.004807742699247591,2.84
-0.10291342576489876,0.0301867322704372,9.755038339690369,0.008696546131348971,-0.001012325296539324,0.012960241678306355,2.85
-0.11615936262879994,-0.0754411420292643,9.889902542780945,0.0044043878921762045,0.007456160480313824,-0.00803445035317225,2.86
0.10068582003069144,0.0367142083991428,9.844273028180455,0.002483555457581837,-0.006883733676526844,-0.006770874756147591,2.87
0.02552493475707962,0.05438128089992583,9.854867797150979,0.006431154930295287,-0.011112965106000065,-0.0060882570371613084,2.88
0.07679921186112498,-0.20870791336119973,9.691172789941161,-0.00048365566833808755,-0.0032815941893246663,0.005037593096988341,2.89
-0.04548262466335018,0.0012738896546593322,10.023888732895726,0.012649432262595475,-0.01313112462543293,0.003032644280969508,2.9
-0.07515794943305645,-0.0036049750310161374,9.812126660868417,-0.003748897287798377,0.0037585940619049604,0.02323577262569968,2.91
0.1442103331795846,-0.11450931347769609,9.70346287664553,0.004376880043946142,-0.01106683593304089,-0.013149026725666991,2.92
-0.07480162962545249,-0.04909121556917148,9.719759087972841,-0.001842203107483457,0.0054505369293589975,0.013060671581444814,2.93
0.09258593016660649,0.02957956175787016,9.787736725023615,0.02511330673496618,-0.0016916976847523428,0.004281799654757474,2.94
-0.05866501376270559,-0.046538898252942766,9.876033094741588,-0.002299538812195198,-0.004267630849013002,0.0028932525187715346,2.95
0.041145249107112314,-0.05427432063742099,9.932933561979304,-0.00375879126099803,-0.000943321133771308,-0.005276347115469248,2.96
0.08602344549064025,-0.12040805553852199,9.807920891175478,-0.01656225248356776,-0.003370190075078065,-0.010602046462656953,2.97
0.108384180112995,-0.10196899789599104,9.738073822755743,0.004906365525496542,0.0022128945474951586,0.008028381349459927,2.98
-0.30338839568543197,0.0032514958753016945,9.852458843706438,-0.011350830873572176,0.009894107518892805,0.008439997148182983,2.99
0.06822755174468685,-0.05633318487970558,9.939240244817368,0.01688567269452046,0.010136898838830259,-0.0032390234327757603,3.0
-0.09422167610552759,0.10724102247523498,9.671224092918157,-0.015753551911038458,-0.006719360726515438,0.01498324914941074,3.0100000000000002
-0.08749739179518762,0.044356484495974256,9.55018790339232,-0.0205115589846418,-0.006772755363586712,-0.006625940071879756,3.02
0.08157203868988819,-0.06696442306273444,9.995915425290539,-0.013566320053617204,-0.000988395928291258,-0.007400732680615119,3.0300000000000002
0.020556361004398043,-0.04630507876708858,9.779631586115542,0.01649614607530324,0.004629132852103082,-0.00030740316963578414,3.04
0.023695273590237553,-0.006479894282305694,9.789869718883086,-0.0118294959199968,-0.01293196832608772,0.0014554924470167557,3.0500000000000003
-0.07316564326626021,0.0901052384021884,9.924500053015846,0.0034075815308049024,0.007411570158168894,-0.011274234577129717,3.06
-0.027816785408364037,-0.059150528641532654,9.835637943472639,0.00796939457609984,-0.004043486339137051,-0.010491018791971323,3.0700000000000003
0.005542772943671175,0.037836236941655645,9.6935257983306,0.006888377473103406,-0.0020191661562616275,-0.0012289075150275113,3.08
-0.13231102869821323,0.11475904788724356,9.695930654480529,-0.010462765536015184,-0.006832976549449491,0.0033297669289438503,3.09
0.0168910129945737,-0.19817869939944582,9.761113893551297,0.011066056752626237,-0.007025126673579051,0.008604923714974606,3.1
0.16572667337750957,-0.07895947776129338,9.807817597487967,0.008877836177707925,-0.01020227769418543,0.0011729206936656642,3.11
-0.03801588468882417,-0.04651693149650224,9.82688043750472,0.0024165816565747487,0.021450317802209663,0.000235580892509764,3.12
-0.16560490692224908,-0.04917340447370472,9.897027472452585,0.005694764820023726,-0.005135998682306349,-0.005719204106540366,3.13
-0.14921620480477552,0.08783937620688387,9.892091503038808,0.0028273588292945418,-0.006208559340248236,-0.0018409700836528912,3.14
0.15090896966192227,0.0762198240887613,9.780075719585762,-0.001315222050319616,-0.005401087166459917,0.00994336382221179,3.15
0.14833991238148897,0.06418343449438668,9.853010651185114,-0.0017015581309128634,0.006699978375275521,0.014352325142085712,3.16
0.0014103107655377368,0.0830904383165497,9.835608832106747,-0.00016049561318883012,-0.0056960868758018715,0.019807125851632277,3.17
-0.09711658741334091,-0.029008676326322914,9.69231810032756,0.001559680238860079,-0.0006848968488518667,0.0220402398724656,3.18
0.022949519197470156,-0.07228832717041181,9.756816912249457,0.0013771825047380784,0.0014071474389880146,-0.009215650735588936,3.19
-0.01915767687807532,-0.02193749851406686,9.677523911817834,-0.008096631475189377,-0.009193274387590813,-0.0022665391043225577,3.2
-0.012169356465981235,0.14228955664400061,9.819116974610477,0.0008157129436419316,-0.008020883967673573,0.006611880795700211,3.21
0.1714117543715785,-0.019003657487821828,9.857004021330432,-0.0007131858633683922,0.016449589118600293,0.01656261128934719,3.22
-0.03265574223654696,-0.06314194893465087,9.783213936116493,0.015625475994726374,-0.009941989017757254,0.022262989655596952,3.23
-0.09851016284568258,0.14474447315961264,9.837390151115633,0.02241102331075508,0.009962209462843288,0.005616159433394227,3.24
0.09439822057022966,0.05982625524344053,9.87102689368442,-0.003170830412537196,-0.005881322278799605,-0.0074158820406494165,3.25
-0.0007268812114940235,-0.04623916916496797,9.807845115185165,0.006000634170669381,-0.012067536639785707,0.005713076047392243,3.2600000000000002
0.002481291463976746,-0.0248151994947485,9.926578337620253,0.014420912884093218,-0.008382834818923435,0.0073269732492258904,3.27
-0.09744196465688124,-0.1274167976221607,9.797866100736398,-0.007942633383470784,0.0033923244767179533,-0.000762050030185,3.2800000000000002
-0.0241628975837396,0.02075453736137204,9.823947169805603,-0.018878249491315034,-0.00924289050185557,0.0018568582557015201,3.29
-0.050755779624680634,0.012536319413729386,9.7239234254221,0.031467960038233954,0.0033721987824160944,0.008779426432498814,3.3000000000000003
-0.046295874331906024,-0.007309250137065803,9.7457285655427,0.004275280427135538,-0.005034365137362922,0.017706125395570753,3.31
-0.042566418585965764,-0.04382960825314668,9.998868302696158,0.008217474202828477,-0.015888995546014174,-0.00012784449888502905,3.3200000000000003
0.06530803885536922,0.0512625516782686,9.836633862314683,-0.008924254935991706,-0.006204432861696754,0.00920692208107801,3.33
0.06106966408773004,0.10904344908396107,9.818505039491445,-0.007880158725678698,0.0006990097475519354,-0.010954915910348185,3.34
-0.15864208668259921,0.15609008682687128,9.86145481954821,0.0100281434808619,0.02097654196207473,0.0040206043208709605,3.35
-0.014906208278208917,0.05062488361113911,9.87334843883582,-0.013949518805437338,0.0016356555423005714,0.0057451351402595455,3.36
0.03449205110141898,0.007579385891109756,9.871240912307329,0.01574170464615866,-0.0035564904688331982,0.011066724464028411,3.37
0.04530067441726457,-0.046249893476418176,9.774495605418416,0.0006538537424175733,-0.00477382658895329,-0.008035599099235794,3.38
-0.12452744075022233,-0.1418418215995648,9.75906832552988,0.0007492681536185198,-0.01889864380652174,0.008250571667581016,3.39
-0.08705237174357539,0.03756421870389522,9.724726425402844,0.017412051911008718,0.007833995952232418,0.008032374028921506,3.4
-0.025253093615653095,0.037401083999418515,9.879932519108925,-0.010429753688110029,0.002839501910550151,0.009183566975375968,3.41
0.0812400463509388,-0.022904053820041508,9.63878184007169,-0.0077346573948859345,0.009846558763720141,0.006538387997052277,3.42
-0.1661102686853422,-0.0181387102869287,10.013604409137491,0.00036107847705670146,0.0005801664278146199,-0.009948263816635099,3.43
-0.041355751783370864,0.22042139049677353,9.834638627632888,-0.013015103577724535,0.011961486074863054,-0.01970257547324105,3.44
0.024885921670474386,-0.06127010372313954,9.693962236189988,0.012243468860393547,-0.0016908585762157899,-0.00979214574950858,3.45
-0.17430532778536778,-0.031175379644572572,10.051722715723548,0.009063910512511176,-0.007729795969411828,-0.009696004462252468,3.46
-0.005514786368944325,-0.1393717082893706,9.816808277963977,-0.02498011613909779,0.001162086200093006,0.0012378311689991404,3.47
-0.06738553754494242,0.053443284398573924,9.934278029501748,0.00845137323939193,0.01299788216646945,0.005444429420513319,3.48
-0.004398061875970269,0.14071552995168288,9.800058900574918,-0.01150845313415025,-0.005827890705151877,-0.014727598140756967,3.49
0.11948507787903027,-0.08698104854791805,9.694542227471329,0.0035811466902437796,-0.0030333254100868767,0.0061390778872640085,3.5
-0.10452262987629289,-0.06260650236959807,9.817926185435446,0.012481921218106888,-0.008851579811208474,0.0031488374226471185,3.5100000000000002
-0.020305034113903612,-0.04036848984602555,9.902609236455572,-0.005439848491097482,-0.004598205139061745,-0.0048758014963317265,3.52
-0.05154412960499767,-0.04103153159634792,9.757265190290111,-0.02082546475448767,0.0013886726006676665,0.017112496670831145,3.5300000000000002
-0.04777147116708106,0.09158838230293587,9.75723448092422,-0.0021270491832740485,0.003483661956571446,0.0034828414111151514,3.54
-0.021093224911444435,0.06915515986151063,9.98191586374689,0.01419054963677236,0.0027179800018748766,0.005470555354355543,3.5500000000000003
-0.12164724123094757,-0.008902744837194623,9.721867426663682,-0.006690158506610017,-0.014366451148867615,-0.006783464181908299,3.56
-0.12352870126183516,0.024616148568623965,9.788509887066116,-0.006551134695002648,0.008234075557044467,0.005239553652935642,3.5700000000000003
-0.08069991257416582,0.0474419573120644,9.583068923375412,0.0028233196927090233,0.004318035245782603,-0.012833000630402396,3.58
-0.09878722177068339,-0.08836458977438184,9.830262481178925,0.0051304339634106145,-0.003706150656088192,0.014138656295614177,3.59
-0.07752606464043085,0.03937324283910634,9.908672864147785,-0.0005595356415976264,-0.014176332157829007,-0.012540728973842095,3.6
-0.04144991445707681,0.14762212653965492,9.780005535127154,0.005135948445711295,-0.008370795371165916,-0.012881231994359322,3.61
0.00041694860778139216,0.1561998768470394,9.728613193301365,0.006065429543881031,-0.007802277599325821,-0.004133855566858462,3.62
0.01440423838986981,0.04039970049528802,9.717666964217768,0.01265514059957009,0.01453863498889075,0.0003924030880989523,3.63
-0.12071735707424913,0.09220857552447773,9.766635323926128,-0.009249122279447361,0.01538056521949484,-0.011979961891378016,3.64
-0.008650528830007847,-0.19750315108676467,9.688294835380399,0.005756253918833082,-0.00898750723005754,-0.00838633748735971,3.65
-0.04375085157388624,-0.0099290233092698,9.716211667460108,0.012687330893030941,-0.002178762651756512,-0.0011870899126162852,3.66
0.14945793890775372,-0.07516525394797027,9.904453135478452,-0.006181743107862442,0.00977518128541467,0.018797931613436625,3.67
0.03230859493307829,0.13013853067434294,9.719517810280664,0.016937020981855646,0.003809991066426773,-0.013471373062479862,3.68
0.1603428687384806,-0.1534236486763155,9.914607910529076,-0.0025805076898896607,-0.015982976423674876,0.00494950792470482,3.69
-0.11362283813142163,-0.05839806529291766,9.997833128018257,-0.007707888981620585,-0.014768351987115765,-0.007833560380445328,3.7
0.16706628524814587,-0.14568663846282287,9.66207865849789,0.000669663965533514,0.0020011225100891724,-0.0020143407607554975,3.71
0.019766572291148494,-0.13225886590310978,9.626313256427025,-0.0017614280162042523,0.013447478782760845,-0.015309280319359858,3.72
-0.12025660437228614,-0.17439250439040146,9.927183582905737,0.0038343905329286825,-0.012127594528064427,-0.0027737146990322744,3.73
0.13364063745752403,-0.11629080535342139,9.758957154466314,-0.0030776342847941064,-0.01384336011997327,-0.004817592810178859,3.74
0.015131330625765285,0.0793397697149706,9.880391327512678,0.011208726992990492,0.006430246144014882,0.002658415266142668,3.75
0.022182396458882096,0.12007266648902473,9.905389416546585,-0.0065259086302847805,-0.023084764350104106,0.0008704735482343568,3.7600000000000002
0.17316172921524534,-0.02137270301680945,9.819097335861155,-0.00136088304116744,-0.009035236255651516,0.008509850374088976,3.77
-0.17674935124885374,0.10741712539612716,9.885493056829436,0.0011869232012676235,0.0008958065850629124,0.019502438776269518,3.7800000000000002
-0.023804298286814747,-0.09296796067592632,9.6750645181925,-0.0010783813852714662,0.005266350378103738,-0.003243962472564473,3.79
0.0663056319093806,0.029136631739698188,9.783887368315817,0.006447277614624756,0.009331034067294953,-0.003862078957855644,3.8000000000000003
-0.03226693141391482,-0.01853875932589987,9.920977869006709,-0.0034010368913017703,0.0017597352368594397,0.010553524164538863,3.81
0.07001838233069622,-0.0586134864723379,9.642503641325066,0.022899514175687287,0.002914231781943426,0.013161438644486656,3.8200000000000003
-0.0763586947732021,0.06374412504349725,9.742012157293315,0.016947576930813838,0.012725006908272917,0.003529132413736761,3.83
-0.13693493729634473,-0.03254327452305994,9.708396321602702,-0.013375270798066812,0.000747488758880339,-0.019887997337021814,3.84
0.06214783884922534,0.039410207360368335,9.93786597646776,-0.010584587636611353,-0.0036844159638418413,-0.009878813996979064,3.85
-0.06676502063742656,0.025276114114366328,9.861284634080375,-0.0006573572755293631,-0.000838841776027938,0.0030560788540641317,3.86
-0.041010862700400524,-0.13966806720552888,9.684976366618331,-0.010497897946566604,-0.006943207521844363,-0.00736457297046921,3.87
0.11795800870673499,-0.019004783623569308,9.996715650283912,0.01648027384010817,0.0032638593555337704,-0.005070910533913139,3.88
0.09192601911540799,-0.01783132998310787,9.713782689973838,0.008397509889921904,-0.0017543035870343166,-0.0009570357131349209,3.89
0.020733565670493174,-0.13256467921445111,9.789431762739573,0.00574739405459354,0.014918504513005278,0.008761503600827232,3.9
-0.040477636254694464,0.02113019633268049,9.82308196056539,-0.008464185957137159,-0.000581286484719508,0.01753651063874069,3.91
0.25410118330740644,0.13682603842061014,9.8320018807849,0.00828822450052092,-0.009539836262170089,-0.013033729456814233,3.92
0.07131504688724555,-0.09006521232052324,9.99952900732644,0.009067763963755318,-0.0017173804555195428,0.006868042184922061,3.93
-0.06447769779827496,-0.006050280525940539,9.834453053558196,0.0058936471728706745,-0.002272642661612523,0.010558587814079852,3.94
0.03772737435603699,0.052205290202883406,9.825773150743608,-0.03112488852751057,0.004879743929901608,0.0028751278038846337,3.95
0.012349908574980344,-0.0933522970198745,9.832506019314854,0.002101081563059355,-0.019916914178553066,-0.005813365578715242,3.96
-0.02384089656817657,-0.11213341795694334,9.924970118306021,-0.0028544711329619938,0.012430277306189553,0.011976532126398444,3.97
-0.05406574029172544,0.039915169128979855,9.816305418665994,-0.010793606646076915,-0.006072649631433556,0.005113672244064269,3.98
0.10169700354946963,-0.03251928581679934,9.774236631743328,0.004975578253792646,0.01205411070827493,-0.00033670272869148294,3.99
-0.10758425378887443,-0.062479845250681565,9.653469799356843,0.015179478077291163,0.004287310948804319,-0.009442025023105916,4.0
-0.040656362960042464,-0.03648814270230505,9.576657855685031,-0.012965618837533013,-0.011598242661304593,0.007355186823945815,4.01
-0.008370879135499908,0.07446391985001084,10.008615017510781,-0.007320078911519998,-0.004215195360813559,-0.01601438284228438,4.0200000000000005
-0.10907576844433216,-0.05147009003139716,9.654359147551617,0.011003566625230936,0.019904457124842147,0.0016052973105207375,4.03
-0.007454947497218246,-0.06606933929082091,9.627182310023027,0.005251720120591402,0.008813186982664969,0.0044104038915752306,4.04
0.1837821999287812,-0.08613635034191729,9.955053539242957,0.02252086626633233,0.004434197424157293,-0.009387124580412288,4.05
0.09010441951793796,0.08806804957761617,9.77850473496425,-9.599949060525056e-05,0.011528762057537053,0.007923088498075725,4.0600000000000005
0.04742213911969959,0.02362219611329888,9.884580229388714,-0.018505777222717665,0.004241158786018163,0.0024409249707289587,4.07
0.03082749879809076,0.04545530964652916,9.982282816466919,-0.011450703276718342,-0.0062380367884935705,-0.004925087119144024,4.08
0.18089119671357695,0.09390991436856704,9.920877258963566,-0.0066953594264264615,0.0021554998989100484,-0.0034820141281948604,4.09
0.0047420518881642225,0.2520964234820554,9.76735039552581,0.005838488057764037,-0.004873685175744338,0.006610533814545031,4.1
-0.1497409823595999,0.09843781278732816,9.907157555349718,0.0005201706745204892,0.005798145515338269,-0.000983569478686878,4.11
0.1034735382796249,0.19465742884427123,9.82438629974437,-0.001230975499042775,0.013581656655936001,-0.026690310017233182,4.12
0.1772478137802967,0.04784944305882415,9.732763049599447,-0.008940527002600457,0.014145660005396993,-0.006561883494648989,4.13
-0.050628518896552746,-0.02336704934790202,9.692037605415495,-0.012070404992194035,0.01310795487807586,-0.006597548804658451,4.14
0.0030212986904688192,0.26922913318694447,9.912155160046126,0.01581179032768046,0.007993073396471763,0.002359371404580323,4.15
0.027275252377737508,-0.05970278824739864,9.732825306982622,-0.0025101973467900273,0.00010357376502720977,0.012151769373114256,4.16
-0.03466626862024247,0.23722841421505209,9.961539541178825,-0.007634015732438746,-0.005374936552863253,-0.002075654139596334,4.17
0.06724640694559425,0.033436421569191487,9.877897478571686,0.00695987649377548,0.001434680210651226,0.005720727394327016,4.18
-0.1733527631330848,-0.049436374309452025,9.718034209282662,0.006459722330454879,0.006825352709910312,-0.003411510588907903,4.19
-0.11312663128977184,0.11853238814464687,9.825548839238175,0.011401182569493516,-0.011780570401322094,0.003954527534126144,4.2
-0.1045453753774343,0.01580480668332927,9.79602602885254,0.021832608923106036,0.005861915258263089,-0.005928016167595383,4.21
-0.11162159129337133,0.014626637448834155,9.916345577060383,-0.006355195844762143,-0.006328723332747346,-0.011228288522815464,4.22
-0.029108780646276755,-0.01567402411543886,9.594782785980561,-0.004962655677108191,-0.008038224513914184,-0.001997000711486692,4.23
0.0523860650840312,-0.003687579559869612,9.770674547147935,-0.007255033481560445,-0.002442143402494421,-0.017383579545620694,4.24
-0.036518834225096906,-0.06995793792389655,10.056317487573128,-0.018599987020922037,0.0131976738876747,-0.005882810783764681,4.25
-0.054497109478571094,-0.07241522404040707,9.87416883594934,0.0019074817714419044,-0.003833972365736483,0.013124388966850012,4.26
-0.024380977178387272,-0.0007843941751346161,9.83666692508901,0.008336923519141988,-0.010673006756177864,-0.01251211166857494,4.2700000000000005
0.09045132173615547,-0.03471019925874282,9.805391212327493,0.009159777148737848,-0.0031090825660863813,-0.003338292211332438,4.28
-0.065375451884736,0.05775057467163032,9.816579519481232,-0.006736849950910653,0.002039641060615836,0.003035309376776895,4.29
-0.33059837594570285,-0.011270036116833238,9.720843798699793,-0.011101933520586128,0.002603756965003031,-0.006516514592936248,4.3
-0.0016399874563230148,0.18045989077316604,9.78716481074634,-0.001920729004828483,0.008126001400569028,-0.011659099569382991,4.3100000000000005
-0.05672730858614455,0.0797225252966222,9.812553455759865,0.010518928017618182,-0.01614734284559675,0.00552084775449438,4.32
-0.012885521964300001,-0.2012331814930025,9.754968442264367,0.006921557227912377,0.010344809263275035,0.015029264601148009,4.33
-0.05137083143545253,0.017542921831925604,9.829237082881383,0.014165457660357905,-0.011541963386462328,-0.010684378792557162,4.34
-0.07318715282706446,-0.014927533191069917,9.72879334319879,-0.005861201847526974,-0.0033556549672390692,-0.02046305326926559,4.3500000000000005
0.04215341675052403,-0.25156548269265977,10.032343357581484,-0.018807535897611003,-0.0073521122401041285,-0.004746856064615487,4.36
0.08002154690048714,0.046071054545698015,9.80697027906204,-0.01928800044766998,0.015061845299938051,0.01301485804926399,4.37
0.023406969642906762,0.08321232099436682,9.680785196862507,0.009022593083929895,0.0008624120797372747,0.013461156356775233,4.38
-0.08549633367319288,0.05791210896347886,9.811868991486692,0.01833446626693908,0.0062601864432413066,0.010445543254917276,4.39
-0.12787938617223757,-0.01052150142006405,9.814847128896174,-0.005484784557601254,0.0037277138993645183,-0.009336852931837166,4.4
-0.07059053855638385,-0.02371017971373074,9.815470399520603,-0.018226253010097008,-0.0106795861428894,0.01256641065264473,4.41
-0.10315544794483818,-0.06440780160596021,9.775759115026318,-0.005227566115337864,0.00026559537242993334,-0.011259842264790643,4.42
-0.012101734690793989,-0.05362335331530302,9.925226637240716,-0.025004858048410503,0.009410626486316118,0.0032215393881551008,4.43
-0.013100157729739671,0.04326511785957509,9.864242619213304,0.013462537148206163,0.006463524747057291,0.005727870527930377,4.44
0.11809049590678236,-0.021552266772346302,9.891545036960158,0.005110246529034185,-0.003345903683606797,-0.012848313619544327,4.45
-0.04447425383692599,-0.02626670774638032,9.830550095102577,-0.004856107958037605,-0.01587008819963354,0.00039824492697804485,4.46
-0.096213461572992,0.08287108181281044,9.890923506237899,0.014076778703632347,-0.00038902965948051815,0.008742836258880858,4.47
0.06844269719818458,-0.03998841996757571,9.830399568201052,0.00026848381410521014,-0.00098158777398212,-0.00855058023741341,4.48
-0.04102351448757435,-0.03451199825621964,9.729494740372783,-0.001298611673599121,0.007181129448466886,-0.0009036882075956592,4.49
0.10679614674381613,0.014309555529923952,9.834329909809282,0.008645340998499729,0.005812917699964808,-0.012168278802805759,4.5
-0.04169463746736598,0.12473151708565196,9.801224401606579,-0.002898111664257745,0.007258077848699896,0.000899841768439482,4.51
0.008457297943396025,0.1340806569573176,9.951787660173697,-0.012897094011277714,-0.008846790598564816,0.0010476294534555474,4.5200000000000005
0.010610163629876997,-0.018581526311408785,9.936003814626021,-0.012990399055109606,-0.0021300306985670746,0.009235581972947281,4.53
-0.13251839499986193,0.09231890197125284,9.748520443880949,-0.008343987052232268,-0.018299369387963907,-0.0011710970892569014,4.54
-0.15288116224855008,-0.039370044251756914,9.910877111024153,-0.005091773413593884,0.003950611485024558,0.009491397151885886,4.55
0.05560650628575703,0.037207364470650546,9.688581380724886,0.008684374423614107,0.011550948155252753,0.004741521110780406,4.5600000000000005
-0.18084525569584814,0.06249289960063578,10.009217338998724,0.022351884530823166,0.007729085499014492,0.017743370909774233,4.57
0.01022039675135,-0.050985258473897836,9.817946912688319,0.00035026395487547385,-0.010054995941604512,0.00851673038370306,4.58
0.06614377574962789,0.0470537080736112,10.014599209266688,-0.011213116262271642,0.006364184703924969,-0.018945023847147635,4.59
0.05971488112783968,0.01792547898181841,9.831570441822088,0.022154022937759064,-0.00920480944455304,-0.015788361945120753,4.6000000000000005
0.026820338944395217,-0.0003605465661792185,9.754990506772332,-0.00571552715825041,0.0077259852796369745,0.013020214763611678,4.61
-0.0953770034679042,-0.15537889609715483,9.835455802434854,0.013923586820174827,-0.0041790144474460654,0.0067938562125328126,4.62
0.08563480456947126,0.022026784292643896,9.84079338185131,-0.0039318232314274155,-0.0071865426181544605,-0.0017141082301169945,4.63
0.0797641702598205,0.08549024594696904,9.8775976344839,-0.0138994830022365,0.0037246880914808883,-0.009428676559192675,4.64
-0.04151529022694072,0.06134041565703228,9.64984292213823,-0.015502556192273925,0.0025261081103716727,-0.012681263350853705,4.65
-0.2997797180458857,0.13247451740940716,9.72052672227706,0.021504040901982796,0.010543418340226344,0.005101049440054608,4.66
0.08465603854577183,0.1458601554542673,9.790883890029885,-0.005215722422015488,0.01120180013157837,-0.000897783456470097,4.67
-0.1430658595073391,-0.31713707623648113,9.627597119410702,-0.0021901070036947964,0.0004510815701759822,-0.012518510097990277,4.68
-0.010732835666634483,-0.05586155322214507,9.875832192077652,-0.0015998375630740928,-0.013932471897398657,0.005290803157123184,4.69
0.14445380291056395,0.042123182195270954,9.975469506179039,0.0011371368444754915,-0.016270861562756766,-0.013082054245833323,4.7
0.09260890398700537,-0.06884699258204938,9.87287990167282,-0.00853218124628675,0.0030907241736711326,-0.00660214860261559,4.71
-0.24883763421358301,-0.10599993147479024,9.80597190132107,0.011525027840796724,0.005829387577416747,-0.01977203392141507,4.72
0.038706852804034436,-0.0432223261709922,9.935935556527628,0.009870942867138702,0.00671773077972377,0.006123435299630706,4.73
0.03902985458175037,0.018075316312758088,9.69500624861704,-0.0052671542366232215,-0.002426753834384989,-0.020779673362834407,4.74
-0.023699558643721443,0.24101133155719615,9.923676401056598,0.015051517901843952,-0.003345909517451783,0.004447551934823612,4.75
-0.10579773611876848,-0.10057278041758261,9.806906635250918,-0.016684716227616376,0.008039705870022886,0.010272464607660094,4.76
-0.05367307839321527,-0.11264541100612056,9.68453415055662,-0.0254228721648918,0.007934138958763031,0.0021885299765603827,4.7700000000000005
-0.08651113795083287,-0.029311409112675848,9.89796660986138,-0.00012400964086934908,0.0036065803188133384,-0.005102072577574284,4.78
-0.14830062682397718,-0.09844300534585769,9.794352020883315,0.006827119180152726,-0.014702438015464614,0.009745461613869693,4.79
-0.09813246946290413,0.06617693329748257,9.836842643704754,-0.005995594855790189,0.008218683552929922,-0.017997229098113993,4.8
-0.16442796964263792,-0.1617070667708319,9.950434579290024,-0.0033405266901896523,0.0018434733537958015,0.0013564258924788127,4.8100000000000005
0.136795618071726,0.12442058582880522,9.770518816424351,0.01135393797490806,-0.009515232581700466,-0.015061092617275867,4.82
0.029171186553940742,-0.09190381450412065,10.00132386671959,0.011627219674207717,-0.01031033186638735,-0.00472613288000004,4.83
0.03352376483742942,0.020041582256478885,9.689100657857418,-0.011773553639643226,0.01520850021034043,0.00080417426338625,4.84
-0.16293202436265353,-0.13738142813030926,9.631781845903104,-0.009967278012204565,-0.006524148718093559,0.0036250011521353847,4.8500000000000005
0.12037457583506717,0.15092412982209608,9.81363429394299,4.7632418536652426e-05,0.009519433605709402,0.017221539965263547,4.86
-0.05628269102482243,-0.044340624955030064,9.879499997865857,0.009199084232679898,0.0050497335365657274,-0.0029923454607323364,4.87
0.06572374900108567,-0.13547537087247458,9.560825221075579,-0.005792498709870143,-0.0015033916239356477,-0.006274228410643104,4.88
0.10260986797291599,0.09683254811647868,9.803381951647829,0.004876897212278421,-0.012042436342671402,0.0004138890862112612,4.89
0.020272359196487302,-0.14013555322205037,9.820834690466148,0.00989213343042267,0.014622773907217737,0.007173646278122912,4.9
-0.08217062107002178,0.11118634661011798,9.83114813965274,0.008745200181953981,0.008489936975277642,0.009529965295398438,4.91
0.11998203650251296,-0.24601430264625465,9.729081130220576,0.0053196842204420785,0.0018506774924747422,-0.008767651055763185,4.92
0.07438208302104475,-0.13435095614444542,9.87176689322006,-0.01194344891921344,-4.557826995354747e-05,0.010825496936259432,4.93
0.04592578676051259,0.0017801264346746235,9.79451831549083,0.007946225550136994,-0.006074370163753618,-0.0019074694895744014,4.94
0.10127989701482108,-0.00305381506340809,9.751973029070832,0.0027379722337815336,0.009945685804377309,0.008184947964641398,4.95
-0.1154354035138331,0.17841195554874834,9.867763615095443,-0.01198871358454745,-0.00019778839676038603,-0.016227162417268653,4.96
0.028953588941200536,0.04974480838265097,9.893251703895585,0.003870513270379254,-0.003214360085737373,-0.009101937533240852,4.97
-0.08504218011373128,0.07416706219749941,9.709782354557925,0.011316842426965925,-0.013140828015621553,0.014198545293371077,4.98
-0.024122513213963463,0.13547366820461584,9.874833035403533,-0.002100432163874406,0.002169469336253938,-0.014887467325703682,4.99
0.060586095703790824,0.08361451470166509,9.675405800685628,0.025398087298017586,-0.012113188082658275,-0.002747438801808693,5.0
-0.00612511337348982,-0.10569968384353792,9.767850859413103,-0.006646046828051659,-0.02507291103668923,0.0016614292555459436,5.01
-0.10709413811389601,-0.09533433889345447,9.851081060974025,0.008517193534944513,-0.0011240757122678135,-0.01828358499940169,5.0200000000000005
0.09976841531821024,-0.04182711808821808,9.823934581296944,0.008426486440164567,0.007059901647737816,0.0023981495893026913,5.03
0.002174636458538883,0.07280783052203314,9.716129719723256,0.009372867783080266,0.005064265289972743,-0.013564651074512206,5.04
0.012809704886096058,-0.06968225728064467,9.900035896413826,0.005389688685841685,0.0025703186761154885,-0.006551102191425193,5.05
-0.003285041896490133,-0.08728020637307216,9.859111652446176,-0.017065585810905243,-0.006896465025899023,-0.003531141907730568,5.0600000000000005
0.08651757684672089,0.12361164898705244,9.708452822552475,0.007879909438997244,-0.001858681665539908,0.02267825136014849,5.07
0.010921845768934783,-0.08917445536427791,9.741036877583005,-0.021338387190575753,-0.0026509360642110297,0.00606423284590166,5.08
0.018398401325237127,-0.028435554466180735,9.957026019833012,-0.006818344875141418,0.0085522495089591,0.0022864825319703743,5.09
0.07145776866757429,-0.21614817815842466,9.961885218879207,-0.006850334462448525,0.025717259920955346,0.004774606025218748,5.1000000000000005
-0.0435176541693131,-0.2743370824226898,9.812961736379899,-0.002989550630237682,-0.01827400900471847,-0.006190464212855188,5.11
-0.04542935502606421,0.0909176904848294,9.713367954761855,-0.00682375318980294,0.017724173068878583,-0.004480487229064676,5.12
0.06676535602584646,0.060621186151995604,9.816004673371161,0.011540627289903446,-0.0032411746203003327,-0.010952541756803831,5.13
-0.0049384549675578,-0.04708630700583846,9.792312608930791,-0.0004241422264743763,0.01039295041697886,-0.0017882636337345113,5.14
-0.06222765920653039,-0.050715567980302106,9.828971027688851,0.0007468025662936278,0.008408293812967399,-0.011234146437419597,5.15
-0.04133173443108998,0.05301325094943621,9.794040014657218,0.012059922860488135,0.0005607165363629519,-0.0053140706364763835,5.16
-0.03832640702687082,-0.04438050408482492,9.957993001385063,-0.009986881012665632,0.006403751967734921,0.007040019835707266,5.17
-0.046554937768449905,-0.05980077379081187,9.745936139840278,-0.003427793586262622,0.007045826588488547,0.009469875630847623,5.18
-0.0019443166296564127,-0.03173149178804529,9.966267147587713,0.0010826671860381784,0.016725712160334347,0.008769109195580717,5.19
0.02523514728271653,0.1931076214077628,9.740389435918239,-0.0023077046297725902,-0.0033606908333229735,0.0011320200781543437,5.2
-0.16145953904875665,0.07880883634286003,9.687124359791873,0.010808743986854573,0.012725196556033238,0.0022807024437448173,5.21
-0.08223086561084865,-0.12477030720485094,9.94453271512928,-0.020149173262029467,0.00016456607217972267,0.002346304369780902,5.22
0.006405224604097804,-0.001979637292185868,9.766658250945834,0.008124684269302228,-0.004724741798552777,0.005676877950561765,5.23
0.03691592811161697,-0.16922948975203916,9.692082757280874,-0.004389247186598709,-0.0025689673304556257,-0.0027189962708880954,5.24
-0.06226972367795839,0.1107418552892999,9.86032377450263,-0.011591803991248904,-4.684901564691871e-05,0.005647271388492267,5.25
0.07685973090557885,-0.0875006616955129,9.846448180038875,0.009486351826416948,-0.00031875343681391166,-0.015090535521566932,5.26
-0.18468905073324515,-0.07401274266855527,9.927184380567981,-0.01714856239666819,0.014783675835037532,0.0035914400500095603,5.2700000000000005
-0.07907883199779592,0.09494404790198412,9.796987673022562,-0.009908799963842922,-0.0018333169285481557,-0.010285583225845923,5.28
0.08145978619391504,-0.08018170673386738,9.821446485121731,-0.005939571266371976,0.014073024064015633,-0.008671515689955788,5.29
0.1683232343050721,-0.14552129988779036,9.912871133502607,-0.0025174357496288435,-0.0038447243977676668,0.006846067356623493,5.3
-0.04683970256339131,0.033310961477255284,9.944619826016913,0.0014998961546449866,0.0037484054387488964,-0.014802426848021119,5.3100000000000005
0.01574872268919487,0.15813549523576653,9.739780612693863,-0.00872040368479408,0.004297068805554823,-0.0021936320078862256,5.32
0.07576092155399468,0.13455957467530918,9.880910694733966,-0.008226647928130113,-0.0021726810753678405,-0.001402665918837882,5.33
0.14318288603446733,-0.07252711391399712,9.748066795212084,0.0003790102300942083,0.018545052845088904,0.005054984919192048,5.34
0.04512402016824889,-0.005112854767163867,9.813014588709665,-0.007800500863776142,-0.004778886897508173,-0.005157444659166411,5.3500000000000005
0.014921668856423431,-0.11986695367220386,9.709749305216915,-0.00107880074212593,-0.004748111988485344,0.007332140507259319,5.36
0.26280777587025955,0.12203812701965014,9.882977859801027,0.012117563425947796,-0.01598870054108194,-0.003460883057770484,5.37
0.030469368963584043,-0.038459892942918385,9.881677158334387,-0.006272474102845271,-0.00563037955430512,0.01982759188828123,5.38
-0.1144574420353979,0.02195423005850653,9.968528791132021,0.004835278766281087,-0.01614745391245087,0.017998004725217717,5.39
-0.0022081250151907475,0.08969546200286724,9.933059710983251,0.016315929235862708,0.006071077449080704,0.00773055107783334,5.4
-0.10333955838448489,0.0027753892899330277,9.826984215090377,0.019068666023154688,-0.00344145507934377,-0.01314598923125085,5.41
0.03388526260327878,-0.12182736373738329,9.895494560835484,-0.007460994853951994,0.009696130331921725,-0.004953069260687488,5.42
-0.09384090741251179,0.11039172853935263,9.720622323303763,-0.00033866070077665,-0.010300864349629724,0.014119413879660208,5.43
-0.029945638372017448,0.09380364758951233,9.919808222359958,0.011869570924623228,-0.00011261645945106138,-0.008202762005756646,5.44
0.05990337912896664,-0.0364015829884895,9.72318513671315,-0.00787929903090939,0.004885182431193092,-0.01511770102533075,5.45
0.09184835065215236,0.1481982573748991,9.806332072679922,0.006864446471303247,-0.008185098078200831,0.008092083684352845,5.46
-0.03520087772501197,0.03863639710391679,9.726297164757328,-0.013207369434812764,0.01355839128144421,0.004003132882279713,5.47
-0.006989022879082565,0.057616573613665234,9.635017057214084,0.00023229436397783948,-0.00602517019412298,0.00637755655190774,5.48
-0.04811491573182449,-0.1482959767510379,9.907635087929235,-0.005903751852351942,-0.0015179699372300738,-0.02008267659386905,5.49
-0.046604610415351536,-0.040238979487296,9.673821273825816,0.010973041770587718,0.002524395773702514,0.00990094381943377,5.5
-0.11713968422633525,-0.11598532633065664,9.839690660128522,0.00719361244736327,-0.006004706279083381,0.013177591750755786,5.51
0.0509607914692413,-0.27050785973622304,9.69679896819778,-0.002431313355136998,-0.005752974625082149,0.0029190248087293974,5.5200000000000005
0.05611037965786082,0.07464402136461783,9.965138145229771,-0.00460735245570272,-0.0072938561164436954,-0.011645446775854853,5.53
-0.00532641751907566,-0.06525085480252615,9.823029851102929,-0.00769800584339036,-0.020843244455747208,0.0066923720660340595,5.54
-0.21742876022499816,-0.17223898515395084,9.900542154021927,-0.003645384461901938,-0.022179394395076872,0.008713515552512645,5.55
0.029418091511543395,-0.014668523996417297,9.73324595637482,0.0016681378016505692,-0.014977756741509458,0.003246258545316457,5.5600000000000005
-0.09076835375573133,-0.1199573628099542,9.9408714564741,0.011075066822373214,-0.006941156501801984,0.017887250553973832,5.57
0.10066386159511975,0.06332217992187097,9.92133313909778,0.010727080736009576,-0.009999568554713442,-0.0014452572768178646,5.58
-0.021543340179427294,0.1364902862714031,9.924480906293654,0.012022454674101735,0.003751807358543351,-0.0037758566336376924,5.59
-0.006781005120314949,0.03443268677673244,9.730038239366484,-0.011298118438349231,-0.0012545085551665925,0.0025167125243614574,5.6000000000000005
0.06533061985663101,-0.015081956336768088,9.773891579922962,0.02437948900452418,0.0021162030138505367,0.008877230296204906,5.61
-0.06101761553819554,-0.18131481892990575,9.876803583221466,0.0010515657919236555,-0.0014660387727591909,0.005734741499238767,5.62
-0.03319893219048038,0.05931358724458222,9.859611970791356,-0.010239227999192588,-0.0062908656031809345,0.019232704526437265,5.63
-0.13987213916688926,-0.1486974998428419,9.76773945043133,0.009985983140561566,0.010406657362957199,-0.0006782832174429103,5.64
-0.13134816901543137,-0.18609391715524018,9.817848972514117,-0.006967144801794368,-0.002123497190351398,-0.003364536828841408,5.65
0.09950451271622252,-0.1369945687766248,9.747522908382393,-0.018310220624980104,-0.0024586728997846837,0.0100192261861305,5.66
-0.06924747989420535,-0.06693267096638233,9.745509900409205,0.005447917215923001,-0.01804961320730902,0.004729873025721619,5.67
-0.014857043512310791,-0.053255959711142546,9.576722861104088,-0.021091845981961357,-0.008443018133482043,-0.004743114627631565,5.68
-0.16948773190809313,0.17221029453874426,9.811258289423257,-0.0022880327573675087,0.014477605921329602,0.009626175679650026,5.69
0.007742667714691082,0.14469244640107493,9.930203332168743,0.020177613646794157,0.02613340658672928,0.014853292790232649,5.7
-0.2428575310380303,-0.04862157197565343,9.771527201045046,-0.018351138817245035,0.0043228450936109684,-0.004572871495470397,5.71
-0.08767713606316349,-0.008534522546525848,9.917843961615889,-0.004404684906406772,-0.007812199176415593,-0.002815701240128629,5.72
-0.03023656496947206,-0.059112779803566495,9.531814616188521,0.0128461126661704,-0.007615895882300898,-0.015145715195377437,5.73
0.08120065886918611,-0.12216284674843339,9.800955734458483,0.015130796978152432,-0.014838781491145122,-0.015309852079861084,5.74
0.021945716813478903,0.010004998748658199,9.935890385987651,0.007811853403020655,0.003897267675926627,-0.0012024793127353391,5.75
-0.13555105256586827,0.12377919547226712,9.827877037545031,-0.009129355876058457,0.0004557879543734515,-0.010528061754926477,5.76
0.06318231197570173,-0.03130674734875846,9.830464799917769,-0.01353752894178321,0.008558063698254544,-0.005459286781734195,5.7700000000000005
0.008034177036588305,0.1001516118227534,9.766372285840276,0.00836242393928577,-0.004638291660149694,-0.003135655015166232,5.78
0.1892549884920829,0.06861823264887087,9.922958904832543,0.0214361434978222,-0.0030999359077845817,-0.0002946030985399551,5.79
0.12325980062321062,0.04366948349040878,9.851725367070033,0.008409637933174363,-0.006649631658249641,0.01119720577650361,5.8
-0.14452017994401659,0.009890911522822433,9.853962362938994,0.005085048960416385,0.0008657106022576783,-0.00849084814842563,5.8100000000000005
0.09186837072849077,0.17736505128484834,9.837273570261862,-0.02271653583813926,0.019520632949655756,0.0001835663171246499,5.82
0.06466263821133626,-0.05061250915123564,9.92152519460697,0.015163894547587193,0.010604624785321471,0.013424851925553712,5.83
0.12892919423065882,0.018818411367419165,9.816993196511266,0.00015068374849721498,0.00815132399864774,-0.012187485112852761,5.84
-0.02445191769843173,-0.1565894476519346,9.652551352970205,0.009120184513687174,-8.962933458892039e-05,-0.006767924513297667,5.8500000000000005
0.09225802528228605,0.05164330108618312,9.983801524770097,0.001328852916630937,0.0038252209828803095,0.005722272082971161,5.86
-0.03054640236982538,0.005640837972412544,9.527082540681585,-0.003948620212015533,-0.003826698627553635,-0.007980148360498299,5.87
0.0827761115179118,0.018982901372510016,9.66349195754901,0.0008406168537424853,-0.007468595955980324,0.010513210785635383,5.88
0.12397217702448314,-0.08957122819401905,9.881427635192036,-0.0037655054633261896,-0.001602847999273532,-0.007650908679054077,5.89
-0.036770988763442675,-0.09235185071450097,9.914332187489922,-0.010882447183176073,0.007641428696188842,0.004280308763098033,5.9
-0.03476813483458418,-0.13688673552615097,9.769463901263931,0.004312197579401045,-0.009882857138890797,0.002050400217735317,5.91
0.07752363419073699,0.17444296312742077,9.750200171850478,-0.003698856299414152,0.0030502438134403964,-0.005402049556656324,5.92
-0.09545956072102164,-0.10606579344624395,9.851747554080447,0.0029718600475543743,0.0011122833007898441,0.002283153996431101,5.93
-0.0836931087690204,-0.0016932397208206038,9.718358987631277,0.007436430126765668,0.0005588767297478274,0.0007300808190097086,5.94
-0.10434988357139419,-0.0014124797904149274,9.899976122455875,0.013313589844839518,-0.019200272892479744,0.004616970955220831,5.95
-0.08407881611535102,-0.13771286405636302,9.855957454215455,-0.004030380820889524,0.004243846499749339,-0.004198444211485219,5.96
0.007137310260714268,0.2451794420562987,9.939164630906317,-0.005814289840206987,-0.008330218651971883,0.005049765206747551,5.97
-0.04562171439337944,-0.07661117129047326,9.86521913396399,-0.0001562873262778991,-0.006561896405542447,-0.004688258552468605,5.98
0.13220977227671454,0.07796557470122031,9.951280358985347,-0.01284482981738086,-0.0023671850885405915,-0.004562576189976773,5.99
0.0296423846786982,-0.08503041593506061,9.928872599719995,0.018642070834774344,0.016799462229729053,-0.0076164433917888285,6.0
0.2011501210086442,-0.14112853619102517,9.815609530856799,-0.0018140166965059299,-0.003422951731115389,-0.006098861846857892,6.01
-0.06422895326160925,0.04895774572139768,9.768156353441244,-0.005081229982444715,-0.010851218472610644,-0.004864992606015395,6.0200000000000005
0.1148936895902017,-0.03432531646043573,9.675801284747761,0.004091246772003387,-0.000729402094403592,0.015539748753363449,6.03
0.03399415519354797,0.13212670553513214,9.841377919631368,-0.01007319236064614,0.016990792540273535,-0.012031489518493145,6.04
-0.11308508763389331,-0.08943144487752795,9.817388053800316,-0.0008313112942080535,0.010791829012101075,0.009392728500784016,6.05
0.05269469005044861,-0.0653552331499729,9.638400968307925,0.008955666389591948,0.005072612593586272,-0.015184574184165035,6.0600000000000005
0.16883405402972468,-0.06789347624874957,9.930511736739497,-0.008833444809544198,0.020974282098589443,0.006655006587993141,6.07
0.10559969182378004,-0.0776820074239363,9.753682004324157,0.004557647862852558,0.011666555795061566,-0.0022544349872151044,6.08
0.001269662360356918,-0.17502970365755197,9.83642123665406,0.007661498019462613,0.008749952249449338,0.0014278720329215784,6.09
0.07242037630240608,-0.05934216599393094,9.875622781325717,0.013841141774687857,-0.002809002075929462,0.003980287612476478,6.1000000000000005
-0.04621112682832665,0.016715359167412177,9.735493625384827,0.011987575419613948,-0.02348523784844739,-0.002399987983750976,6.11
0.05319732965691061,0.039241913544534775,9.851122266155711,-0.011232005614392413,-0.007595535728335407,-0.009384801813309515,6.12
-0.14583249157046443,0.03060687888944126,9.722680056985736,0.0032729106945079767,-0.0024416154807068457,0.005115667679514313,6.13
-0.055972055126595234,0.037079022674103845,9.847508005596676,-0.009755991283196642,-0.01955948356667326,0.0005790681464419323,6.140000000000001
0.06236033463692392,0.04325441631410396,9.932953632769207,0.0013328898051998294,0.011890699670182962,-0.0016526967336207672,6.15
-0.010170419792099823,-0.1100599922461181,9.852211752602855,-0.004241441426926087,0.0017897404784123485,-0.004611988567635445,6.16
0.0646582191506148,0.025793003656912075,9.890341373604924,0.000749320241653593,0.0026579538029374533,0.008024180554862398,6.17
-0.1671003952299827,-0.06445453637389022,9.778012911214514,-0.004731014478052769,-0.0073210422320336265,0.009771966994270688,6.18
-0.028205837121719715,0.053737941622462926,9.864335931943353,-0.01026711954480787,-0.001598181192712668,0.013022446353384114,6.19
0.12122943769652789,0.019932973361573545,9.742388140495203,-0.010675291347047004,0.0025287112343586548,0.001167151657221885,6.2
-0.08657618466152925,0.24162670488697607,9.919430572631496,-0.0009469930911738577,-0.010665368111127642,0.002721334937015309,6.21
-0.043798116000167225,0.0612779395557467,9.912594154291797,0.008771828707524437,-0.0170151675467891,0.005518531253440825,6.22
-0.04948608712427165,-0.014282523222034667,9.784731667546543,0.01665881932101161,5.228974275601726e-05,0.015209953594299915,6.23
-0.0847860031306675,-0.156797982277699,9.883801167971928,-0.0019879676256016336,0.00040525903811792634,-0.003332176651446864,6.24
0.12943596668156798,-0.16403158811764595,9.832282687292906,-0.013118642872892994,0.0017696648594806564,0.003374345161570226,6.25
0.02718774728672609,0.06151379509540429,9.761915338902732,-0.0063130984352102095,-0.0021486636936689815,0.0109304793645191,6.26
0.023179386468298032,-0.017186242433099554,9.770460960948391,-0.005503039061630263,0.004019627762590953,-0.014390890454848577,6.2700000000000005
0.08019556503907632,0.032075704404611625,9.757221033517407,0.0010717308991700747,-0.01403626153678304,0.00533773933365153,6.28
-0.028835232781357807,0.05384804852959018,9.85510529104319,0.006598354943869936,-0.00014950585744275552,-0.00019568117561796067,6.29
0.04488303007215219,-0.029998890600141073,9.863470271955068,-0.0058175711638634225,0.005324816226739866,-0.005229046653856333,6.3
0.061454796600606626,-0.01537972088993665,9.922893051846357,0.012527494427685726,-0.0023408352982714916,-0.0028717337868724947,6.3100000000000005
0.018040295104409642,-0.0485088923073583,9.882095400735293,-0.004608669824865844,-0.01133693360242783,-0.019534019049007385,6.32
0.13575699337911162,0.029384080522222383,9.84979608573709,0.01698972223686605,0.008512580858002187,0.00445708408288935,6.33
-0.013723062630201269,0.02035955743741832,10.004589875964628,0.008134219629580955,0.00603881998168818,0.012580878317539719,6.34
-0.055600714773510154,-0.06621780294136334,9.866949018474234,-0.01752896946233584,0.002117778001698672,-0.007967944340193125,6.3500000000000005
-0.07288903780428489,-0.030171704926255795,9.77174281433572,0.018449090943250243,0.011081193711112151,-0.0012234243210826558,6.36
-0.0470339634106447,0.14436714386169203,9.863859815095958,-0.005287676670151385,0.004177968103494441,-0.002826702781999497,6.37
0.21202419402276976,0.0712256997111578,9.757406633735988,-0.004915839307471746,0.0161514135211757,-0.008491836523910284,6.38
-0.0024687044189572772,0.09590428577947457,9.855532873504876,0.0008835550306476687,0.012756963394107644,-0.011775984798386784,6.390000000000001
-0.12581874680463004,-0.19311341792668135,9.879672911965203,0.004129450806322888,0.0071729901783275495,0.00478353774953179,6.4
-0.12717387263807667,-0.0481310897525514,9.769478326445059,-0.007016542026227982,0.0030672834241014593,0.007489093477339739,6.41
0.11587075421378848,-0.060488606648481096,10.05749864106825,-0.01147010269752949,0.003338734205276841,0.006472997806780016,6.42
-0.06871495341677136,0.028052868322584187,9.879722569059426,0.011809547776595222,0.0040932633926141285,0.0015167203252998683,6.43
0.012277699933626436,0.12050205992451335,9.86085940920093,-0.003278491562433432,0.013872075994070886,-0.007454318063059046,6.44
-0.07951792031256665,0.09201494267963053,9.810980474430822,-0.004923278500124711,0.004200146594673597,0.0070123052430757895,6.45
-0.01916545320811125,-0.028443156363075112,9.737814736870318,0.009083054177660078,0.02059345117100137,0.00752224279155802,6.46
0.004945445562887783,0.116624990619898,9.986546105313073,0.008212773962098631,0.0012409363849209154,-0.007605133774149473,6.47
-0.040766012352323994,-0.15494883155811004,9.850766083491706,0.012957973194293176,-0.010189821323169137,0.022772177361639525,6.48
-0.08366655334969948,0.11200798337438256,9.837331771105312,-0.015329931246735104,0.004492795888560476,0.002036171331774223,6.49
0.03692122488513925,-0.12637320994211873,9.740388149728634,-0.0058859232717263415,-0.016625852997130656,-0.012653230941368662,6.5
-0.06568794621376854,-0.042836866332499,9.687862426329566,0.007916444480135646,-0.019371363046992236,-0.0008550003809015324,6.51
-0.02570514801613157,0.002454399708552527,9.899466729648804,-0.0033419964593278018,0.01129202352450293,0.006785919829174377,6.5200000000000005
0.07522042564853497,0.17602816238214108,9.847905809482322,0.01413832501733906,0.004544386878024997,0.024085027561485405,6.53
-0.0029546357690094136,-0.03159649981708105,9.859628801932228,0.004950864785769006,-0.011178186423090604,0.007250623654212085,6.54
-0.07670010284808815,-0.13545597989599847,9.911330576510649,0.009043955320675236,0.0005181309729193091,0.004667629216571943,6.55
-0.027778373690175603,-0.049981414340213796,9.877224229424522,-0.0010832465314017314,0.002874682314430199,-0.018717937599060798,6.5600000000000005
0.00129465719884424,0.028378192205637476,9.92364584445332,0.0006350609681331891,0.0017683224386175656,0.012352065658504972,6.57
0.13961880564987045,0.018563292384613083,9.873828046735248,-0.002984574937870164,0.025022112466168353,-0.00738768639254916,6.58
-0.09470088798883233,-0.05999270575297451,10.023356287722025,0.010470268703520025,-0.021011119013178276,0.009948422116912834,6.59
-0.17656487866551868,0.09770463097850038,9.680589289731573,-0.01275662414390014,0.007784151324558724,0.011654190500534097,6.6000000000000005
-0.07714445361512143,-0.12939028501045902,9.832155733654156,0.005640220316848123,-0.017547712885101645,0.004370805503417232,6.61
0.000379361356426431,-0.041770397658018536,9.7160190181944,-0.005078899232831851,-0.008853258521948458,0.011833490708749131,6.62
-0.07127417060197068,-0.007048788566193783,9.701869353580843,-0.0055359370887002315,0.023414498134228176,-0.003022588902753633,6.63
-0.0346897855797996,-0.02063204534331151,9.871115967163577,-0.00238583142111956,0.004524199809830341,0.010452362379341608,6.640000000000001
-0.2502060141946749,0.007670060078050442,9.624576319838223,-0.012164316863154214,-0.02532520218016409,0.008141616244377547,6.65
0.08042667399339032,0.19186978464285917,9.82409263211715,0.008255255156428555,-0.005983137522062877,-0.012135119875193816,6.66
0.19461896905401793,-0.009394116372319739,9.895310897497188,-0.004221330947796119,0.012556020852560834,-0.0019384885526489764,6.67
-0.005569984411354894,0.058063572668277885,9.90637109685023,0.00482267143841189,-0.013061242218289025,0.0022388357084429764,6.68
0.09139730154439683,-0.23512630244504004,9.861972010408946,-0.006452296592676385,-0.0010727893894664903,-0.0019735666346500963,6.69
0.10368000618946892,-0.03512588359249599,9.765129405950832,0.001607184836695141,0.010130110131198918,0.005388262564522323,6.7
0.2851645602890502,0.15676156619424766,9.844205061214499,-0.0008446784880745132,-0.009970790655087025,-0.010846037449045918,6.71
0.1432864513467339,0.02679838643215426,9.722894284810156,0.0015802709926897769,0.0010984176953834043,0.0024742705955982185,6.72
-0.01321377490117364,-0.11666760139517436,9.888652383725843,-0.007352005508232724,0.012697791280505615,0.0007024564889542768,6.73
0.02954278010847633,-0.04522737256684914,9.728363978777354,-0.006764594965793957,-0.019059896295016747,0.011537826709563754,6.74
-0.180234446450649,0.06758818080703087,9.932140495875899,-0.0034939219483980837,0.001081225083125764,0.005853936865529807,6.75
0.2539297973675096,-0.13247833223065467,9.838328462317016,-0.0018367370589681342,-0.0012121470192267055,0.0032057872180071933,6.76
-0.0011595861818590872,0.015185489682857128,9.699947904262476,-0.015465686524148025,0.009606729000164552,0.00974334744901325,6.7700000000000005
-0.08090756931631157,-0.13023526582785114,9.761919806317634,0.015551912701717492,0.005178764196934541,-0.012719295212182204,6.78
-0.030585383295754068,-0.17830406676817923,9.731931887232678,-0.0008825005115249826,0.0033510382230094687,-0.0009583102909081788,6.79
0.09180311186478611,0.16361159997252014,9.82604816921059,0.008428886064523312,0.0032799639050966316,-0.007426139246553656,6.8
0.0261248728480605,-0.042924008750672954,9.761606604825467,-0.0019001336399189466,0.00034030951877601554,0.005453314210018276,6.8100000000000005
0.013681054338204294,0.08943047190527309,9.933300319380125,0.0038620356896594942,0.007092927990372928,-0.0009253655491979817,6.82
0.01134855648164785,0.007569522776615595,9.55158925427899,0.002624240019062202,0.0036458204278096086,0.002030564282727819,6.83
-0.14251294577182777,0.0500633129743146,9.89094422266702,0.010781531633278926,-0.016232192604614722,-0.010654830220321196,6.84
0.004496228286123399,0.12094115052480532,9.946688061468642,0.0016957343910589827,-0.015337258507072639,0.01691806492237143,6.8500000000000005
0.0945561531130103,0.022508690322902,9.80845861402941,0.006320101683012551,-0.009036158094262595,0.0008861316396868676,6.86
0.19349094858935947,0.007151931440366431,10.025062672900901,0.004531206579361206,-0.01864590065527998,0.001334058207605312,6.87
-0.030559026678083263,-0.09900125890624424,9.906091570449673,-0.0016612738980195793,0.007250331384193303,0.007769708141399886,6.88
0.052271660116386134,-0.13609596076357486,9.805142277327713,0.0052110656468748575,-0.003366010591025383,-0.006511275049215044,6.890000000000001
-0.20484266240641014,-0.15608858923218102,9.781776698375559,-0.012424151046862755,-0.009475863673918923,-0.012821608619552487,6.9
-0.07548872893530305,0.031556757300753045,9.826764777400001,0.001597311138702586,-0.011063139224654664,0.012587833612190813,6.91
0.18523959044083776,0.09644199774187295,9.700868082622868,-0.009377541808837063,-0.00888454261688251,-0.008816649225796492,6.92
-0.04098121928560707,-0.12756801294615736,9.73639814215334,-0.011153595378767119,-0.0008220954640149298,-0.012691123457091898,6.93
0.0893407866267312,-0.039468296921540344,9.716637441347393,-0.003960770714432464,0.0013421179513402278,-0.003267750681385465,6.94
0.1707047948092926,0.09452239062999516,9.80766150702608,0.0062895745770847064,0.004271359285957128,0.013240845138215739,6.95
0.07180720084002006,0.0012928197163069243,9.726020758064905,0.010705318937179038,-0.007579775949852573,-0.008191215862815281,6.96
0.028541467048266628,-0.07602447682340412,9.687959363893114,-0.0043147850915874995,0.010940632183090816,-0.014163911560793987,6.97
-0.07665063172467804,0.027030357240328807,9.741560505761182,-0.004920880153186742,0.018566462354188257,-0.0007107218777698617,6.98
-0.13931543565794322,-0.08445148135270036,9.807356617044794,-0.01228128714228008,-2.8980640198097003e-06,0.01741616728160462,6.99
-0.14223777409612284,-0.11656818988445102,9.780263667219376,-0.013647139969086425,0.0009356337528614716,-0.007035978096386804,7.0
0.018505071300427497,-0.012259354286989202,9.808413566298778,-0.003930209171236053,0.009289551429962859,-0.005070096270895803,7.01
0.15321416528825937,-0.07568792479558052,9.735034874600062,-0.004323945523563517,0.0026787871701476795,0.008492895674544072,7.0200000000000005
-0.02827502342779515,0.03638703220406348,9.705216080971669,0.010790985835804299,-0.017976948223112386,0.013601989211872712,7.03
0.07999109594236843,-0.043226116417290794,9.797351811839844,0.004890904352085625,0.005043829755159653,0.006759263815545133,7.04
0.2133473769361995,0.1565722217909897,9.910102687900356,-0.011200758550811565,0.0008547595026090788,0.013094176547974394,7.05
-0.009813294101763025,0.016608807713668405,9.797841509240634,0.010867819580568313,0.016858083868452223,-0.008726512669328482,7.0600000000000005
0.007611911795949554,0.012230466274817775,9.792257309275344,0.002937945849209934,-0.005015662745347576,0.00014746446826074676,7.07
0.12855629562509446,-0.05974441670356526,9.863108902043505,0.0077638995584367035,0.014050897921842416,0.005186239994534396,7.08
0.13169927007982046,-0.07162824343560685,9.699913537440047,-0.008851238116079331,0.0027004857656233363,-0.008619213724572496,7.09
-0.03167717887542786,-0.07038351404767,9.820653628819365,0.01642596469020477,-0.018394576067873196,0.00679515720126713,7.1000000000000005
0.11465528634564391,-0.1843327567220108,9.799416009737577,0.019479391196560957,-0.003990471331948133,-0.0005105855038663193,7.11
0.08171968704698862,0.05317686291317704,9.777101063552422,0.015129178861493404,0.004482136740511198,0.002075592889797492,7.12
0.1498326394801228,-0.005718506386666066,9.649491976465796,-0.00929259694846577,-0.014475101652916744,0.0009164748182872474,7.13
0.18092366353450423,0.02069373026314597,9.854952091391137,-0.0020907391692898815,0.0077770798707839876,0.005443999452843651,7.140000000000001
0.11280480816285528,-0.02992609801125364,9.757582741282517,-0.0023082550683972665,0.014991892636556604,-0.007045293149425238,7.15
0.020850187486657696,-0.07914630125711908,9.750757498343068,0.006182803493915207,-0.008467275721071832,-0.011232264170219046,7.16
0.10028506789663844,0.15084594164226672,9.703024006394775,0.005093136425718466,0.0016524298326729173,-0.0017918695316140813,7.17
-0.062418578261213366,-0.13954257891547756,9.884289656836133,-0.01289548453500062,-0.005920933633108926,-0.016032774510749487,7.18
0.12903922900616607,-0.03871702187853063,9.892176294979267,0.005922345314078977,0.013404580829629167,0.005049308392765989,7.19
0.09465787052021829,0.16498399521185814,9.828804360433447,-0.007253084927702781,-0.000981798040712538,-0.013248324657571222,7.2
0.2654392846362707,-0.09386374934613793,9.771769117286928,0.002221713392887701,0.000610361198503028,-0.009533220372596627,7.21
0.025533232405129076,-0.027603742817513773,9.667636833040593,-0.005437114413230454,0.020195491504130598,0.01904654386091376,7.22
-0.023098620538552474,-0.03248095711062606,9.780157516414164,0.02133402910787076,0.0056396896233535465,-0.0015760700264701739,7.23
-0.1340364674931622,0.15968548276149094,9.886341197963558,-0.015385543222730207,-0.008280038444426022,-0.009741872550709694,7.24
-0.1504259250256344,0.16480464458052813,9.75702335570927,0.006738016151724816,-0.0029111161528770214,-0.012369047222037004,7.25
-0.04565934258882252,-0.011781111571856885,9.562547309596768,0.009305341819850474,-0.007409892557059569,0.0034236778168845287,7.26
-0.07281555371206673,0.19646916242551207,10.052835225114602,-0.0032928776308705616,-0.01243886565129733,-0.0007168647962998872,7.2700000000000005
0.09768051898707039,-0.013956888341319916,9.782252070225798,-0.0006199666220017756,-0.0004717089009957888,0.007997785229734666,7.28
-0.16805597116840185,-0.12230874181449243,9.79582206849759,0.003902962995436276,-0.008766648484047259,-0.0002677705506623667,7.29
0.013630570985053346,-0.03644392628193543,9.841333244430961,0.0031466978371889084,0.007098914614291395,-0.003629311173390966,7.3
0.034119380090517036,0.13480124261544074,9.853467220867017,-0.006215305189128926,0.004007581651666077,0.005595057697863591,7.3100000000000005
-0.1619634220447607,-0.014009198540185543,9.82342934131667,-0.005077461199749637,-0.007789972921632669,0.008433422417579202,7.32
-0.18307983299913838,-0.10535994297680368,9.63823542674997,-0.020206985498579563,-0.005330071796818495,-0.0027671775643708396,7.33
-0.02973653697653081,0.06871606906727347,9.834247620830727,-0.013198993471871694,-0.005963906040225279,0.00920276467099981,7.34
-0.09837879888055097,-0.014452048274122052,9.845916971506613,0.003711958455213332,-0.015144792617427632,0.0010318643167805139,7.3500000000000005
-0.04408916469431494,-0.029218457638862657,9.737514346164879,0.019844982760354967,0.017231450867068492,-0.0007825486706257399,7.36
-0.05245994639966472,-0.002257484586671767,9.838511329689133,-0.008479228021509449,-0.013932384262794521,-0.0012123362070112402,7.37
0.04686593922869343,-0.02066319452776265,10.064858485761647,0.0026679622958657363,-0.003622134221769655,0.002779701129681632,7.38
0.07045698634100221,0.13496467782264981,9.955898470309066,0.002136741627972636,-0.007777622061213085,0.004691691173448112,7.390000000000001
0.027381119650813704,-0.16133177654918265,9.87212804805325,0.016946782838040037,-0.0065454757408892165,-0.008367765857674337,7.4
-0.020993300278955795,0.02232853859987456,9.752944592175272,0.0070762304702048,0.01191382748352737,-0.018735873459426837,7.41
0.23813550208710044,0.04131227998103389,9.641619782146446,-0.00658572852030755,0.01713984269288266,0.007347513665266368,7.42
-0.14781960855609896,0.02249266911371258,9.825703416228638,-0.010520997105521564,-0.011008874835457441,0.00408971382981759,7.43
0.10317083133747923,-0.02694137693348811,9.611863845629621,-0.009883026904105214,0.012132824050411087,0.009549472266957848,7.44
0.04549136615085106,-0.2917605712872941,9.669988673151462,0.000465241735988446,-0.005103288410735676,-0.0019401194088834843,7.45
0.02488184692120443,0.0630938399641708,9.726208949844048,0.004351545041090516,0.0038695932497435272,-0.012275678584870222,7.46
0.16825283821018794,-0.005989971158799675,9.691747001194129,-0.010218552495741592,0.00021094980178203407,0.007624710856098296,7.47
0.023284262429873075,0.0957088000234014,9.721743724505956,0.0024392290413800654,0.006601106978109789,-0.008965657388829967,7.48
-0.1521334299546654,0.10111273774243645,9.915451160568338,-0.013719179024326374,-0.008460486739314566,-0.0016975457414793432,7.49
0.09887693000212065,-0.04919264554388883,9.738075333948963,0.0026533234304717923,0.0040328663303805775,-0.0056534969310809025,7.5
-0.12544830545480767,-0.10145393985997397,9.856646626708656,0.003180240288967368,0.006253291336113332,0.0003649571241613607,7.51
0.05356994177790167,0.0410016066840522,9.757814429694946,-0.015972013625288547,-0.008352416180946657,-0.009056486427661591,7.5200000000000005
-0.0854972866449122,-0.07524440357386514,9.681533100150256,-0.0026673218841112077,-0.006235620065082263,0.01641552982324745,7.53
0.0854226496078309,-0.07665142936823699,9.629220234075023,0.003230842132212728,-0.002782878600017541,0.008638422303498802,7.54
-0.10139682697197949,0.05756615526480766,9.787583465571458,0.008450836781703759,0.014010856755192593,0.008030568092226763,7.55
-0.0037256824024184143,0.15211233504425808,9.748760715674738,-0.010529365902306598,0.010740149023155985,0.004475898651804284,7.5600000000000005
0.03796124106554264,-0.13295600170765903,9.70731338429763,0.0021102186385472104,-0.010046795376282995,0.014932956323236575,7.57
0.10259980987586322,0.1935523715359729,9.827525239148962,0.00480059296198994,-0.012475885274591165,-0.005860594070575011,7.58
-0.09142442759148661,-0.1074796892165335,9.828859877318331,-0.0006797823717032314,0.006984276053594759,-0.008593326959810701,7.59
-0.05078854915693257,0.03887619490743499,9.83681011805568,-0.0024017796115517348,-0.01167687069832168,0.0036482015018639373,7.6000000000000005
-0.01415234350884257,-0.12180795341797357,9.72790660847634,-0.01447498543040628,0.005919899111856107,0.004815714904344147,7.61
0.10971254148863041,0.02117710953172628,9.652124994224351,-0.00588143401352914,0.01652140640396859,-0.011705502858936569,7.62
-0.10573853538941454,0.06622108748408324,9.85280511515736,-0.002401718998420692,0.0005518564391921127,0.009613219055340159,7.63
-0.03162068384182825,-0.17185717867121297,9.790638906780218,-0.01082705199853814,0.009319087303978422,-0.014267082407857247,7.640000000000001
0.10548543992186926,0.05935854563101272,9.691885723300626,0.005802644162870728,0.004227751055677172,-0.006075062848000661,7.65
-0.06643299594827932,-0.22601642187831794,9.7485500184659,0.0008751550235170918,0.00794014134295416,-0.004752323375781105,7.66
-0.05671418873066746,0.035901824629575446,9.722403712386791,-0.019745963018587047,-0.003913703660687617,0.014577811985075906,7.67
-0.1757668968018783,-0.09027060175142576,9.886665338828974,0.0049611228054440085,-0.0017394668468458923,-0.0037530604291086574,7.68
0.005522832156313828,-0.03251332972825781,9.647409514758678,0.0057374745793379945,0.012632696388588919,-0.011349660856098027,7.69
-0.10095119103561677,-0.06619015461556596,9.779076234357909,-0.01825819200011796,0.0030335993106802212,-0.004357617508813621,7.7
0.09779719767477484,0.13165939195090368,9.845908179339721,-0.006142232527375623,0.0005876719023853925,0.01784341447743055,7.71
-0.0717796011599093,-0.06764147353732337,9.745776852267978,0.023520381364407723,0.0010224040999315823,0.013354815373987767,7.72
0.06907450116617449,0.06176628063034149,9.75632690670548,4.469224520369992e-05,0.0023921757445244042,-0.004268623075358839,7.73
-0.013867387295189847,0.02949308954126323,9.788649892272186,-0.013930146781031879,-0.0037300200319887217,0.0026486477410829507,7.74
-0.03240595146013727,-0.019615128601358372,9.860737266131315,0.008121615816626081,0.01752646699319073,-0.004090968196021663,7.75
0.09687579929702583,0.1662521045539104,9.59379283173008,-0.0003419989796652673,-0.01116113377547133,0.014353849872618146,7.76
0.04907923419386134,0.005524425187958159,9.9435725599251,0.0027256523320623566,0.0038712861921678006,-0.004627195484024542,7.7700000000000005
0.019588267558274232,0.02035746297142275,9.694609861374067,-0.010151282557564697,0.005681016542478438,0.009194441425262411,7.78
-0.13205510144174146,0.031551177920182756,9.875044436118595,-0.012429254944895765,-0.007057945428598373,0.009509783717122714,7.79
-0.020846430332371338,-0.06745095108040136,10.043566933966076,-0.005165976186479092,-0.003686560342901007,0.01687852596824805,7.8
-0.06621119355674958,0.02309021861287077,9.741291811460577,0.0057199999193159766,-0.008539902121912486,-0.020653238717407884,7.8100000000000005
-0.11130797151188704,-0.021387841318461064,9.634352869094991,-0.005170779124081997,-0.022778393565310494,0.013969394827364758,7.82
0.1089664384716264,0.033707257373019266,9.755956669679584,0.008059968580331936,0.010577669194431392,-0.0013268784313861964,7.83
-0.11981556275336247,0.07582369534127816,9.701855522682916,0.0013538311106219884,0.007975993210566648,0.007020793681992012,7.84
0.0837307496964152,0.0016452714558043786,9.836419494265245,0.008749820148883976,-0.004316062352590176,-0.0048225549196226234,7.8500000000000005
0.1149630419784916,0.1125366340622389,9.871310359281024,-0.008875804741335588,-0.0070620169517110285,0.00035894309688676496,7.86
-0.1628556990030626,-0.03334004381732668,9.814693411930776,-0.005179483444290447,0.003052460560711256,0.0009807366119177513,7.87
-0.13691925137319813,0.14724851492461863,9.691857268301995,-0.014849114910761027,0.014355555679769434,-0.02023312085958539,7.88
0.20823814299556087,-0.03330610126433597,9.874807291903883,-0.006272544756596634,-0.00019280779343448847,-0.007907608401087124,7.890000000000001
0.12035072955256282,0.009855169373718192,10.144584556445379,0.006489122099252628,-0.0030261833187402165,-0.00016167977184056934,7.9
0.05403829015463192,-0.04406237422146308,9.844795203321938,0.020566686376993798,0.007893687054543363,0.005954718022534337,7.91
-0.0735113563131333,-0.002910076496723113,9.820430973350934,0.005603529521264094,-0.024123535679766116,-0.001208331403724173,7.92
-0.12749794681853557,-0.02331745804371527,9.903028541548641,-0.008927357053107144,-0.0036669194960045714,0.007459164477289058,7.930000000000001
0.14927907976380034,0.22902029287770126,9.680182973922507,0.0054570271985198305,0.0013969743550061567,0.011224388940004546,7.94
-0.009411370347084719,-0.1210140830123656,9.801426746964532,-0.008651785643757078,0.009359428217337963,0.004881630225355812,7.95
0.09531086400983692,-0.0713477552418708,9.795387264745075,0.01140024215716538,0.004957332521867665,0.004405974451139395,7.96
-0.07923504224386907,-0.01451574056527728,9.626255740750102,-0.0038600219912489292,0.0023402121447321554,0.004595532475268765,7.97
0.01730577175572335,-0.09303747163650078,9.760788582650218,0.006349050886771114,-0.002486708363240097,-0.0020541258338958664,7.98
-0.10231627003320874,-0.0723491476302736,9.96441746895602,0.00944712691142529,-0.013975111722585615,-0.006597646930220679,7.99
-0.052748124965683874,0.01744549662483764,10.000212259583229,0.005504645888604231,0.004636257127294623,-0.0081551951218456,8.0
0.10453204650246561,-0.09390531296027325,9.71162876053325,-0.0032237690902393147,-0.0038182562753950678,0.0061690369549255875,8.01
-0.13734503292118874,-0.07838341100324374,9.74056262241524,0.008142475341015799,0.0033829580649372944,0.0006610030166039883,8.02
-0.07741928466329923,-0.08110161288583867,9.768119550829654,0.0017251395133264838,0.006140568007207528,0.007874771387055907,8.03
0.014828476577930919,0.03735031201755218,9.765981728387976,-0.003945120078708564,-0.00533219412498448,0.005735044921380844,8.040000000000001
-0.08765503029343907,0.008129129261438117,9.802524517893989,-0.004296371028830878,-0.014195424473686009,0.004001224230015336,8.05
0.04874066071178687,-0.11164655065217771,9.741286487364265,-0.0037385134035741265,-0.009162020176546177,0.025342445516558353,8.06
-0.13335965242626377,-0.08294604538199048,9.981062611926129,0.008094094263137333,0.013589712848029113,0.0029940186283756542,8.07
-0.11579425336569499,-0.1431740491299825,9.908210158932604,0.012258593387792923,0.020893612066880337,0.00011591036868057264,8.08
0.084758743248615,0.05475476547597729,9.811898037855107,0.0006291813911406778,0.010105032653172615,-0.006119203815247887,8.09
-0.006506498870738423,-0.06732205035761611,9.533681242370053,0.0052174478159323166,0.011688528854679046,-0.010206219670725838,8.1
-0.11994258960630147,0.16282290418448783,9.79051304181268,-0.013549324065901097,-0.0019051529260343551,-0.0016107856146777215,8.11
-0.011324371969794893,0.1278209063373856,9.768136272247535,-0.009687383480176144,0.014400507129659115,0.019387520843778407,8.120000000000001
-0.14390428017246246,-0.0341917035024642,9.726756746411137,0.007663503082062198,-0.0023462282463106335,0.004347003977999719,8.13
0.1759817499570637,-0.07285227139625461,9.95259452382663,-0.008756533331730244,-0.007354440275417723,-0.004485600452361999,8.14
0.012067032445821788,0.17471495629915934,9.700056365986999,0.016153399077033347,0.0015232598972245424,-0.011236028684546302,8.15
0.034989781007921675,-0.02299026383676698,9.77022724025355,-0.005218858303090553,-0.009148173867196348,-0.010843247597227506,8.16
-0.09010618684651335,0.10662795617474813,9.835691746655135,-0.0008966607713724133,-0.00011540851194775836,0.00217188543345077,8.17
-0.06453824552306091,0.00964189966876453,9.814407521336303,-0.001270234277402041,-0.000523555701068915,-0.004263827451949436,8.18
-0.10358364211560321,-0.12762273707421132,9.703890857997783,0.0019852273419362454,0.0020490522898836934,0.008480347104381105,8.19
0.17336543497635276,0.11778562287544098,9.875437997991598,0.0029587120316384758,0.009972718482606198,-0.0066534546884657484,8.2
-0.09923855813944882,0.11524770096040265,10.094478382207399,-0.003947645917035669,7.346884778116224e-05,0.0015080452950295073,8.21
0.10275467140425626,0.032861633528478915,9.684509271679074,-0.0017386615014031042,-0.0017806792742815689,-0.017149456092515215,8.22
0.0758253154451034,-0.07630662086442372,9.825392920773158,-0.0025008138459815146,-0.021068484982023003,0.00561143852206102,8.23
0.020725926476043998,0.03607098218552767,9.883986326897721,-0.006503889655373273,0.008034791408735222,-0.0005025952079745407,8.24
-0.11544783056324093,-0.07135894847656703,10.058458756590538,-0.008191555556498814,0.013979490208290764,-0.003431097756513745,8.25
-0.10968173530511538,-0.1646052708218667,9.828619689447965,-0.005917951478097636,-0.006846634814899575,0.007480900628647155,8.26
0.10469763485856176,-0.06981647395028387,9.809048188649543,-0.0006468612088370887,0.00553365199352042,0.000298779834759451,8.27
0.08478749550539548,0.07052599620017465,9.842396893426173,0.0024074821844505077,0.0041324976212192225,0.008719690242787912,8.28
0.08883009017892773,-0.027223297234537043,9.488747464129244,-0.0063268842947073614,0.017940911408971028,-0.009705803396964637,8.290000000000001
0.13958271690909904,-0.07402456699098564,9.78572707164976,0.0014915126740897712,-0.007101313961356714,-0.00542063450286988,8.3
0.142231565033806,-0.010384219682987538,9.825157748568943,0.00510631539644421,-0.008027595224655001,0.003346064476796372,8.31
0.16494270398500116,-0.326591750825084,9.764605509398871,-0.015991290144157035,0.009026415814262684,0.010175855084394834,8.32
-0.028696157419944274,-0.02568352094659018,9.610621401758719,-0.0028997214959959033,0.010346524790182972,0.0040899072731482005,8.33
0.04456459659682813,-0.09565690161434562,9.968291647420353,0.0077127179901287715,-0.01644118653771531,0.0011418187317908655,8.34
0.13189680581581426,0.04987213328082296,9.774461151874716,-0.006871378134611881,0.017849970901502674,0.015939204159916353,8.35
0.08449978755353033,0.12929117499694076,9.976236133846845,-0.0018904276392122724,0.004738692439726531,-0.0056999268990653015,8.36
-0.12964393305846578,-0.09599383413437558,9.767805992616426,-0.001120147591401144,0.007585544543219663,-0.003912602344635947,8.370000000000001
0.06419177943168702,-0.06531711882119164,9.897301893736138,0.002815561951946507,0.0010115442678085118,-0.023693073356787712,8.38
0.07195601848558872,0.06617081951424214,9.80453867090106,0.006755527821537576,-0.011721701101439832,0.0020514479531618646,8.39
0.10780264418516033,0.006012754977676204,9.890322017090966,0.019489559551541528,-0.008267320810921913,0.006277141684733775,8.4
0.14701559552108037,-0.05763348871970241,9.823423781071895,-0.0029700674889825635,0.0005641506522699931,-0.01403649505640973,8.41
0.07983914334089344,0.12683902570647726,9.876118009790684,-0.0019785769115101873,-0.017209793990709137,-0.0028510890969914477,8.42
0.060777571951957904,0.07630418408606453,9.922944888899668,-0.0012005950575216088,-0.0021770803968016636,-0.002181603860127729,8.43
-0.2800286134506261,0.05050348870978338,9.733334334991497,0.007982140875134805,0.006234437789577445,0.003954427949354596,8.44
0.04381427320813264,0.113159820787701,9.859122321620978,-0.01943681249098415,0.0007986483742252032,-0.0008299774845977926,8.45
-0.015869997979768628,-0.0028748539614529777,9.815516024039205,-0.00015491683275929732,-0.01921315812565997,0.003267156403008959,8.46
0.0485909470402594,-0.07212506361236524,9.881457511387696,0.0006474946793737391,-0.0037998411211456425,0.0019526836736995063,8.47
-0.06991425376297027,-0.21412793326877178,9.854511200377843,0.012079788767748421,-0.0001850996010119373,-0.03622185969300084,8.48
-0.18709833989267366,-0.028308682233778283,10.078125404350398,0.0019102195092882605,0.008249455435684016,0.0035751890201970054,8.49
0.1112415321754948,0.20625565901241202,9.752063712985894,0.01679850172174028,0.003431416901451921,-0.005318441796384305,8.5
0.0214761190163572,0.10396307799237386,9.872471294532966,-0.002932471434859896,-0.001808628078607915,-0.021522847143817955,8.51
0.021375221480161157,-0.09178580390061636,9.920614866025153,-0.010029891809675225,-0.01482132334435746,0.001918303263495417,8.52
-0.05494093285145765,0.06524087174855792,9.780115940009207,-0.011078596105771258,0.020979888210355707,-0.009310704614702387,8.53
-0.04304979481239646,-0.030018315398290182,9.697075652458444,-0.004391200829038921,0.007351784345096911,0.004041940496846775,8.540000000000001
-0.18904968300060343,-0.026563660804693634,9.884646307093353,-0.012462495639231679,0.010528876840059659,-0.0035454600070101657,8.55
0.10243286896383574,0.04341823353331359,9.882533797616905,-0.006750952972439404,0.016838215152810403,0.018198867757204744,8.56
0.01602588838441334,0.06595644894008715,9.867428278547507,-0.011569183087928855,0.003495933724100693,-1.0127873174868523e-05,8.57
0.01572869277446335,-0.08226387565504467,9.82429076527388,-0.004515000069881691,-0.002402258557839101,0.011479123559325118,8.58
-0.04355071538762523,-0.11152455110586357,9.877211648220477,-0.003934614569311727,-0.0046579289494284425,-0.0009758464668386563,8.59
0.10563173080090893,0.006357463518937042,9.781030593969666,-5.647786608429936e-05,-0.006776514101036939,-0.008639791461629126,8.6
0.10689626834058566,-0.037380486084280566,9.855030840979452,0.004162190352842638,0.016468732413473356,5.960263603554338e-05,8.61
0.07511487474340567,0.0581023898391033,9.947429557614555,0.005238989326024719,0.010733111738545775,-0.010444348065279918,8.620000000000001
-0.09639704763993744,-0.0013637407433649948,9.998033833931588,0.0006765697651283273,0.006125461638963104,0.012337752239737406,8.63
0.07760837377328983,0.03543930393669924,9.832764553419073,-0.002063025288377896,-0.0010083610819944043,-0.010102742313314097,8.64
0.014793885981602082,-0.07031561415307994,9.829666370516094,-0.012198415642872511,-0.01099004945613806,-0.00463650981816468,8.65
0.05445386390134355,-0.11000789535590405,9.937973496319428,0.011307275628305224,0.007550418533695741,0.0011845071159893204,8.66
0.18252801519527279,-0.07747798093370267,9.853480348891324,-0.0033260223728923096,-0.007816743997937897,0.0004588200430624875,8.67
-0.00809141127961928,-0.10005525180243431,9.808960973326286,0.0015265943519400665,-0.005986389513338551,-0.0088246491621602,8.68
-0.09977856972267754,0.14503871579124455,9.895322413746804,-0.0003420147568479804,0.0019112858232301106,-0.004770588358272266,8.69
-0.053520031534206106,0.1048726192774428,9.645091996075433,0.00625464403299391,-0.019250379701863544,0.013174744424551507,8.700000000000001
0.09730130476135114,-0.045042487016428066,9.949855647936152,0.0001547201366138253,-0.005883942724936455,0.009764935287395615,8.71
-0.029248379680278925,0.019492766575952163,9.65104760040999,0.01102935963838693,-0.008730898693900889,-0.012706528437145537,8.72
-0.030605995346179672,-0.1075578885568051,9.821070846828999,0.010964637734194498,0.002691873478858176,0.0074358138924315335,8.73
-0.06976853895409194,0.14804013369019012,9.782881299279646,0.009488380526355764,-0.0049909330484282114,-0.0024161006216497365,8.74
0.010151999745148571,-0.1932088112754434,9.669051477186434,0.0008145503711381155,-0.006515321181507957,-0.0028045883947256985,8.75
0.24698987853553178,0.06750784590225307,9.847585197403674,0.0012383683951381246,-0.019226609961012903,-0.009430349192607572,8.76
-0.0012532250077169544,0.1767463086322165,9.958923647922731,0.0046265938191874445,-0.001859309049145674,-0.003414885750854537,8.77
0.15983094955404617,-0.03871172811622983,9.843106277952394,-0.003572866114423649,-0.009830794118958257,-0.017227618405165245,8.78
0.09260484493716124,0.07822620330340826,9.953654452511882,-0.0022471512558517124,-0.011949637758491824,0.005765154685215149,8.790000000000001
0.01510845984928968,-0.12614399565443452,9.792556864703343,0.012262741314895258,0.003279011255953608,-0.00723256369217297,8.8
0.04789750071877866,0.09590952621373296,9.772258736960842,-0.0138142335107284,0.008365718528491167,0.000880949502085264,8.81
-0.04222724299170127,0.015834649637402925,9.929419862953702,-0.006944901018961902,-0.0003485693348911846,-0.003293302161608105,8.82
-0.057982541960632177,-0.18544515033559936,9.807616530294586,0.007170862880019545,0.001638284684780237,0.005637791292754004,8.83
0.10582535742417465,-0.059237182250991095,9.717197272384007,-0.010864634386602881,-0.0005618417906169587,-0.008310242072245087,8.84
-0.14725642359995758,-0.07315420669519763,9.981285455915103,0.017446754566173693,0.014102516691236392,-0.003226714221413887,8.85
0.08101301358179613,-0.013208032978144907,9.954631500014253,-0.0007956162775517088,0.009405086596543048,-0.013049402139044583,8.86
-0.0188614867859339,0.07515319774088598,9.76452011497894,-0.011109119655433066,-0.01404228228375526,-0.01801233485216454,8.870000000000001
-0.030699418258930612,0.006791812522224591,9.9340662020682,0.020378864084158094,-0.013626835319995931,0.008284229374950705,8.88
-0.006160718339916789,-0.061813558040326025,9.955540068769096,0.006351416486374474,0.001175091440811007,0.014497449649454488,8.89
0.13607323317153594,0.02833584595250792,9.794061831428678,-0.011363080659706967,0.004360617783051684,-0.009250069739283329,8.9
-0.07190725082950739,-0.0763042244643215,9.701786317867727,0.011016464317078667,-0.00028653573200632516,-0.002716845215284844,8.91
0.008766413297682005,0.09443558061713508,9.752754511647378,0.0002539875511804843,0.00969091395312925,0.004595671445091755,8.92
-0.12221290591496561,-0.04062869069195244,9.761927826993581,-0.008724792505865725,0.007791269697467604,0.008601923474291416,8.93
0.04075622644677687,-0.10202997279464415,9.887551410585187,0.0067998152517884086,0.00269457146403242,-0.0010676250468050585,8.94
0.131762998856174,-0.11217369647265557,9.857980212165579,0.014345847475305512,0.011077818478967983,0.0026784471960196697,8.950000000000001
0.05286542406042108,-0.09334004014362758,9.769291602004193,-0.000760353511314759,-0.012421580575314737,-0.01292595717116239,8.96
-0.13552086840739905,-0.018884816967468812,9.788801372952262,-0.01246075148334674,0.0023533872288426564,0.00028847773616558035,8.97
-0.07839262588099742,-0.05249965448843753,9.724086876590357,0.00120972671749039,-0.009514038676479035,-0.011048785520417407,8.98
-0.09794953443267079,0.05598218126036032,9.833242188159845,0.012923208732089263,-0.0031058581554113665,0.0017328602190712237,8.99
-0.004077548722826153,-0.0037379438000964115,9.723978899599308,0.0004001786857072616,-0.009575285610899365,-0.0064156523149619385,9.0
0.06863665275854593,0.06612887747822609,9.73774293234701,0.019869304602977502,-0.01724901021149617,-0.012244084299511944,9.01
0.10956964318271503,0.03571268860680084,9.761916871405607,-0.004106379864204833,-0.003843374047558332,0.0031017360425609213,9.02
-0.06072709938241552,-0.13277558306584414,9.862598854490043,0.008034516600224636,0.0011788745287238931,0.0022385409874470406,9.03
-0.10003082219658113,-0.06670855446020968,9.554039366332512,-0.013679836093362034,-0.011441523690476322,-0.0037845788412753534,9.040000000000001
0.017002863075943998,0.05525802132324971,9.9501065884928,-0.017442843397706822,-0.0014379453833223423,0.010924648085067188,9.05
-0.1287719108527565,0.02660338733244813,9.802132966955064,-0.011262561865384829,0.004578457050031659,0.001758468256570721,9.06
-0.2211153774441863,0.08051617180281484,9.791705533710589,0.016806616354121454,0.002842870222298442,0.0043882972822986074,9.07
-0.10872721432321802,0.02539765649891213,9.803226696985867,-0.013430992372120573,-0.008374805925569908,-0.009027831094001825,9.08
0.06392786494511035,0.06144568407318675,9.897814109000185,0.017314097107752432,-0.0011910881754349457,0.003447134658711617,9.09
-0.0786829202540274,-0.11729342256354319,9.745043197535747,-0.012350739459920474,-0.009390563131700504,-0.012522728160670089,9.1
0.026528657224503555,-0.0660407167379825,9.831313939708824,0.007993197870947492,0.009619419874991954,0.010148134766763602,9.11
-0.016937370590112584,-0.12588489051145058,9.877855548850643,0.003998480721985003,-0.008401187518707632,0.008967784970227152,9.120000000000001
-0.0658608698758171,-0.03660061207069933,9.918350997046643,5.2265529524541154e-05,-0.00017021382894818674,0.01333197819499802,9.13
0.06856517414890122,-0.13451970657954532,9.77915562538989,-0.004684688808220503,-0.008730374740147165,-0.01217459667716133,9.14
0.018310423073778004,-0.0877570113426208,9.913941624595216,-0.0025524827423928876,0.00371271706217542,0.002779527446925677,9.15
0.1155647220509175,0.17606444560791357,9.512677035218413,0.0022582199629530295,-0.004816140285324464,-0.0007787405171786227,9.16
