ax,ay,az,gx,gy,gz,timestamp
0.026319136342535174,0.061741513424027276,9.846478923154326,-0.002277432962393871,0.00024396812765263348,-0.0026075317351228135,0.0
0.03072004161887525,-0.20703317474403865,9.769912293912299,0.0011000427113363473,0.008497268747677375,0.005656146463996782,0.01
-0.06504590957965689,-0.22776146130469177,9.859569301174407,-0.007625538032908985,-0.013711427777811527,0.01062042802166843,0.02
0.15694101367711327,-0.017140013470996907,9.819289627785205,-0.004274306285997544,-0.018161843327094362,-0.0046906906408368055,0.03
-0.14212747581133628,0.03894338421681947,9.951396203677039,0.009977373964817833,-0.002851214509300451,0.009607068531164213,0.04
0.05370446210319949,-0.03975190320983489,9.710179721960124,0.013107983296067167,0.0018744171335530926,-0.004515059375429438,0.05
-0.09106098653312666,-0.1103772736004137,9.57728600404716,-0.002071266474073142,-0.013805261941570264,0.002371499391894411,0.06
-0.008031927840909042,0.011523356647506392,9.75309302597789,0.0021380903212341908,0.0018102632103387487,0.006872499294266282,0.07
0.027768593102164802,0.08532699986055503,9.735694253228502,-0.0015365490706730851,0.0012069917384103937,-0.01839664957495064,0.08
0.022411356156475895,0.10929362469982978,9.78151482569985,-0.0020466501645960327,-0.010541547869125213,0.022619263649233147,0.09
0.1654433349736024,0.025864830129247635,9.777386298097683,0.014960416066569544,0.012826058051576755,0.004364108752248103,0.1
-0.013815429023331945,-0.07267132896655748,9.761476730661668,0.004475282918211917,-6.406195459396557e-05,0.006845157784077635,0.11
0.07338934729415014,0.016436380931466595,9.867548625273672,0.009220436753743202,0.017240160549947984,-0.004872509820531938,0.12
-0.21150460710069374,-0.09979637016054008,9.75700065582678,0.0015387551750596304,0.008060368527244798,-0.001359544112304636,0.13
-0.040074817808285285,0.12629105238327237,10.1273686126892,-0.015455749829413688,-0.009450706195194444,-0.011497214237727508,0.14
-0.017697233189524094,0.05708941671401429,9.846015013898668,0.0013962932463245342,0.006963008317058024,0.009512169936376925,0.15
-0.015617646983532933,0.06521618896817775,9.78820166731526,0.013885527576780392,-0.011474553937316244,0.009733618502503217,0.16
0.033867572082924444,0.03715292510536065,9.8470621049207,0.008592321994798771,0.007557246586250505,0.004619032856969929,0.17
0.09768534800893564,0.05436021712684074,9.70275455374847,-0.001338522829589141,0.0018073416816473558,0.0006282984179027014,0.18
-0.10808960914519017,-0.013173611078998762,9.901607971066493,0.005940617087692702,0.004629296476608869,0.009881402823706578,0.19
-0.12524480804904015,-0.0752498737281494,9.738042174822088,-0.01030152939651607,0.0002391856242050061,0.006119658061226887,0.2
0.2248578294504501,0.0970619688451883,9.80767725284133,0.010948383236341022,0.008605317273868538,-0.0017902008199890682,0.21
-0.015170817776254734,-0.0281381561711742,9.811640684409202,-0.0011810444423910476,0.010070241700691014,0.0019459643638530392,0.22
0.00954243281966291,-0.06215622496510832,9.800920756031699,0.0005997682311139894,-0.021348083216273905,0.009617767936736934,0.23
-0.12059062461297387,-0.1565726748116237,9.754122280944747,-0.010602172208259129,-0.0029199679607426537,-0.008118075087072692,0.24
-0.10584870163204817,0.005546850480145727,9.716327193094852,0.004574727510747233,-0.008109783123627815,-0.000983206844980689,0.25
-0.06231544656883331,0.19237458688957276,9.642540168236632,-0.009018325529902898,0.008492115870448905,-0.005060429130808294,0.26
-0.019280188287933552,0.03390555181007336,9.851835293921898,-0.013079027765393318,-0.003977643388559904,0.005289141270241713,0.27
0.04944560501202473,-0.07227189046787184,9.868199107871778,-0.020979174663147485,0.01790954393080192,0.007088346801819621,0.28
0.004510081700623414,-0.062381519369300024,9.832533724222884,5.8912392696789265e-05,-0.0017723870812450093,0.0057202915405000655,0.29
0.0008689322227039562,-0.06450361719438821,9.94353908687524,-0.015396590122507863,-0.0029319723141658727,0.027841529470607054,0.3
0.03472172604794079,-0.06078529004565974,9.876876576690705,-0.016661763629615595,-0.0011488887860627436,-0.00789475612294814,0.31
-0.16696757274014257,0.0917566324882605,9.740130032001087,0.006533975711003587,0.005393717119688288,-0.007122983558762702,0.32
0.07318313634503659,-0.05884505011492424,9.718961438640427,0.011154753108302948,0.001249839455661755,0.0019377382941617256,0.33
0.0039215743029023305,-0.011247955639631239,9.738462249050796,0.01501274388619021,-0.003982159610087913,-0.010831750486223868,0.34
-0.008561425692698623,0.05266486977472659,9.70683363143971,-0.005051466441174689,-0.00366129912345669,0.0007577189290417647,0.35000000000000003
-0.20402652594103726,0.09090517205858907,9.810664695875603,-0.00438047363276562,0.010583604392499352,-0.0062327827718104255,0.36
6.21775524683083e-05,0.11434854238283819,9.773732997057321,-0.017624275408988865,0.000580320638079723,-0.001896747408280988,0.37
0.10299080305411945,0.03423048433598382,9.860137599904986,-0.008126714830866206,0.01385076560824574,-0.01033003635355051,0.38
0.09758701963841528,0.08772588856802438,9.809713291721815,-0.002146747923329041,0.001270408461070579,0.006433629150127945,0.39
-0.10710469255876294,0.011894205902626796,9.731197785294029,-0.001705469411482226,0.02465923902953146,0.0044050646871351545,0.4
-0.0037517619956585293,-0.0002674639794207966,9.708769209415888,0.004807591944351968,-0.005892563819369709,-0.00660452707495847,0.41000000000000003
0.004961597689838035,-0.08392405167918308,9.759768037479672,-0.014122129660516902,-0.012538717269782609,-0.004198877355866083,0.42
-0.0366432051911363,-0.038379834332773304,9.875044685659473,-0.011125317563815951,0.00016897362340999525,-0.012062012018133554,0.43
0.0004947795197624689,-0.026214113080650126,9.740060667687654,-0.015238349634009695,-0.006796603992467195,0.029050242326789155,0.44
-0.024031288343846036,-0.07459758511452667,9.852057919035161,0.004297775034452422,-0.00886488313741248,0.021069371817356887,0.45
-0.012016088184937136,-0.18522027410297123,9.797036986097323,-0.010985282008015424,-0.001448288744257926,0.00024399742515427211,0.46
-0.1339581565423436,-0.04310090147715896,9.739097537960987,-0.00290929059316417,0.006271928277262067,0.007840493287012081,0.47000000000000003
-0.06249076474533652,0.10281229463259244,9.822609338788766,0.014423238756963759,0.0006775295072775993,-0.0033142041016476337,0.48
-0.010905417503176265,-0.0018628841640760338,9.86911754260856,0.0011586283489235219,-0.008605713691366533,0.01100939456029111,0.49
0.1661508322125467,-0.1362385841191615,9.758173016977116,-0.006136660072234469,-0.004491243361201919,-0.005213791382691116,0.5
0.2572858681305634,0.11551564821640777,9.761859576723667,0.02430523734132492,0.004305102979749367,-0.0029427415081381635,0.51
0.0010960575340067562,0.0715265177254059,9.90697659672248,2.8817717993877168e-05,0.008262168621601925,0.011956880011459286,0.52
0.042850163909908694,0.07819498221895152,9.846265893194529,-0.0149975035000426,0.0025574704041670436,-0.0012120982976383157,0.53
0.008511687796378306,0.041586117586493034,9.867350998035649,-0.0006763773463930356,0.015983821577442856,-0.001327957834840055,0.54
-0.10101431866322935,0.2541429143658252,9.73747307517554,-0.014748896389394046,-0.004453848509903774,-0.01728052005624281,0.55
0.07405805423259498,0.028890791678587352,9.778638107199916,0.011085169948180422,-0.0022943208507955415,-0.0013746235454000536,0.56
0.1338193720733984,0.051052570035849947,9.961086964949757,0.005673013150433705,0.0004940619035236807,0.0019513372187069378,0.5700000000000001
0.01557722359931272,0.07919483664141744,9.831317436204191,0.006641541371841406,0.01550208277284209,0.0002494630060598075,0.58
0.08285346371402014,-0.10725953971434539,9.858974939474693,0.01030538904710317,0.015736941533004166,0.0152054419361402,0.59
-0.06025449484183613,0.04851200205005868,9.78391916425822,0.011596569534854455,-0.002492912659862721,0.0033220159461564494,0.6
0.21392659525545615,-0.08473288247027086,9.949426777017429,0.005074808944039536,-0.012132748429893815,0.011731308228116142,0.61
0.1442496444743345,-0.1671593246050251,9.812340544727931,0.006744393682224755,0.007012452657929412,0.0067447416261901495,0.62
-0.11694924380463285,-0.08637570394188197,9.82377585899454,0.011834940239914047,0.006739582826397175,-0.01215369496150875,0.63
0.23555054679447274,0.0547604173281251,9.901180030508161,-0.010020372211015505,-0.006187767865638929,0.003959926601940539,0.64
-0.07776894986642757,0.16136729286933824,9.771451100523581,-0.00488075445595224,-0.005066363806112896,0.0002661626135570399,0.65
-0.06752494613293303,-0.029702281061742383,9.89151608856168,-0.021363926934665822,0.010365217339309483,0.020099844657528006,0.66
-0.15741712251469886,0.09445267369595421,9.760531583704488,-0.010411442445744915,-0.0001654092524310095,-0.01757202770313003,0.67
0.15016099326994664,-0.03247747965532369,9.786658956721206,0.002827000070585753,-0.0032235905305445216,-0.003589344430683307,0.68
0.21655034397424117,0.16522398309723457,9.766686458830888,-0.004624016895920526,-0.014306635110076227,-0.0014295794184771755,0.6900000000000001
-0.0989495616028437,-0.13592885592406498,9.806110029541864,0.009428381725847337,-0.003594221395149235,0.0025189901095686875,0.7000000000000001
-0.12904302169398144,-0.0862984616340437,10.050068977859672,0.00807464621416304,0.0015703904254437075,0.009940737259425387,0.71
0.24443189757248268,0.06724617454548885,9.898973922431257,-0.011080669009432633,0.009678429599456988,-0.00842501014767873,0.72
0.18143877528266628,-0.04060615099741587,9.7780798079461,-0.021711329265952567,-0.007376460958749433,0.010237297609184022,0.73
-0.10258573781861835,-0.14274035005360763,9.764208531283424,-0.005293604396545581,0.016942761231606002,-0.01159097739198547,0.74
-0.04165957034466935,0.02123764055263187,9.784556156249327,0.006494689368556622,-0.002313227103771462,0.012949712172822578,0.75
0.1060025615197817,0.19596082885345886,9.851979329424909,-0.0035851373432384827,-0.004363009686255895,0.0005902055277877753,0.76
-0.17008068271179685,0.029572817454867492,9.662831468259428,-0.008192324100822868,-0.00507598269955987,0.025223454234908457,0.77
0.11688200874634705,-0.14540779200018347,9.793126660432595,-0.0030593438030734467,0.004559630468810589,0.02079863984834121,0.78
-0.1117684289997819,-0.016567121160716486,9.709693002897996,0.019900512728609657,-0.006754777981000224,0.0018867264069271452,0.79
0.06856354519455311,-0.08373879630483086,9.963257846429256,-0.004315927294388672,-0.01298727139803399,-0.015881149593152417,0.8
0.0617172464533191,-0.018790268624801206,9.596990207108467,-0.006061170794400703,-0.007937281949522113,-0.0018205500419420124,0.81
0.0455123425323813,-0.043443212241829086,9.871586150143976,-0.00099024183089292,0.0013759086119880597,-0.004807109915752604,0.8200000000000001
-0.0038942046226043848,0.07304164078574563,9.869231825619922,0.0013470472434015458,0.003224778564299798,-0.001781612858654892,0.8300000000000001
0.156471171064375,-0.09468631347102961,9.886762459575463,0.0024266723787175655,0.020034061715791397,0.004460707094191285,0.84
-0.04255917419975343,-0.02133280710814659,9.784507006024652,-0.011705466515112496,-0.001801186185608729,0.004881889467402959,0.85
-0.007191588845973514,0.12118009123976103,9.769487231525286,-0.014650685068455054,-0.029250595273562628,-0.002541759850568814,0.86
-0.009770246790012531,-0.09533415867013828,9.745558399858401,0.011248184416128956,-0.013081719799968231,0.023214395755958947,0.87
0.02346069664583056,0.05002764126561592,9.897965922150894,-0.004975890602786875,0.0031713126514397393,-0.014981685477890928,0.88
0.05017717697577602,0.2208547092848594,9.858797030194529,-0.011554479150587101,-0.007994239449885709,-0.009017959491298319,0.89
-0.08016619153293908,-0.05947910747926576,9.749641690885674,0.003366746091544082,-0.00716989902553691,-0.004429561906480805,0.9
0.03513808779581774,0.1435271182587505,9.61492133555811,0.0077288910650335566,0.008833583187163188,0.028018803294581823,0.91
-0.1457557619755118,-0.029560806968477283,9.802003698162954,0.005043246350099134,0.016872973633535772,-0.003171316490249846,0.92
-0.10234321495835948,0.11904707251820745,9.918856918878047,-0.0016024604869060224,-0.0023506127655456917,0.00701469340945283,0.93
-0.12760999467576276,-0.05958099458897336,9.791178711096173,-0.013305071131050299,0.008248132415440649,0.00013924775531030703,0.9400000000000001
0.28419443298111335,0.0502062956579373,9.756287200929671,-0.01163905603105414,0.003180598117378827,0.023239017242350345,0.9500000000000001
-0.013367292518961208,0.13377385864039656,9.758814507176405,-0.009114865428491731,0.0024257590127058164,0.002785860864449226,0.96
-0.15198796193307473,0.09491410450100893,9.704723047551687,-0.009769593365378878,-0.007847743894271217,0.008281581588721023,0.97
-0.040325513384690835,0.08475960561061811,9.85595034098475,-0.01748237151342243,-0.002674166321395075,0.00655309650760516,0.98
-0.00036829963753203074,0.10002259675910263,9.888103538041467,-0.0008433328889647213,0.008522269329323748,-0.011935391503216078,0.99
-0.09739109894281517,0.30837795422226766,9.686415547356772,0.005145678007163923,-0.00019782301668582857,-0.014777260511893969,1.0
0.15209449981667622,-0.11840704362412686,9.83640001606243,-0.005122169517916144,-0.006296310181482491,-0.0005189245209856443,1.01
-0.04505190460063485,-0.0017606204827036141,9.785078991557587,-0.003533022352189268,0.005631848259025211,-0.002351608072418206,1.02
0.03297230695253561,-0.04383479081944977,9.733881436680782,0.00885443337877617,0.01858757892898637,0.008285660626339895,1.03
0.21828430585177308,-0.023421356405442854,9.716824489347058,0.008396085082585719,0.008627051296141343,-0.006810288363629275,1.04
0.1410584397301163,0.0391885564591159,9.656877938999473,-0.012702247617069165,0.015227563041048229,-0.006326203784119342,1.05
-0.06791621043206922,0.028124997447532347,9.552668288394472,-0.022122096153130606,0.004796449432520909,0.011782974325492728,1.06
-0.06030152669465769,-0.022758335907546584,9.733184143691581,-0.005318802042242789,0.001190756028432304,-0.009970423186136881,1.07
0.017885534479061577,-0.07457228549176856,9.808837973672912,-0.0064490024396617876,-0.013388159554837948,0.016490433321498573,1.08
0.03228941688096184,0.04639977721246932,9.785708706565687,0.005333206168438336,0.0007072474841732265,0.008089671497513272,1.09
0.046123813699735644,0.09299666763242703,9.900718612039352,0.0035926964733707634,0.016291436718828992,-0.007446741214964351,1.1
0.1595900443411531,0.016043105755780083,9.906904597348651,0.001160963811457037,0.002016308171940115,-0.008562486914496199,1.11
0.05874974574270475,0.06369437746389685,9.786343244414017,0.0005157201961968432,0.002689878327320961,-0.015188968873947134,1.12
-0.07133553954771997,0.035284163063698824,9.698922630427989,-0.00972335707709116,-0.015113085460934966,0.002530582328502231,1.1300000000000001
-0.05611676210412839,0.1491304565892022,9.777534535933007,-0.009692250206713793,0.004113080679120212,-0.004112238586242367,1.1400000000000001
-0.17491683606317346,0.07431388724208618,9.778633643702968,-0.004384701490433854,-0.007825239813504541,0.010035950588662522,1.1500000000000001
-0.1000556889921333,-0.07085876600127387,9.785342097500134,9.274887234516701e-05,-0.010268893674744097,-0.005886059555177139,1.16
-0.03066040404344348,0.028971545443647856,9.745294282471532,-0.016249039389291724,0.008280571349100216,-0.009806181217839228,1.17
-0.1668692867512873,-0.07521658984546603,9.812838849705008,-0.01304062554954468,-0.003967228854707854,0.007773482368895746,1.18
0.044269602573763916,-0.1494742806318872,9.942003515594973,-0.008063593914170105,0.010297982287011847,-0.027120220494215763,1.19
-0.08501694006115482,0.2063792208950097,9.739506096642986,-0.0051651285440011034,-0.016043555285344874,0.00020198369579991406,1.2
-0.06285625712533548,0.0889839751053237,9.958804959786955,-0.0047291580375822045,0.0025763636048280166,-0.006507053992874704,1.21
-0.02267076504996893,0.1331157851934411,9.804375624580778,0.011554097971557951,-0.0019019702224345595,0.010384463277324143,1.22
0.041785575103249956,-0.012920729747072136,9.792274855349481,-0.010524726732868462,-0.001903904508791619,0.014210699938070413,1.23
-0.023993557013750104,-0.08762493317226178,9.80809321394295,-0.007360913326942752,-0.005538712190007156,-0.005030336277197238,1.24
0.02587484459319967,-0.04234899227853352,9.672930779854205,0.014706017509848382,0.0035653980566171493,0.010165318367292807,1.25
0.11046074313029752,0.002340515176378403,9.80653420574004,0.006249772323855828,0.0020415126906581336,-0.015153894889357396,1.26
-0.0614119975373186,0.09994044734759167,9.942709010133287,0.0034384995769134946,-0.01938428341548009,0.004273912274031197,1.27
0.11897759357308296,-0.1256734578680716,9.922953085242947,-0.0014167496169671362,-0.010132217121256481,-0.012399964196984426,1.28
0.214442983972475,-0.04389780478243456,9.736813664188611,0.005028072149294952,0.0015195898771535607,0.0010803339574631027,1.29
0.03978013856175143,-0.042056603854500635,9.686821776769367,-0.018036830984057294,0.011906502404971072,0.004286409021666377,1.3
0.03457645359917463,-0.04504045912929369,9.891854499887144,0.006139471540092986,0.008804381710578886,-0.010554232060844878,1.31
-0.10572038806662279,0.013720162128983429,9.743622462940847,-0.0019467068912843097,0.0032182501062653886,0.0005677472551539825,1.32
0.0715531504922919,0.0955853776990106,9.604016592831965,0.010829647122003348,0.008119160156190484,0.007782981257818339,1.33
0.15793932251652879,0.13488858862162253,9.726486151985357,-0.000526081962994512,-0.00890656346314047,0.00715307121529593,1.34
-0.1527365533045189,0.08884927364604973,9.975605573383392,0.005427599371492627,0.013115160604400334,-0.011626648998382503,1.35
-0.06947992630936776,-0.0673653972132103,9.455410750492161,0.00688138077565914,-0.0019792985230583323,0.0029132124155830607,1.36
-0.10093333771218115,0.01732757390743587,9.869353541983255,0.012601439242739421,0.0044088786210665564,0.002681584906979314,1.37
0.04019081729296455,-0.006039904504630241,9.806101672095107,-0.007745636912293557,0.000926781330150426,-0.01288807666915336,1.3800000000000001
0.13001058366326754,0.09162760264740381,9.786477669478426,-0.006791460404622139,-0.014944614022846857,0.006940248184966607,1.3900000000000001
0.13802121023392097,-0.13987625793245592,9.889042939208208,-0.0024742770863529252,0.0023672648775680196,-0.00153034085462231,1.4000000000000001
-0.13095872001413716,0.1442169468861946,9.940590799123681,0.006751366133903789,0.0104059875314908,0.0006439833852638752,1.41
0.1896235495164425,0.018942167008906358,9.907776593359042,0.009916175646897158,-0.013552419274109587,0.005797176536150931,1.42
-0.060057825153266055,-0.07435022924791615,9.851387693101461,0.023186794431279894,0.019617904181642457,-0.0093941833225685,1.43
0.07874311536387135,0.018394087943784557,9.758518879085647,-0.0018835410126232114,-0.001018357329831144,-0.0019765804809420066,1.44
0.07950263906975975,0.02376247392352182,9.925119689924044,0.0005471582679063155,-0.006766020891594455,0.003304799478015735,1.45
0.05910787195712722,-0.060720123009164344,9.787664175452855,-0.007093695714418614,0.0035517431584517986,-0.009902000559308654,1.46
-0.15141673402064493,0.24425903980564478,9.943599407281225,0.014369618714760555,-0.0007744813830878222,0.007423462785131908,1.47
-0.08069584780484107,0.08419518313074166,9.833726981536376,-0.010922617976645638,-0.00295856204001085,-0.010769779372291947,1.48
0.10236756397273382,-0.19067913474276793,9.684147281630988,0.0023792213499605284,0.004507716186928037,-0.014136165430292603,1.49
0.053697109254362864,0.002214111128841239,9.890773819102867,-0.0013587878145892404,0.002409306155115957,0.010891542737507785,1.5
0.01657470677000653,-0.16137648419061437,9.738103018339624,-0.009452199573798474,-0.013374835411330027,-0.004101480521522838,1.51
0.14369469617582428,-0.0010632989470418359,9.82716734019023,0.0023505128526440113,-0.012709062254034294,-0.0041721162217956895,1.52
-0.017908059439538836,-0.020542641151192174,9.731809741030983,0.003953427287324015,-0.013878592208106338,0.0017226678381927778,1.53
-0.08369828330831806,-0.11181216588310246,9.786278115780783,-0.01296995581655513,-0.01146555197477398,0.005414724065941348,1.54
-0.11886356437203614,0.16355716528528164,9.906332938903306,-0.012109021513648356,-0.0049130507271326375,-0.005772995804407159,1.55
0.029746312715231194,-0.04544779891450082,9.913584850341197,0.0063417896154445985,0.00900704583083065,0.023456934610718704,1.56
-0.18936873024923578,-0.039503564794574245,9.821909331777176,0.015100124291273265,-0.012353761835146582,-0.000835741820877746,1.57
-0.187353597950838,-0.04410363637994566,9.683392019267458,-0.00010259200757575717,0.0017240252817053267,0.016740404785416167,1.58
0.0540803530974722,-0.05710617217095054,9.911362107558329,0.00815637938258358,-0.007280246402157718,-0.01401304388517163,1.59
0.17371322001775458,-0.021238007572243256,9.900466747547615,-0.00595695687974684,-0.004378452202147744,-0.004978572704604202,1.6
-0.13363017344930114,-0.045893406999899244,9.910988612964024,-0.022951352887361495,-0.006537862970465744,0.00046364773528449586,1.61
-0.016085735133214513,-0.03332684566032584,9.885486566252755,-0.006843912535209393,0.005964920569336738,0.0018647552621110992,1.62
0.0879784682653029,0.08803461393667222,9.793576383422213,0.0020438507729599147,-0.0007884093862761045,-0.010714960814588241,1.6300000000000001
-0.008238622404304006,0.162223962812639,9.880362450100437,-0.016818716389391516,-0.013931222723431818,-0.006592013827339014,1.6400000000000001
-0.12791724521161546,-0.012132795478148885,9.691394611065906,0.00653384247708585,-0.0025823608504694207,-0.009901049277916678,1.6500000000000001
-0.11180166215271581,0.03967557380886342,9.8520247453109,-0.005384890902799044,-0.0006727636652840576,-0.0031328933983381622,1.6600000000000001
0.056548731743195725,-0.1410758967645486,9.858416432327209,0.006913431974763782,-0.008937765271297622,-0.004638062958958196,1.67
0.04361748308844982,0.011447666845145421,9.76309830131256,0.0122090922061803,0.009673547282093528,0.014066569161061328,1.68
-0.09162653898554005,0.1097593739629123,9.70145309470829,0.0010954297954927914,-0.00022081953491525367,-0.01838717338221754,1.69
0.053221060691391,-0.01347015426599878,9.867158125484195,0.0017859666356997276,0.003907478557859292,-0.00348026017359094,1.7
0.02585911098212118,-0.01455733159004191,9.751769829410524,-0.009028014860548182,-0.006664629465673525,-0.005607136328233118,1.71
-0.01711563140581825,-0.005754594290880326,10.039233111429942,-0.004745626559746433,0.00019046391708837205,0.0009804862217559468,1.72
-0.09276518388920087,0.039438121158232795,9.847404169542394,-0.005814996555269568,-0.0025840627259822386,0.003752856625469171,1.73
0.06669839116852581,0.1301653151353675,9.877060007524436,-0.003483576546258986,0.014364526641640254,0.0024284517331679195,1.74
-0.10184733579588218,0.1606784626296988,9.80019441386242,-0.00043574894980722383,-8.657960830727058e-05,0.0007848979727177867,1.75
-0.06709100958278713,-0.007878036709514688,9.712019025174907,0.00779382847667419,0.01700862081955207,0.011822387332160372,1.76
0.026615502958654415,0.04283494134622749,9.979159632209637,0.005633951554618432,0.02325151390125604,-0.007589109381395707,1.77
0.06743470459001637,-0.06430976177661023,9.802396513233509,-0.004861985728210121,0.007545089573055131,0.006765846622226354,1.78
0.08256032051200454,0.004447933354319365,9.800118649644203,-0.013110840940670648,0.00026060486746644617,0.009357539038471438,1.79
0.022864174803339174,-0.04886849314390526,9.840772309795144,0.006776349315879979,0.0163283724677486,0.0040213594225335225,1.8
-0.11976735196463184,-0.016703677400310406,9.912170152863304,0.002479397609675595,-0.0034468084452540775,0.01059435679657698,1.81
0.1860354941573914,-0.03442916111486431,9.803883861741662,-0.007200899983541468,-0.0010253929833812956,-0.02423939456079795,1.82
0.07989965626705799,0.004114697629876706,9.916134476798137,-0.00679893651100366,-0.004004959089369702,-0.0009310143226696655,1.83
-0.04896711366800256,0.2193787164677747,9.807532662110042,-0.0029962741992822727,0.0058418742619465915,0.002104876742978524,1.84
0.0680227300615747,0.06118545550725521,9.761388545657192,0.00446292127973223,-0.016333067255195254,-0.001740138854229428,1.85
0.08916266846834237,-0.04340010833233597,9.933051107246351,0.008025550041397525,0.0023617809907541813,-0.008479765739948821,1.86
-0.07601764929072495,-0.004600095082305032,9.717005675820912,0.019773391920289273,-0.009913148166866993,0.010919370257759414,1.87
0.05575394184817376,-0.01044949800434978,9.727137951923355,-0.0057405061314720176,0.008456168221410543,0.009456177074044917,1.8800000000000001
-0.20825464867478233,-0.029777217407539653,9.828734063928193,0.009982121768123655,-0.019450529249669148,0.011036485239450996,1.8900000000000001
0.010759465863839822,0.18709797712452675,9.926376072827873,-0.002034782366443931,0.01230377787198834,0.009052041396783112,1.9000000000000001
0.049280074059976725,-0.10049487030230203,9.77272688372793,-0.008133091398303406,0.010178560101036085,0.012543407860187228,1.9100000000000001
0.027435046249010078,-0.05497574666420281,9.970126463073813,-0.012448713451661618,-0.01771586395200022,-0.0042956959913482105,1.92
-0.06236036969324136,-0.09867655178394077,9.923921531138136,-0.02168366033956077,0.009286411934554354,0.010700106526386624,1.93
-0.03172185961398751,0.0050080760130397275,9.899844150770225,-0.0009855084421695804,-0.011410321033046827,-0.002815633209273013,1.94
-0.13385165458029455,0.0070244774537210515,9.93127665481941,0.02267025874176553,-0.0011685227061483485,-0.001795698068597028,1.95
-0.04629981797776996,0.12914395348044996,9.776533242201845,0.004054182359961269,0.02923363277860467,0.0008663230227367773,1.96
-0.11529711231335536,0.04893508038817792,9.858830047400573,-0.002480140764868687,0.0006319918189858568,-0.0006231229643246086,1.97
0.08038268842072843,-0.04347647173120314,9.679717757885514,-0.009185890187416269,-0.004642952219667077,0.012664068117373811,1.98
-0.06611001023171457,0.09307480541449475,9.790750277036388,0.005125831711981979,-0.014386407708655926,0.009077258405955576,1.99
-0.14733333343463392,0.0316156398901909,9.677197362472258,-0.0030635330585807525,0.00681609945723478,0.012025256210618094,2.0
-0.07381492504106622,0.11002618696560627,9.862754102583555,-0.012530280716772946,0.008294324975059846,-0.0041529720971135945,2.0100000000000002
-0.09553689557995484,0.06208210591318564,9.714480078576406,0.014015373972104204,0.007083082976648965,0.0007111769769050246,2.02
-0.20516686513606155,0.03817348389575274,9.938104393402918,-0.010475917569649563,0.023890234285158542,0.004530421700902044,2.0300000000000002
0.1250351802341099,0.020532286155195714,9.812626870423408,-0.002854295048407203,0.007004369875098131,0.009314807490307242,2.04
-0.09979439557432448,0.053537172406657486,9.692275343408971,0.0028061581512064115,-0.0050204164838894404,0.0008848855517905948,2.05
0.05701771947293747,0.0359156494966954,9.731105817063925,0.007457412089279344,0.011006173202240795,0.023326750493344976,2.06
0.06594650419637373,0.014395242428805258,9.822694668997574,0.010655735481505002,-0.002535652472356231,0.005219731080365864,2.07
0.08792412482239469,-0.057186784984764975,9.815642074100033,-0.0023308453170294177,0.0025806954717021435,-0.005000552598086929,2.08
-0.004184084820416568,-0.08365224783789178,9.664205698912442,0.002753940760516226,0.007441136379275618,-0.008598466117548845,2.09
-0.004101006409917953,-0.058804552410741666,9.695998764430158,0.002105272252172276,-0.005038975148465579,0.005489585368373679,2.1
-0.038679724521693215,-0.1253850465886229,9.793564068131747,0.017871706564401752,0.009560910259283054,0.017183171032949973,2.11
-0.11463479554200945,0.14345057984564547,9.879181599081694,-0.0011060159820536258,-0.02130015771683452,-0.016425804640322866,2.12
0.04309162844461511,0.11509460966730954,9.726226404500597,0.00911541342895841,-0.016507741913364425,0.0012626201677113805,2.13
-0.009494419222576047,-0.012753436877254457,9.799825217667443,-0.010329257263820963,-0.008615425184330354,0.013353300870696881,2.14
0.019111039980287483,-0.014464279813554155,9.807262890154771,0.004538180363843564,-0.0059608917385358465,-0.0017121471740183837,2.15
-0.11481129858945177,0.09630386904344342,9.74280177404445,0.003472979028959113,0.004722522055988962,0.0013820217832070754,2.16
-0.10717607485649072,-0.09088061499995188,9.759788369646294,-0.008320570596795102,-0.006731295794998786,-0.025059486763646967,2.17
-0.09761362133276467,-0.06347895944112285,9.976994019877877,-0.0031005140378403753,-0.014998636700172204,0.011883056412335589,2.18
-0.031664476352531584,-0.026981427743686788,9.84473044166968,0.007771082257999296,0.003168194717516532,0.0033438418515786147,2.19
0.017235483590602833,0.19873660601809995,9.816193556788475,-0.008359606510990809,0.005141789457636576,-0.005136901286111796,2.2
-0.15103532268644887,-0.1264944930268924,9.967654675406797,0.009012611701813117,-0.014346131333389077,-0.008362918137740045,2.21
-0.04363244255131823,0.020979593414245108,9.860824385448602,-0.002330345021939014,-0.0009906442398487246,0.0023600542516415924,2.22
0.0635171549427939,0.1175628663632456,9.89860474390845,-0.014661634062080495,-0.00046632949004725264,0.0029393774860562907,2.23
-0.007131450235934861,0.06058766293910194,9.884191809510561,-0.005665927801856587,0.021387092244473566,0.01027708670215059,2.24
-0.006398915546189621,0.008254758991192946,9.984943271103909,0.00134982326815947,0.00739253872093137,-0.005083288036110083,2.25
0.01951919343645044,-0.07443105499234524,9.854494374500414,-0.008891928233686923,0.01724045286841047,-0.004895336868135602,2.2600000000000002
0.16878365366207504,0.003904574547614444,9.744803959218386,-0.00985007626157309,0.0011512681088830553,0.0034670748394077023,2.27
-0.18720733490684607,0.08074677364346021,9.775340487664922,0.005863844255710971,0.007363750363767449,-0.014934864356582738,2.2800000000000002
-0.10257134668029576,-0.12188576977238162,9.704787759278226,-0.0169296077802899,-0.006095602986843748,-0.013066534943342343,2.29
-0.05910777445366873,-0.046326197149543766,9.705931775615154,3.405128775006778e-05,0.0030243550480424804,-0.0013345283539399435,2.3000000000000003
0.05706649496391961,0.1308259384794425,9.615967809502774,0.005706688079015824,0.005046292973837339,6.418160213643373e-05,2.31
0.023974618350685466,-0.022182032485946666,9.665808735289053,-0.003881138126864136,0.002091315813529031,0.0020839670236664025,2.32
-0.036863235200119755,-0.02342257515374206,9.685474580954416,0.0029745946441753065,0.0016293257118106675,-0.005371667625859326,2.33
-0.005549727205458539,-0.05963320931541399,9.743882673720714,0.0005165634813682569,0.014871618977005745,-0.0015308740369112301,2.34
-0.054039073284396166,0.020858211003663932,9.860325152549263,0.019705069822619447,0.01844295381796014,-0.007457683860498441,2.35
0.09057940911760712,-0.10968021307329137,9.865155170705528,-0.0019386712589921041,-0.02947822170285462,-0.00902002326098711,2.36
0.010026661624392134,-0.14708995551607507,9.8118425472267,-0.009034668742244926,-0.0038832323636305943,-0.011935659307656138,2.37
-0.017025771599930954,0.025627376597486776,9.797587928165708,0.006560690166178773,0.0027822319665745366,-0.009914737306006276,2.38
0.19874793123794962,-0.008206105673265997,9.801192635194228,0.0017632782519307628,0.0030753097220833836,-0.003272723154359899,2.39
0.07221849868023357,0.05083830008854223,9.861412552524664,0.012984144573919122,0.00840089770262288,0.012858444761998156,2.4
-0.03772494158266712,-0.012148067966726158,9.87513936981082,0.006964223587545062,0.005629976112432838,0.01017934992965428,2.41
0.13776211969717814,0.035544127087727674,9.761007103965191,0.0043731864621410444,-0.008057578369600076,0.012536307052128675,2.42
-0.08392382662520836,0.0842055751604105,9.782771390660667,-0.0170210936230672,-0.0040349152179131684,-0.006144791085368542,2.43
0.1072965273113101,0.07687298355075234,9.924864892810156,0.002311878049148499,-0.015826674812736863,-0.0024090626559805975,2.44
-0.05420057548785914,0.016799378856945598,9.640541627400856,0.008755257589466402,-0.004781106506360004,-0.01295577407954357,2.45
0.0021086073889843133,-0.03383181367884739,9.884917371694801,-0.008487694182691302,-0.0063116916980949745,0.00018271923927379972,2.46
0.020127120736066775,-0.025036808150556013,9.929265364896878,0.011206895455622944,0.009027786310820999,0.01719784038764477,2.47
0.07722981029977836,0.028794662773262997,9.805601793677559,0.010296789238152861,0.012196778637799688,-0.010210099297332027,2.48
0.0902714124813058,0.035023042375759345,9.791871443166453,-0.02101939310915317,0.010088323509293543,-0.010011186846212147,2.49
-0.0776796684046084,0.005723928260475302,9.832394385568191,-0.011138863940640835,0.007222806305574393,0.0021846225541123634,2.5
-0.01552318051420993,0.11385206626891485,9.711859655370816,0.010629177386514201,-0.004394334629154412,-0.0072009263859374685,2.5100000000000002
0.027005585990357173,-0.0549361308948688,9.80161795864472,-0.003119007042068668,0.0008364711640988915,0.01239168528080235,2.52
-0.03369406344366274,-0.14623064394853044,9.76986922400885,0.007657476898826128,-0.0018824395736533146,0.0067395770843107754,2.5300000000000002
0.0007492481022300003,0.09461001479214101,9.89417105577286,-0.009619262721207788,0.006261971362127021,-0.01933278182442263,2.54
-0.1278799066762857,0.0004952699323305658,9.767386170952767,0.010239482208175261,-0.004970927594185087,0.0037401222580569155,2.5500000000000003
-0.06871177983529185,0.03609409406965786,9.951101249776304,-0.014311829683933132,0.02041327387655232,0.009658524412779531,2.56
0.07294767749992478,-0.034153333550379694,9.990374642231492,-0.007652950634564298,-0.011487525257544498,-0.009859712291445766,2.57
-0.08381245054484904,0.032072003947072124,9.84154639482399,0.008485816840275233,-0.002655604932958671,0.0018780711557163916,2.58
-0.0299019741420131,0.20619512562825976,9.840908716389048,-0.022482475951979237,0.0051941415483840285,-0.010976961099661712,2.59
-0.23205950123782007,-0.054487097661384314,9.781562084390549,-0.007086262829180864,0.019792091435701202,0.0036416425202991,2.6
0.051286982005026516,-0.04778756086229152,9.833119815270415,-0.008948241695458327,-0.004969088460222986,0.008157232596744333,2.61
-0.01090947806326248,0.10070711254063372,9.89805012576229,-0.02548061422272258,0.008808705682273201,-0.014947303693830552,2.62
0.05080689245287262,-0.05768286416469355,9.721603613835116,0.005907037333288609,-0.017946669778036092,-0.0004019836679486266,2.63
0.1323484602133315,-0.005649662392124513,9.793529615615324,-0.006103477930059874,-0.005653062043021159,-0.0054469045567983754,2.64
0.09844506603538024,-0.04788462908692209,9.821194568002058,-0.003380264125862037,-0.0005844707842038497,-0.0009032262828862815,2.65
0.03936804857416638,0.0481152256816502,9.895504844736061,3.0177024283537013e-05,-0.0036376569832774655,-0.005106990202858227,2.66
0.10727595898504277,-0.06781381000276514,9.608613368481148,-0.019647893333871434,0.01721302286450742,0.020504682717984994,2.67
-0.0026309411936219405,0.03544856630629805,9.63570270090334,0.0009587565209227667,0.0072488313970948326,-0.009205538189285899,2.68
0.15683889826659447,0.06486863818687798,9.722261109797042,-0.026441821093569212,-0.014220498292760326,-0.009259834673203054,2.69
-0.007811630846761246,0.08331063620222097,9.867127782671163,-0.013026018737362428,-0.008531925250075486,-0.012713955021768815,2.7
0.012418320717982208,0.041986362621333095,9.829615011598023,0.02121194218381289,0.0047019713841609965,0.014468967472992025,2.71
-0.05149714839596799,-0.12340870571095375,9.817920366973922,-0.004842497361888273,-0.0033677851055714855,-0.03087654720389621,2.72
0.16258315685054936,0.08322711500365654,10.03797100862808,0.0010863259057009792,0.0012364430471095704,-0.003484850684035005,2.73
0.03788082383258531,-0.05422834740966129,9.777236189712276,0.0035892181056583305,-0.009450178157033704,-0.011327171755734996,2.74
-0.10213452155042307,0.021933029356416153,9.796230338407259,0.012020351067515127,0.023049202208520924,0.018449212890542882,2.75
0.05882091800944548,0.08397484317406118,9.710555457939204,0.01744213545807523,-0.0017778677102536302,0.004944442573785877,2.7600000000000002
0.004837222599940879,0.04981927223638381,9.709564398584513,-0.012085772563308375,-0.004347280786758748,0.01069512402001188,2.77
-0.037119703238404834,-0.11051918648008796,9.888642147531895,0.004847227668875677,-0.010816385307902174,0.006205807298182278,2.7800000000000002
-0.037004171672396384,-0.005332569308495855,9.665775668902967,0.005113500211451151,0.012415947409159009,0.005440383570903372,2.79
0.00029782612981868966,-0.04293809668150017,9.552835552411448,0.008391849775069477,0.01491945081846738,-0.0034849639657148295,2.8000000000000003
0.02445084436660303,-0.028833331653305923,9.828939150277794,-0.006710094021944324,0.00698449865212392,-0.00502825314890332,2.81
0.07969302402669282,0.08248836420977579,9.773771708699387,0.006245066468313989,0.009395480518311093,0.010075440067041742,2.82
0.11272535121403403,-0.00021292775630309016,9.835578329952899,-0.008673128764423608,-0.005459213501357442,0.01047679620130324,2.83
0.03821583682537012,0.11376383552457761,9.756900546270384,-0.016517302114580364,0.0014495914161510779,0.0028032049841824032,2.84
0.01974052370907335,-0.04212501571928538,10.017700065052443,0.020902840956719588,0.004668668023732467,0.006720648890181967,2.85
0.26630054774807127,0.09820656626010216,9.707649252026116,0.01329352684541665,0.017452422404704352,-0.01398471580777104,2.86
0.07791047187263417,-0.17464285282411193,9.756676065861177,-0.008338669900962227,0.0030460002712086056,0.013245078737282374,2.87
-0.15556131651804503,-0.13987238904026586,9.77399982860601,-0.020524843399982996,-0.005172299362872681,-0.005865199822355882,2.88
-0.0646262384732876,-0.09473106473369639,9.66970407449454,-0.009721996440416877,0.016797375575959585,0.0045701279172502005,2.89
-0.10053923671332446,0.17263008474828953,9.821239890910228,-0.0011788671444657212,0.018339654397228514,-0.009954157934686781,2.9
-0.07044952355052773,-0.2485078268684116,9.926617679472455,-0.01245303546627696,0.003980199189641466,0.004693271309202198,2.91
-0.02669055787633739,0.14213267875215718,9.879397576967214,-0.0032102316104216447,0.01384454132869988,0.008263271043069174,2.92
0.12970003567697713,0.10752032841411881,9.678365658358224,0.011645669385952389,0.008528957678225283,-0.012593650637303956,2.93
-0.03073804115529706,-0.028950743874922927,9.759828525514028,0.0009413051064189315,0.0005754277185827712,-0.02213369777416353,2.94
0.03937358509275474,-0.016623966985742228,9.762852175357928,-0.015215293866838063,0.0075703890542891915,-0.014339092390359588,2.95
0.02441393315633429,-0.048087505966344535,9.621815230628938,-8.094740024822646e-05,0.008471371053286816,-0.002693326762957991,2.96
-0.08515592982510135,-0.059941520235775494,9.870824284541039,0.0156644153806706,0.026953518507564,-0.003275977471877112,2.97
0.03948784633606356,-0.10005731446862146,9.849738054629304,-0.006784891002934841,0.017671954803552884,-0.012775439948384799,2.98
0.1409107533272847,-0.1700387589275033,9.770864486787548,-0.014376452075257245,-0.008898626255391309,-0.006219282068761319,2.99
-0.06534367949242907,0.14529144005034053,9.858256635768743,0.0010802101350408603,0.008317402813133817,-0.009718499160851471,3.0
0.02707714539148026,0.11210815062923891,9.638941955030106,0.0011817163360055467,-0.004580155649402527,-0.0037004177662075953,3.0100000000000002
0.05377306704271828,-0.017396251721310735,9.811673895445116,-0.010722982083517286,-0.009981465698684508,0.012582692232641465,3.02
-0.0903494211899228,0.10805593186673955,9.830855854034908,0.016194144523538373,-0.006246954804954352,-0.012981991617439332,3.0300000000000002
-0.0045958645656732616,0.11810996347509467,9.62158897737594,0.004339066463274769,0.0050357614316171384,-0.0009567361952043109,3.04
0.09035921251248206,0.08535920849145703,9.812623727365521,0.0024613190397662706,0.0034575180559305377,-0.007240255945065321,3.0500000000000003
-0.09105801641874525,0.07358352278908613,9.791549413482949,-0.008062664362855354,-0.007029563707144396,0.016324953170076987,3.06
-0.046097851393404526,-0.10906691913288112,9.689096369968691,-0.0030439207283580482,-0.002279258323528551,-0.030697650915499506,3.0700000000000003
0.06767660769594898,0.06024016369077722,9.894329069085538,0.019815673604978375,-0.015473752948914848,0.016305650142627262,3.08
0.06366682321336073,-0.08773279278957846,9.832907447147976,0.006175731185746946,0.004870894741950141,-0.00798155242748865,3.09
0.0648804180263856,-0.025241602271843983,9.905214674167878,0.025448354925191145,-0.003076575559919963,-0.003942455511339144,3.1
-0.14971575591851558,-0.15998497460555028,9.851581534864977,0.0009917177303913464,0.009391832955581445,-0.012754066278147205,3.11
0.03979866706551499,-0.038636830319549814,9.928663582822029,0.007227049479414548,0.01607540196603682,-0.006617820045261284,3.12
0.01016113218884825,0.2354148925885604,9.704109275792938,0.014597032132286279,0.0058874902415825235,0.020724665489860423,3.13
0.09157767682789081,-0.0747212703894559,9.710771713735571,-0.0036672263562400097,-0.00031949880278179203,0.00887937229318076,3.14
-0.07556896456037893,-0.003042781921448945,9.695447068896396,-0.002869101541721735,-0.0037803559722764265,-0.002686202089843736,3.15
-0.06111332323284694,-0.0607253254139477,9.647809782013615,-0.0020995576132587057,-0.00037315460847759914,-0.013629567617007057,3.16
-0.07473634399158868,0.025406896936135875,9.937378907234946,-0.00012956785504623876,0.01474795109376354,-0.004135097923584428,3.17
0.19214551560005633,0.03739627576995044,9.977839874534839,-0.002149023353600451,0.0036708176736089428,0.007815643517665189,3.18
-0.04525710896331803,-0.009247067999138842,9.873675752972328,0.0019567164897405127,-0.006894736904915911,0.009396053085350463,3.19
-0.017584998474651236,-0.12884249711542606,9.98381452011321,0.005791171661814058,0.0038097084309760745,-0.011117545615477538,3.2
-0.0809706227881214,0.026014659276232963,9.860578576817746,0.0036276791513613306,-0.010796870356166357,-0.005605253049472687,3.21
-0.09166310362956614,0.036192243882166956,9.900367480798549,0.00250169728938464,-0.014501898135249543,0.007182108391906443,3.22
-0.06248913425613817,-0.08390531740735015,9.880509720103628,-0.01858001586153661,-0.02835938156099656,0.0005123446111801841,3.23
-0.03433818875865542,-0.09213558523248738,9.900535479630156,0.02860769911174683,-0.003238641461581187,0.010926226669925227,3.24
-0.12634934891343422,-0.01259247690330939,9.762941082358335,0.011609222771162348,-0.009808240850864427,-0.0018047281946491505,3.25
-0.10440925827460523,-0.22082225380166254,9.946978171404496,-0.01394430724098938,-0.008219856439432157,-0.0082179104239387,3.2600000000000002
-0.11112228303254562,-0.02189649220340684,9.81408538688904,0.013059071954254105,0.000583607086451684,0.006725996795180115,3.27
-0.16622527790860497,-0.03598146523832752,9.90148928124225,0.0020625468477856604,-0.0030803012562298387,0.014839870093177741,3.2800000000000002
0.14505547960674728,0.09029341024996299,9.703801205679952,0.009627716648995392,-0.012544443742346654,-0.0020108798788706305,3.29
-0.00833365853588323,-0.12423036264362819,9.78783545124082,0.0005119605374789731,-0.0027212235885485103,-0.008602053223022571,3.3000000000000003
-0.04248267719181964,-0.24898749070266094,9.954787823477874,0.008460133404817499,0.0016192669723026493,-0.010809805426556433,3.31
0.026828877579394436,0.026849616933150917,9.754316730446067,-0.01398878951112117,0.0010560295882487312,-0.026590806268424808,3.3200000000000003
0.018858811978792276,-0.015610361741443783,9.807073797189341,-0.01399504145871152,0.008972151085653246,-0.0008339655036751314,3.33
-0.0071433811985237745,0.12854955716359925,9.905414930706392,0.0032825073375858456,-0.021689033451280895,-0.004451643585118361,3.34
-0.0433835237963687,0.03190551737195015,10.00840525488122,-0.01741401010848306,-0.0018655880581396403,0.014103944353129581,3.35
-0.10898948329744698,0.10958848266407328,9.925432544041941,0.0050648666658226794,0.0042090874075445366,0.005702368758479553,3.36
-0.07319028120733272,-0.04200192479657197,9.877056687976337,0.009319265465390376,0.0219648888280733,-0.00972832416048045,3.37
-0.11613973823163991,-0.05463726327830435,9.835179635928126,0.011325258970289506,-0.004075951659346198,0.005216787349282341,3.38
-0.08546625729987295,0.009657272244863437,9.905790071900364,0.0074079861153149495,0.015788820545653642,-0.009538619213202397,3.39
0.07357868332082226,-0.037103806910130564,9.768011353625413,-0.005503406200585449,-0.004151661518740584,0.004427500489400397,3.4
0.01049157371707296,-0.0879012338875483,9.986966642606957,0.014380401830211111,0.007567336822424141,-7.081381082114367e-05,3.41
0.06834933761849381,-0.1845269206574749,9.903601599326606,-0.006832123229863235,0.00016765741931849424,0.008556662816951336,3.42
-0.12003546474286009,0.028336204487670515,9.726633805401368,0.0018998562476897174,0.005295800255078388,0.008554286448767958,3.43
0.06403044850529982,0.049200020502588405,9.824640735775196,0.008373869393972097,-0.018931643734285554,-0.008467838566826045,3.44
-0.043709854908812656,0.1571424313684308,9.781161289411937,-0.016688139568158806,-0.00255569171192453,-0.01802373858699572,3.45
-0.05428916589368715,0.06895277114516928,9.986059271506877,0.00418022365467528,-0.0009655428784412083,0.0013717937138533081,3.46
-0.04620997733836208,0.031616640222935644,10.048524245722003,0.018686299759390675,0.006079718579803426,-0.007413351041760254,3.47
-0.0994411278494457,0.05596077231453979,9.750052325500658,0.0010021802080044425,-0.00021839629973244745,-0.00668217295894109,3.48
0.10740972404748275,-0.01814817155194367,9.732755805777918,0.0022472609132181466,-0.019062048575505343,0.007792017558535159,3.49
0.1605254341794313,0.030319555773187026,9.789222700833353,-0.00040945538311615927,0.0037979798321286307,-0.015542196812541874,3.5
-0.008274234111693526,-0.0387135798216242,9.829469207813,-0.007337088591404595,0.014503657443786361,-0.004555088883998574,3.5100000000000002
-0.027433474208077166,0.13460436334542086,9.835043910861579,-0.011880013767857592,-0.006885811393139905,-0.0052354317611929945,3.52
-0.055804589121733056,0.07786942983865486,9.825359746629019,-0.0055376346020876615,-0.018083272005070972,-0.009425276552983024,3.5300000000000002
-0.09057436201952726,-0.1695596363073622,9.73107098836741,0.011923534549582749,0.007792702880643122,0.0065119453990871105,3.54
0.20780246646372122,-0.168783334592528,9.980930480388537,0.005022682490382092,-0.00921401532037539,0.01201069648590462,3.5500000000000003
-0.004680063243557678,0.0952770996043632,9.791978757086301,-0.0024822356093134774,-0.0019004186682468457,0.01655908655687873,3.56
0.08400911843776097,-0.16079374510088404,10.024492805721392,-0.0050347083235826985,0.0005586596593484582,0.030907794545883535,3.5700000000000003
0.05118721767229695,0.0511104012473963,9.823759896582128,0.005445402691225603,0.0033757095705023218,0.01817312944822114,3.58
0.042236619540698614,0.033805492707155015,9.992536592761326,0.0005365492207777411,-0.013213366866804523,0.007317036625898439,3.59
0.04318835963157147,0.04174601510868292,9.742516354159163,0.021885841668526206,-0.006362914436008195,0.0026580187473846427,3.6
-0.061376331367366976,0.1618730968010684,9.942301550326329,-0.013770637803392802,-0.00039537466749637934,0.0006714276889263977,3.61
-0.05205146229307261,-0.05294900360087073,9.77982913609064,0.007399511956407113,0.012188768558055,-0.0027564884801526304,3.62
0.037462099675236414,0.018852102323353093,9.713943984256987,0.02335373022942452,-0.005243623246600811,0.015332737052170434,3.63
0.10089232836591673,0.08984988397187643,9.789835410442025,0.007440078697014404,0.005125396092040353,0.005681706083130607,3.64
-0.09914496235226283,0.004435744093858436,9.771243814452063,-0.006449812581325022,-0.009578583251120867,0.00804916206823497,3.65
0.06154769976893498,0.21989917777210746,9.88091214682502,-0.0052602025483884166,0.007395833613973571,-0.006183108820826805,3.66
0.10234920205238285,0.04416769667988812,9.895901282647248,0.008752947662712373,0.015499474428924749,9.342037986313976e-05,3.67
-0.13047125508032745,-0.030711415642131035,9.991254513830038,-0.009552371605578409,0.0029470823533562698,0.014601944820160955,3.68
0.014769225831264114,-0.11917550856433264,9.82981018870658,0.010038591317918885,0.00542212663532262,-0.006477214471564177,3.69
-0.004983567216656378,0.02610976966159394,9.808519375537582,-0.003675997705394061,0.001235840914046912,3.768260779075748e-05,3.7
-0.028750432263791953,-0.1018461996591096,9.762216870308853,0.014812933144255422,0.001618318063684587,-0.0013805148408999473,3.71
0.1956738284327925,-0.051112273943536374,9.89946570688363,0.01099473434296543,-0.009114257064661067,0.015548545390079747,3.72
-0.09265841422035642,-0.026235563189752162,9.804408800467291,-0.0026286388432010636,-0.01937420139072487,-0.0038469030625880984,3.73
-0.015112508378966001,0.10486542908115398,9.78758673879738,-0.01301737546896558,-0.0015182332015505108,-0.0017841813581515624,3.74
0.13599369131769534,-0.11834893270566729,9.749888439922682,-0.013642906299096633,-0.005490155195590198,0.0030818246053736986,3.75
-0.19290241958625565,-0.01987403412239854,9.719670829693207,-0.0007088776285175681,-0.0025858508516653222,-0.006770256501156625,3.7600000000000002
0.07435867968024759,0.07623382552148819,9.719613309702645,0.004058629420884715,-0.003339715161435685,0.005958362779144792,3.77
-0.2298196963640959,-0.010215000218658158,9.788863911582359,0.014209169895523876,-0.0004126428313699138,0.005075449731461866,3.7800000000000002
0.051609905763529154,0.15049061767521066,9.794537603566306,-0.0029040357822644257,0.0011451615133130481,0.0035957151333699485,3.79
-0.19653718709404186,-0.05235104359148157,9.710245674885279,-0.0016048814754912688,0.004222609453101963,-0.00017068746195522387,3.8000000000000003
-0.01767550202211358,0.06738422391581331,9.934371306028973,-0.01613691850669752,-0.005163085352543658,-0.0020131303121874358,3.81
0.10001187651659556,0.13535251034851722,9.832338782427398,0.0027854659515239026,-0.0010272709955516394,-0.01597610208093327,3.8200000000000003
0.01010093700060259,-0.04663314591077466,9.829751100686018,-0.00019123495277738979,0.0023626229918860954,0.007622545156160279,3.83
-0.21261779351684781,0.1086863251631701,9.886982304424063,0.019369033350572832,-0.011842136228507757,-0.013933403783998283,3.84
0.04680916493522975,0.0533168127306877,9.864371734472357,-0.0045934852236385664,-0.014496468266737693,0.014215055615746347,3.85
-0.1238315831760344,-0.0309013235988545,9.937726784984141,-0.012165856946275522,0.011501474597982444,0.000654996015444136,3.86
-0.057922485635640245,0.18910748535006033,9.824892360454509,0.0006641559882427017,-0.0012844395911481782,0.012894606945169716,3.87
0.11673375655849508,0.02974870959758663,9.951237823074871,-0.01655946395313085,0.0056948511584652105,-0.00639890903764112,3.88
0.043781746421757556,0.020110362485342634,9.86326456075115,0.0022236989099104387,-0.005185839368561421,-0.006903365431330907,3.89
-0.002045189268304381,-0.04633840052964744,9.703303084720684,0.004816323849560186,-0.002392474135431884,0.019037576238896896,3.9
0.008918628022836998,0.024130971166951523,9.754092832496829,0.004377726275723239,-0.004468294116962861,0.004351511408428052,3.91
0.012960848109517031,-0.1473429150372044,9.857829727455796,-0.013431900195123815,0.00048686714350420487,0.012540175979285726,3.92
-0.06162957934079649,-0.004864155886806199,9.802650718176126,-0.002901724588359276,-0.01976720459515127,0.0005801444122880554,3.93
-0.0051541613104074905,-0.1189904510135136,9.821749265912317,-0.0038346864432916286,0.012677237359122675,0.0011128108352157465,3.94
0.11334836881197917,-0.06526277264611328,9.908923103678855,0.0013093901871318574,0.011315017122179968,-0.007453543150902231,3.95
-0.1700583626321268,-0.03869345643496572,9.932932758138154,0.004601071707929731,0.011341777604542141,-0.020060617990895712,3.96
0.027009742033433537,0.07648675962342795,9.885866918083382,-0.0035903528514683557,-0.002135493294700587,0.0012796945215823323,3.97
0.18210590256350398,-0.05607464111436971,9.805713574398602,-0.00020459236530236374,-0.018759571000248793,0.01464909506529838,3.98
-0.13796214381813782,0.09880573741221738,9.951397780014801,0.006116008448778033,0.0012628523304335966,-0.004371994900271307,3.99
-0.013763055901827474,-0.12186567994935585,9.91334735361363,-0.01058525328513728,-0.019320932566253946,-0.01117463761030883,4.0
0.04809824211375374,-0.07483463626103397,9.831947856305488,-0.003915509218021453,0.0010580761256765382,0.0036355158538386883,4.01
0.20904790111623242,-0.120059460464847,9.715568814788266,0.008763147666380007,0.009506335326414195,-0.0015398046966995074,4.0200000000000005
-0.01370558703745578,0.02805298529516719,9.757116606519615,-0.00041008359249030784,-0.0038435888746343135,-0.002665083751270332,4.03
0.0486994166578626,0.0477264691511016,9.92250722224738,0.0013122228523800524,-0.007557571596106946,-0.003862102052479448,4.04
-0.1085145355591425,-0.061402844208394904,9.744782469113863,0.008012162536996697,-0.007384071442108975,-0.0038696686964502635,4.05
-0.03696851819552822,-0.03152368553496307,9.995211811131501,-0.003156459961315728,0.009062919206772073,-0.007715851763335633,4.0600000000000005
-0.07188230017687412,-0.10563274178421694,9.709903768335733,0.00015991789594170275,0.0019246122373993365,-0.012113437094076522,4.07
-0.020285638912428815,-0.02442616897126275,9.943865740637701,0.012633061266621365,-0.003558724003481889,0.013365018464166243,4.08
0.03468137314123268,-0.1703228629397871,9.83685667391811,-0.019506253088018816,-7.968800586514153e-05,-0.01449841990438077,4.09
-0.0654402841406757,0.13411427137744183,9.862748584209308,0.014886458495446156,-0.0002732693328331599,0.0003972002565248319,4.1
-0.016851223563303704,0.083782819574545,9.843192057426865,0.0038795187011044095,-0.006189046058296292,-0.008150009228690946,4.11
0.18119944210373962,-0.057875679691081254,9.753591476494645,0.00723150031526427,-0.030853977175400782,0.004008412023115166,4.12
-0.026441779205954342,0.027795466446757924,9.731697885141026,-0.006924190507386774,0.0038714432973942004,-0.0010313004964089799,4.13
-0.03837757223223301,-0.042522843229579194,9.65144468406265,0.010879084455731243,0.013926376013205424,-0.0047376196320622465,4.14
0.02422694021014834,-0.19876115202678565,9.840523237412778,-0.0021435014988790482,0.006719202549961234,-0.004881276920630929,4.15
-0.17736842716591666,0.08929230486748801,9.843936253324065,-0.008643860042722327,-0.010060778680510597,0.00010609480195256119,4.16
0.11330078055718587,0.033933805467243394,9.913206122092094,-0.0104184519523842,-0.00300485164693585,-0.020542902067885907,4.17
-0.08362991612880208,0.03979086385505989,9.636617941710757,0.010415606608632342,0.014847025776553762,0.004852940216884316,4.18
-0.14060323510002712,-0.04740763940639284,9.815348740943177,-0.005836281673082548,-0.005930273401288143,0.008058959649953859,4.19
0.00471729087819158,0.05035318626848495,9.777293791017701,0.0020360754106182105,-0.010443603452966101,0.0038195040172587604,4.2
0.059816686087375365,0.17428274786537845,9.702864445173708,0.012141057825803388,0.0011275922803756764,0.008891605889287868,4.21
-0.011397621499043973,0.049815331847620097,9.818003428055263,-0.005065379080783491,0.013966244644705757,-0.015729066318762724,4.22
-0.04562084010001568,-0.13719025233391818,9.827464297280267,-0.011470464996202879,-0.0040361915346401765,-0.0005734505596517643,4.23
0.019804251901973647,0.021012806033829625,9.793170484055567,-0.009184973733704867,0.02086525985956194,-0.0010533038037415972,4.24
-0.0018573176223182436,0.04893656568553421,9.52562346203974,-0.02395757965667639,0.016912276295912628,0.011566478634811268,4.25
0.03655607007069089,0.10026582286211977,9.813229743060273,0.006661278753339015,-0.0014112433046533943,-0.010061838013044054,4.26
-0.03436427996067606,0.11309408199698896,9.828516179775749,0.003479855652625912,-0.004349098009806958,-0.019442784403480632,4.2700000000000005
-0.010105347963339667,0.1083836777993072,9.750635534587591,0.003924986577681383,0.010450090882650684,-0.015966797788190136,4.28
-0.01408411974278155,-0.04345934530062931,9.872291014640895,-0.011185048317053765,-0.010016299869575121,0.0073963742967906735,4.29
0.024761735544583868,-0.16807105472642508,9.849858493256269,0.011815903304807036,0.0009277045896783573,-0.012835190318833092,4.3
-0.07718469603604992,0.15535876903728627,9.859425171910031,-0.007568082785420046,-0.011932252198438844,-0.0035285855707657293,4.3100000000000005
0.009092806390525605,0.030996936818827665,9.705022045511642,0.019508469081881565,-0.01354999190388383,0.004082005565325298,4.32
0.07335500553577196,-0.15046277813987308,9.788134667279248,-0.008969823385450609,0.009961937363923593,-0.0056887314311031755,4.33
0.0710292381955032,0.1665206689017343,9.663498118262678,0.009016084126657577,-0.0019167765614965145,-0.006713163602662734,4.34
0.008623682451659571,0.005683177083368997,9.830106911238477,-0.0029441733588439502,-0.0012623754609611645,-0.01602975132121766,4.3500000000000005
0.00030173591316229987,-0.06282621974206991,9.834559739371871,-0.0008880356079850271,-0.016339058043631515,0.00961341862625285,4.36
-0.05068069111007966,0.12082528007554681,9.830989954318689,-0.005725975769535846,0.016091110920023327,-0.012580136881955995,4.37
-0.09018439341831397,0.07888477285209582,9.772380064230315,-0.01714324924535698,-0.015450675193817449,0.0023969363396421383,4.38
0.10760438572436687,0.08033123263734541,9.942104446161178,-0.01792638861525692,0.00376998917026456,0.01879638500697612,4.39
-0.06504032390793944,-0.06421288151705332,9.851794433711554,0.01633430846067637,0.008274265260782742,-0.013376991589553805,4.4
0.11033504900689922,0.03438883542481375,9.980735601049611,-0.0046504564615415115,-0.0036615033401959513,0.012438099243868173,4.41
-0.07130664709172468,-0.03584024211001762,9.770832465402718,0.006021690984081329,-0.011385725975070262,0.018574963745353255,4.42
0.14122803886620017,0.09503631804225258,9.85986459465969,-0.012361677482228113,-0.010271706046133868,-0.00753572336309891,4.43
-0.024681218674205557,-0.054056146020796225,9.862655962364956,0.0023675838937534414,-0.015339942040002033,-0.0005131698128143107,4.44
0.008097427531688598,-0.131507289440147,9.863538297878742,-0.010051393000720658,0.00545222904135837,-0.006974871715324538,4.45
0.020056013976618766,-0.15777467014926594,9.683370863719187,0.0021217811275816164,0.0050048846717258965,0.005250787179168291,4.46
-0.0335011535995823,-0.145479401838106,9.67805162083343,0.008088876291415968,-0.01707937236570862,-0.0014633082305982668,4.47
-0.09101170847734913,0.01028879079205332,9.873243939004444,0.009128011339384874,0.0070712317180203,-0.008237876640081488,4.48
0.05225236563300938,0.07346336288800942,10.006537373893128,0.01185839066256181,0.0002471885126335243,0.0060685648209550785,4.49
0.10421394842653463,-0.11756020716884807,9.914579750919742,0.01697241536109358,0.00428942028458678,0.0032553146758559164,4.5
-0.14486584472346106,-0.09365296534704513,9.84966768572147,-0.001749744191587915,-0.008972415869835474,0.0022806735640181694,4.51
-0.15460516417758566,-0.13840536442394413,9.730267045684126,0.012889485022410774,-0.014539394014066865,0.002840214809147592,4.5200000000000005
-0.05871534132116746,-0.11352046412349155,9.899029814271502,-0.021033053416852906,0.0037253193388253275,-0.006870231361638821,4.53
0.17860012691819355,-0.10627487292857879,9.890454595892647,-0.009320138544198055,0.02587329008646219,-0.02361392624030616,4.54
-0.16714061657738177,-0.1025429392676101,9.984649071524014,0.013293604961968688,0.002196870393959276,0.006788126464328499,4.55
0.24208224952623647,-0.10600900832712792,9.75792049888947,0.01129846653225527,-0.01555973985559837,0.010290018404913875,4.5600000000000005
-0.0875553415385244,-0.11502860241970264,9.89103252116908,0.0031971165095122673,0.0032688249812732034,-0.009053128877695387,4.57
-0.05008174594998435,-0.05998970905927621,9.84786884229098,0.0013627476493584157,0.0016129258409054072,0.013841505344568997,4.58
0.01037352296143964,0.010436336630469549,9.884671227091156,0.012939580707725365,0.012480168929936397,-0.008847767313932492,4.59
-0.08294062462582869,-0.10364068261323421,9.90933526985752,0.01015515137590033,0.0031283849307325003,0.005163195489495515,4.6000000000000005
0.26606915796738206,-0.008599811964221193,9.778746636194684,-0.0010176333332613436,-0.003138736946440128,-0.006307161114446286,4.61
-0.008500444409497591,-0.1546859566479698,9.769734165011494,0.00900516938686961,-0.010868128451319499,0.005166983700468313,4.62
0.024362038956107925,-0.037784038670423827,9.715133475288573,0.007038882471246618,-0.012005304237072714,-0.020420770555512627,4.63
-0.11051647709449475,-0.12219054030890626,9.65411425909534,0.001982801972806561,0.018209516089911504,0.018490490471995517,4.64
-0.02368964473919852,0.028850257141987787,9.954870959196828,0.006665891557891605,-0.005858266454012721,0.008666201589536562,4.65
0.008191247671909714,-0.021628342166556572,9.698589064249978,-0.004041806170126467,0.020483013333979522,-0.006278850331068646,4.66
0.17912691047118137,0.041279332628592874,10.173412158036827,0.0046802766516815825,0.004328855970660186,-0.008108808321832344,4.67
-0.0013505530312242153,-0.03428059616873845,9.728757624542139,-0.011617139509971588,0.0007748134919708507,-0.01067385233831689,4.68
-0.1181373392432616,0.07051059234612354,9.914089668575892,0.023872466263756945,-0.007695348466434227,-0.0015764663361321244,4.69
0.12475044686571038,0.06356816759880478,10.027716787457852,0.0032855411916443166,0.017162328301990444,0.007296045950290339,4.7
-0.018805168697108715,0.02973101335972868,9.937409442596023,-0.02297273025553434,-0.017881834003829575,0.011774167622358396,4.71
0.12118741307173063,-0.1666345100129868,9.750579491434848,0.014318765199388142,-0.0041512946451365326,0.0070747762681192955,4.72
0.08093627388846876,-0.12602922614476955,9.674611095400689,0.0023118591661927318,0.004888117040897529,0.004563287294682016,4.73
0.0920864344234947,-0.01888770162430564,9.975242835645265,0.004763752182689674,0.012200265867063496,-0.012986962599662763,4.74
-0.07605174321788455,-0.038235178421195545,9.787891948432224,0.024635176647761294,0.0011260478294778488,0.007198842762400275,4.75
-0.07726714692947473,0.14561967709079984,9.613898181843972,-0.012075695870421633,-0.01444601762876676,0.009224567525787637,4.76
0.15310990080245584,-0.08411849948762988,9.755682280362702,0.008256661326508185,0.01553044770681475,-0.01216045359987699,4.7700000000000005
0.05665192341633704,0.09375185670583708,9.669023106655498,0.00986215842073991,-0.023784352564927086,0.0025621377674732125,4.78
-0.12625607799442332,0.06664160035272246,9.763951132957558,-0.012482700820021564,-0.0007252100110790439,0.02126088600247027,4.79
0.1248078044015857,0.04187949421055464,9.877738633784757,0.011482931644441115,-0.01102797875351722,-0.00010243277149798514,4.8
0.0694509495789712,-0.13966644892294264,9.80537728385562,-0.013297862506188907,-0.013940034492725961,0.0014213906304880084,4.8100000000000005
-0.15135524764738956,-0.19606929952275276,9.839475543906703,-0.011943617265195916,-0.001423672509320767,-0.0034445070571591184,4.82
-0.06891324331238206,-0.006545923931644687,9.870638827685067,-0.006211484862317281,-0.017210455163285284,0.01261255893574159,4.83
0.08025964901107015,2.3363777775233273e-05,9.734723781739035,0.017108952967537124,0.010551766744449045,-0.005323534896366137,4.84
0.08660374942213388,0.046573770522705255,9.782969379178398,0.014506219097403648,0.005725754300532229,-0.006207132530910774,4.8500000000000005
-0.07878623233994492,0.048275275479875424,9.7972912609699,0.002640527360444188,0.001415372182082356,-0.02232027819808134,4.86
-0.09785642344319838,-0.045021966070458774,9.793619969977328,-0.00025767369344693007,0.0048284332790116714,-0.006688779185801942,4.87
-0.15991370170749097,0.18553445135605534,9.985919068564641,-0.0045118630958842,-0.01407948828386285,-0.0002037677977193545,4.88
-0.061380949397000076,-0.15184668346969893,9.635109688311765,-0.0004378005870659614,0.0017772755207271906,0.0124056523202335,4.89
-0.04267074840235869,-0.0068153655467100135,9.543679931758012,-0.0037456483537216347,0.0014350591959990044,0.014925373226007907,4.9
-0.03443109208363806,0.08351043452770678,9.696265932471922,-0.006762075086140256,0.007576766354071049,-0.013445533706923527,4.91
0.18033153016641065,-0.13181538931104017,9.940040009196077,-0.0079626113789573,0.0047084482697103405,-0.008633655491789186,4.92
0.04409830512043439,0.10507176206979857,9.901077452707653,-0.009902050373888095,-0.0329379383615872,0.00650365620869356,4.93
-0.03898894464472161,0.00466001437193019,9.879715306918383,-0.004935004750782571,0.025467949034698116,-0.005002454570814394,4.94
0.14857546284551448,0.0339047874271946,9.728417800792895,-0.00033551949391717593,0.0018760962048036734,0.016539758721135448,4.95
-0.008458575290574378,0.10442515909120809,10.00478804413275,0.014488383287866566,0.0024010721642225242,0.0194746113840566,4.96
-0.09043089933837656,-0.12663658862232505,9.836872224157366,-0.0012137561154575884,-0.006270733705502335,0.001345164402832199,4.97
0.07140054709075819,0.028206354121047023,9.96453704178785,-0.0036337016828183566,0.007888867645180571,0.015700261867368424,4.98
0.215255799501874,0.16242824708778236,9.781536474266165,0.00942887367295401,0.005241667509388302,0.006946428923621999,4.99
0.310448416204405,-0.14579691103298584,9.637477552763826,0.019425958351019994,-0.014673225791302584,-0.005854839085111865,5.0
0.03434014205539234,-0.0934996679728987,9.96417833782582,-0.0006530965891841302,-0.0015885118659509532,-0.005799065619793741,5.01
0.06313215209952248,0.10517324176838541,9.7569225995819,-0.008719907874030293,-0.01330814468233483,-0.006375573675663584,5.0200000000000005
0.08478249700848389,-0.07245900499271561,9.80705021292136,0.01677249012808163,-0.018026136786698947,-0.00804223939036762,5.03
-0.029927264533900957,-0.12374203827445214,9.88212754298719,0.008963509368427325,-0.004868043053226465,-0.013901455819290236,5.04
0.14329587491364823,-0.031408474100051466,9.752881225101389,0.0028212357363688882,0.0029752974934298573,0.006551015955025797,5.05
0.057085032272827234,-0.021286349949318883,9.783891288869343,0.007950177434930752,0.0007133344740547438,-0.002856475228784679,5.0600000000000005
-0.2599922084622372,-0.04278375724377134,9.915387022884733,-0.0013103912173573434,0.003920575287408535,3.8924438599307144e-05,5.07
0.015193086524614844,-0.02389680701888795,9.941269854977008,-0.018444931664988503,0.001670276833543997,0.015104587339503673,5.08
-0.0013616921501007784,-0.021776500492895028,9.948987798415061,-0.023551926623651187,-0.0024129314823056473,-0.004282483994219109,5.09
0.007423149091232275,-0.16111940755202697,9.932422163343896,-0.01953651332508418,-0.0013721709258272174,0.03324905645024931,5.1000000000000005
-0.003278355526214284,0.01768526719164899,9.993923236500077,-0.009891839066676662,-0.009417267100630544,0.009125983083560992,5.11
0.05144993611867241,0.10372164853979489,9.743529617511179,9.822465556947398e-05,-0.0021265102443543253,0.008646407051482877,5.12
0.017772088532083778,0.16826088298149502,9.93531865633388,0.017492243801108573,-0.003629730019738833,-0.016269506758016628,5.13
0.1354066810917625,-0.15315188559405754,9.863941767648774,-0.0013959811691792454,-0.005570281294766722,0.004911590696753986,5.14
-0.12939733021220132,-0.15284955205367948,9.890559872865492,-0.016366742020445545,-0.006655740101776837,-0.014336981915585235,5.15
-0.0522260829567799,-0.10069946710476917,9.810581577759335,-0.005669990074917533,-0.001792643429077929,0.003424012452545633,5.16
0.19630794536994364,0.13287502565531853,9.712246338318531,0.0028077381960878284,0.006559357472185675,-0.009112433066211281,5.17
0.05314707142286662,0.05718600609365006,9.517722031788509,-0.000527568977282844,-0.01875641110609711,-0.005660260193646178,5.18
0.06253434453248616,-0.05525475699979511,9.714563015920813,0.017508195164058177,0.011016391588598226,-0.01007544484624098,5.19
-0.01981699055108475,-0.07095614930414541,9.817359517361531,-0.006494783663692717,-0.004493614138807685,-0.02171808108288624,5.2
-0.021174139417472305,0.19241054343449815,9.897236215684067,0.004435096477091365,0.013659860173821441,-0.006646395001898348,5.21
0.03688835906713568,-0.003523195616623963,9.862884557332363,-0.015104009230122542,-0.00687457696442619,-0.008330078433920201,5.22
0.15072490150738624,0.02055894301664678,9.769946168430847,0.0014636207818366576,0.0028172188788999587,-0.010190819130310563,5.23
-0.073447632791074,0.1542569239490588,10.134557699441366,0.0034139848185791113,-0.014081371764262537,-0.023685108036858162,5.24
-0.20781731149039442,0.16432489539793427,9.80161699131982,-0.012852744447878253,0.003191188330063654,-0.00012258050385600912,5.25
0.18648008923798898,0.059536587201956676,9.855545030322471,0.0037800605704927564,0.004692424636169989,-0.002611081989660026,5.26
-0.09452814584181184,0.022685481597114227,9.904076256771775,0.0022166445171040907,-0.006376990303322133,-0.008351414077950687,5.2700000000000005
-0.05471011215661249,0.0459381075577505,9.83419329004103,-0.002612009153304693,0.0026546121736172735,-0.007914223614595567,5.28
-0.1038285669207129,-0.08841923443189484,9.864784353003131,0.011828769688246057,-0.023364522951669943,0.002275677630381506,5.29
-0.03500449321151159,0.00643347731794049,9.931479081027984,0.0059338699365521054,0.006370724241810847,0.013478440894315888,5.3
0.09968245197628639,-0.02984516426397242,9.836188259697426,-0.009575866075592368,-0.013851755359923817,0.009333538250777521,5.3100000000000005
0.01249144296200339,-0.19558038515328613,9.900550057642445,0.01321227221573523,0.002410982923752508,0.017399771750822312,5.32
-0.2599317497675498,-0.21724568464692784,9.947564907656886,0.005634260881891657,-0.0005846955029612063,0.0060201103651800906,5.33
-0.17377280279188526,-0.0249413324377009,9.705979082568138,0.010353569886359661,0.004513991524989213,-0.018016656775436103,5.34
0.16771117920399545,-0.013842722658226793,9.813601815231415,0.01991586772507099,-0.005250747798387793,-0.002425950568545134,5.3500000000000005
-0.11017820538349417,-0.07749314935898798,9.74434803932331,-0.0028195599614647734,0.003701047086561215,-0.016676780627326353,5.36
0.11040121987393786,-0.08042482269608581,9.762091709979302,0.01644977580770011,0.014243767413829779,-0.014800634722112387,5.37
-0.017250375752139228,-0.031547631061033386,9.718104882749918,-0.010706885996164267,-0.0036002071747864932,0.015621745174210219,5.38
0.05866649316944853,-0.008254552654794016,9.881205301532109,-0.005767015290995459,-0.005015415106354328,-0.0017059540291267591,5.39
0.03743950267238472,0.03809867238488426,9.737255178562314,-0.004397060300550185,0.020254719099215026,0.001962794571036989,5.4
-0.11995328803072224,-0.06837861956636292,9.861161704730938,-0.00537003150453851,0.006319173585119579,0.002796000812124111,5.41
0.1334019160013566,-0.0475756551088712,9.857507556877119,0.005369463020058759,0.006751926094246825,0.003387860689607871,5.42
0.1572328073744713,0.10436134924424104,9.846735283886709,-0.010107714586543325,0.005746690801213769,0.0005770749788868464,5.43
0.08248199658844824,0.0836659181738046,9.667076425681334,0.003862041521296592,-0.001779338031353617,-0.016148597338924927,5.44
0.04197852850052103,-0.15839229653614226,10.05194758812978,0.006809662770795352,-0.014493642374704394,0.0070897561107062385,5.45
0.010006919366842035,-0.014443329587848986,9.761554473249994,0.013814379808696526,-0.008611958485942334,-0.0021986129912837113,5.46
0.10972327120269215,0.10009223351767019,9.944071146313274,-0.010358586063402111,-0.0010175525175524142,-0.011328058878262515,5.47
0.02512007170720524,0.03720058940623326,9.689747474401532,0.00426931727180979,-0.01687207378432086,-0.013917609487590181,5.48
0.03797676330615807,0.024934135189103295,9.843655651355336,0.009557702981835428,0.005578806803091022,-0.007032432878658801,5.49
-0.058839513042805575,-0.019748932977716557,9.963181553656801,-0.005706069078986448,0.016588888936569512,0.00944496867444008,5.5
0.13280557326155137,0.07520044739714393,10.017367380923774,-0.012190067128729599,-0.012791779083744998,0.0007586844721476551,5.51
0.10820438849690955,0.1318575511139969,9.712528926509494,-0.008751786955278743,-0.0022005563592438935,0.004506512091495955,5.5200000000000005
-0.10484405097935366,-0.1724025227648246,9.769743298762675,0.011993634490771333,0.0034505732564324653,-0.009867305726382766,5.53
0.004151940029285304,-0.13629744112511508,9.841513247492273,-0.0019262378061673689,0.011390900795945385,0.0077820363550388525,5.54
-0.013182930952451908,0.058571116341938456,9.761872171738613,-0.0036999246668916407,0.017629219317296614,0.0015180340113091462,5.55
0.1367673132434747,-0.14800101928054732,9.871864268794734,-0.003325309542215469,0.0040493059708942335,-0.006429617096184607,5.5600000000000005
0.07809716976207182,-0.001979425050651204,9.90252931116846,0.01564756372625824,0.011618038754888206,-0.014758674446913653,5.57
-0.0701260360557208,-0.005026803378705245,9.942533970667604,0.023903070862771478,-0.010062303887815064,0.00456938380456852,5.58
-0.02672088978619773,0.039837406168032455,9.911565274604001,-0.0077079150115688414,0.0018432461471464782,0.00477195834547961,5.59
0.07914452823609754,-0.1029308494590242,9.650804775773793,-0.009014388580437186,-0.005160167176163351,-0.02669632670375623,5.6000000000000005
0.044661640969284024,-0.028302405384860202,9.767659132976846,0.00971025001142968,0.0049120643212213775,0.004227466888612834,5.61
-0.0010281315529694797,0.1010002555822392,9.805234186715369,0.005049835625312475,-0.007638442933848251,0.004735901384943426,5.62
0.14044200067304688,-0.04903207620304541,9.740572813513333,-0.0005073481159645905,-0.00016473627984198941,0.0068311318125548,5.63
0.08035779406818896,-0.10740169016338252,9.932478543738338,-0.0023659677061909305,-0.012365119387807549,0.0015872475797075662,5.64
-0.12395192791478873,-0.026988163418597146,9.807150643828336,0.001292379761908899,-0.0039772381376264295,-0.006144769069872327,5.65
0.05955795307930539,-0.20861126185820825,9.960201277532233,0.0015955363498801065,-0.01576688622996748,-0.0046655579647516135,5.66
0.008476397009473748,-0.051479724943431,9.674476160953336,0.004906806260504465,-0.011209377137879846,-0.0006470633612761458,5.67
-0.1874713552290218,0.022260897040010684,9.88009945078849,0.01109202662723571,-0.020466953879748777,-0.009151504861929883,5.68
0.09155617351157275,-0.05535432628622825,9.800361681685938,0.009982906732614772,-0.006527655370245945,-0.017171540102508296,5.69
-0.07832216477146481,-0.022693918017518376,9.828976892893978,-0.008268748297345729,0.011469269695986798,0.006974994428766271,5.7
-0.015432215555473725,0.0843404922828419,9.835693700738302,-0.003429002970491953,-0.002037682393901139,0.010366650620667906,5.71
0.010005743093148466,0.039410349519856974,9.873238532570184,0.0004918934255109216,0.006634293174789584,-0.014217737594824014,5.72
0.04204079968365505,0.04910986201221472,9.860647394920582,0.001554069751950149,-0.024193224457383894,0.010206390562912953,5.73
-0.051016179404390107,-0.0795734518200096,9.68727400746399,-0.008370481805354617,-4.583779055758475e-05,-0.00925141616325912,5.74
-0.005705162316472729,-0.13784368287560653,9.876052827177487,0.005609521374264337,0.002993008097883229,0.01387870728592681,5.75
0.06297291389157278,0.030458345912669618,9.891444688656154,0.009875562060103753,0.0074797634953627954,0.013440100469411662,5.76
0.07388377445346944,-0.016670405306709324,9.842722754428642,-0.013118533284017068,0.008712565552684529,-0.003014979249897119,5.7700000000000005
0.022093446819652127,-0.06079116650062534,9.722716387081281,-0.003030662291758379,-0.004873575443553383,-0.000855668191025926,5.78
0.003952883474742991,-0.006592742636584128,9.712515772390956,-0.006509000898401654,0.00875743501366557,0.003995249268701339,5.79
0.15287257073276872,0.17183596070883395,9.791996069936268,0.0002561618355026224,0.004685257175692628,0.005508028853803728,5.8
0.1600343157946576,-0.07726289214190445,9.623027179040053,-0.010751603773998893,0.002288124760266244,-0.002824779797510165,5.8100000000000005
-0.024060536292657066,0.03009401194717753,9.637554717430586,-0.002442467641301384,0.01005882199312709,-0.01923793768859635,5.82
-0.2757449243334566,-0.02509062030544167,9.628441219683006,0.0022130628730437944,-0.014972735747880475,0.010211913451503222,5.83
-0.005220032110544988,-0.005933752006580372,9.790538991290079,0.006097071919599034,-0.011552104904936751,-0.007091265699478994,5.84
-0.16278315709080537,0.18371380737698317,9.814621898858036,0.00810977253573435,0.009495313750143357,-0.009020685088767744,5.8500000000000005
0.01880771590641743,0.029840984302917963,9.76841400581072,-0.0036638132198716523,-0.02345258425930772,0.006975321496297597,5.86
-0.0302489912368048,0.09847596904865008,9.617947131170686,0.018950687247879263,0.011634911462327188,0.0038993448185504443,5.87
0.17761937691494858,0.026225575258535774,9.857605610188727,0.014306714011992835,0.013483780843662472,-0.0030746814889224994,5.88
0.11027315792213273,-0.0923702945301873,9.786091644126442,-0.0155951438551673,0.020895368107397946,-0.015782494798028318,5.89
-0.004027410013310351,0.11992936866217783,9.837907189431851,-0.02080738625650677,-0.0012811166146128236,-0.01468756012130439,5.9
-0.017719574536390014,0.2561011219961854,9.695986674039192,-0.005198595889806293,0.0034313157633323425,-0.013860990194660566,5.91
0.09350823863041052,-0.0401200804515408,9.679891258506382,-0.0002833167165761603,0.007661649727080586,-0.004349951487019148,5.92
-0.1272697093841723,-0.06538697440478786,9.680654185914381,0.011411779802391933,0.01733607560601058,0.009726325986355155,5.93
-0.14276976885445392,-0.03497366450271106,10.02362449616949,0.024993237372013002,0.011329919036480725,-0.002888129171408311,5.94
-0.16501705188618504,0.08180705332827466,9.655072531557414,0.00914392321223527,-0.018007783089206385,0.004479209213205532,5.95
-0.1076914791869174,-0.06857411279588521,9.743809868453651,0.002799952249002456,-0.015037588832262938,-0.010618945180622057,5.96
-0.2473004906252519,0.015645451041143132,9.800896619383643,-0.0009798587714045022,0.006185815252555108,-0.006852180608947092,5.97
0.003380101486928199,0.06859838466822514,9.725402046099322,0.016191231673367067,0.00044885049900752414,0.00801811975585478,5.98
0.11850618628752428,0.014330293449136179,9.876696915152596,0.010070010052463663,-0.008664239074318972,-0.007975724551020212,5.99
0.05073437545853372,-0.13180788928849263,9.85696513740505,-0.011249850762178113,0.008873868090688734,0.014679484367300343,6.0
0.03928667666631488,0.024339404946939952,9.69146837910252,0.0036542143441579463,-0.003284053589129298,-0.0055698799177067125,6.01
0.2890070235469993,0.08715809460947015,9.715666334973028,-0.006248881537697486,0.0019447589779670851,0.012379821274151085,6.0200000000000005
-0.019778543319081663,-0.117686672593388,9.651048385955477,0.010898381926735654,0.001271428718334188,-0.0017662800426537031,6.03
-0.01949411288010954,-0.23871683362424723,9.813035755654202,-0.0036222613026170476,0.015121254554760604,0.005042666517077695,6.04
0.05473071546387771,-0.12484893782189657,9.78684784052147,-0.010195917271284138,0.005207884522053689,-0.01236020090595838,6.05
0.13976053419793333,-0.040800583552163545,9.757065737720156,-0.019396215849619116,0.01159173446567819,-0.01766595130199806,6.0600000000000005
0.13693952866102818,0.0017680019073009643,9.8669479459157,-0.002966847136913699,0.01239794022419613,0.0009429823669561151,6.07
0.04653729215498007,0.011966139307237675,9.734963190520297,0.007251005626810155,-0.0038815765526495215,0.008404072976173694,6.08
0.06957434435105718,0.08073558184689629,9.86308143308037,-0.005203035501059568,0.002123919119916217,-0.013570443415649587,6.09
0.04339838618469418,-0.05863963146856802,9.804610915786677,-0.007678158017192904,0.026365818284626048,0.0032238434584333222,6.1000000000000005
0.023453188482479063,0.16887377474511844,9.980035122969033,0.0012008046774166113,-0.0019449805762062435,-0.010182973599890881,6.11
0.04024142774646688,-0.008842401090225358,9.725137824685465,-0.00808315725205555,0.004469517401527086,-0.0016892722682100064,6.12
0.16870886246510575,-0.010089691892794482,9.815010402978906,0.021755643796683276,-0.002767292216833204,-0.031044821856302918,6.13
0.1272987086773544,0.017541403358638793,9.852978846840928,-0.0014785417898116949,0.0042012039909800425,0.008005322851028096,6.140000000000001
-0.07021001634910479,-0.11662344646167935,9.64181087959939,-0.003018708794777554,0.002581088905485267,0.004648062530029423,6.15
0.030734711002944087,0.18087304215805247,9.639178193621635,0.005055636171815626,-0.014366859006618701,0.00700228992187201,6.16
-0.11460634528620468,0.061427966609606005,9.845399837130005,0.00453935644800807,-0.0023503501468375384,-0.008502546939232842,6.17
0.07503380029682703,0.07404853470458031,10.0282332160584,0.009032719548898418,0.001501005538688767,-0.0009379947677243507,6.18
-0.0066959512108854275,0.12168156146468811,9.78396265750771,0.0001288264952071738,0.0033124848681345925,0.016388635917151763,6.19
0.09903835724220766,-0.03378955740736566,9.863335331043796,0.0028066730383613015,-0.0004222155662412844,-0.0026608861276953112,6.2
0.009455296027162625,-0.09496496554553116,9.71976780203407,0.000516232907489842,-0.0007982736418160536,-0.008094474712808037,6.21
0.07069572709551311,-0.06781256522566816,9.686219769246645,-0.005437264571701985,0.007941706474016886,0.0003920296244140181,6.22
0.009504673934527441,-0.137236430565713,9.760192378655695,0.015281728579419574,-0.0012937904141285686,-0.020821869313731076,6.23
-0.0392967684994457,0.05015145232998913,9.967112987359265,0.004978926005000427,-0.005495451972059357,0.0017776792235801564,6.24
0.031787405214917706,-0.0020172048487750323,9.706706398732527,-0.00511198627305957,-0.00954364581449421,0.00042530980641122037,6.25
-0.07408166007865823,-0.14389551706750217,9.810036655753388,-0.0067200087734229,0.00985568410456109,-0.004283086898634324,6.26
0.06018935563396774,0.11239870477589944,9.745115211418414,-0.0028951593051166754,-0.020591675308178747,0.022896180972027943,6.2700000000000005
-0.08811644806165857,-0.05907669043430466,9.797127160618295,0.007342356515205972,-0.004439634409017442,-0.002105020189491287,6.28
-0.1623755936663537,0.002507970300153628,9.898182867334054,0.008500454895840562,-0.0029554811973303593,0.002165165032178242,6.29
0.00415164641574558,-0.27126241249267846,9.826858352136403,-0.026940621769374343,0.0007388606946087961,0.011234454710557586,6.3
0.13868661394250195,0.1264277108037571,9.649803480812638,0.021331551594523046,-0.005185956941831166,0.004231298190747326,6.3100000000000005
0.1525464140509497,-0.20508949748168806,9.65712197546104,-0.011260349766617257,0.0022215412113124446,-0.00023712419730459406,6.32
-0.16649426741962095,-0.024983841946702858,9.753612525110793,0.001350670166538658,0.006198128609587684,-0.0010166678802750017,6.33
-0.007587477420635001,-0.047892512677332376,9.91484475145674,-0.0029708764411943284,0.009295003896926293,-0.01126122406660538,6.34
0.0064611837702225755,0.13514652382471412,9.761387744850058,-0.0026564324329784138,-0.00044656833164598384,0.009348316026239749,6.3500000000000005
0.026162335247950905,-0.04088720563209435,9.85377203679573,0.006820157394766953,-0.023479493873976822,0.0024678172282548917,6.36
0.012062669799499449,0.04495341917575796,9.755676925040168,0.0006508331351274236,0.0007042589209520882,0.00625816411893419,6.37
0.011962360911563363,0.02124052306464687,9.7586075503485,-0.005712653467218752,0.019179592692280627,-0.008262822558509563,6.38
-0.016990960350727193,-0.16994245460179377,9.813668004617965,-0.007028155707069487,-0.017092783908060627,0.0032611740873527955,6.390000000000001
0.02955957943922028,-0.008575833624432688,9.950959275076237,0.0036478423277352384,0.003669170296868838,-0.006237450172605873,6.4
0.08713361005188525,0.019719189829019584,9.684253613737885,0.008197499800527372,-0.015870999748768558,0.002899843289973599,6.41
-0.028619354288201344,-0.0011715960581093216,9.652472208712766,0.0038421417511392726,0.010541211831398466,-0.012357507028189668,6.42
-0.0888844485804042,-0.004988622069066116,9.863357753268188,-0.01401420616994963,-0.012360426763480623,-0.003944487977806787,6.43
0.05050887165239729,-0.23672622068112986,9.710438835379778,-0.009342966801206436,0.009188587597406279,0.014629988231694884,6.44
-0.14283544430123982,-0.2062966818890903,9.883025115936269,0.018084810985092462,0.0025020276563432835,-3.8085641028952146e-07,6.45
-0.15416588426432387,-0.04230472054088193,9.7745517498834,-0.0016440808040241522,-0.00823891244403322,-0.002858416807641121,6.46
-0.023006023084649517,0.09899753053901131,9.716465057904927,-0.009294481690017406,0.0035577577015547257,0.008352207735104252,6.47
0.07501119174996657,0.06386563909328134,9.827332120729613,0.011670777160369062,0.006938609252124813,0.00789044061679939,6.48
-0.18957806686879736,0.13629660591117237,9.800120287708486,0.007623407736661634,-0.006458427985984533,0.005248538113296368,6.49
0.0562851178146671,0.03425731145919457,9.767267854593612,0.024412105451190137,-0.016677930173818408,0.004058942542062631,6.5
-0.07559293415712336,-0.13263770587993193,9.940581253811823,-0.01807478021799312,0.0029854126510769526,-0.0037390789247326124,6.51
0.031490505065868035,0.15378942021069153,9.605131295361293,-0.0013280564312678012,-0.0037121150981211256,-0.01674303739096769,6.5200000000000005
0.014783733243983313,0.019654590732587834,9.822155594483828,0.0030520673630990043,-0.014228579317274894,0.024318780389548468,6.53
-0.01413854456286201,-0.2130150686892412,9.834997819504174,0.004351652005315905,-0.0008782601634356626,-0.01013902953392494,6.54
0.08755674380306963,0.23639713760392095,9.837817680714107,0.003074518187040132,-0.003403589927792956,-0.0014189741953505677,6.55
0.03574514451950417,-0.09154911067627684,9.859844808539098,-0.008727224520880175,0.012049868868058063,-0.011603635709228515,6.5600000000000005
0.010613608638819216,0.019452616844962776,10.078226813081182,0.0064523761024191315,0.004828079493292258,0.006669611816538597,6.57
-0.22729551158171182,-0.17571945048573584,9.723352588917725,-0.003257864769008737,-0.014272293085736134,0.003282925093192893,6.58
0.008656167509145078,-0.11522658879891914,9.965997492089299,0.010615715565465781,-0.004418186444419823,-0.016102489314418284,6.59
0.011614969451070371,0.08157287826132463,9.844811982794338,0.004928278971053532,0.013641208873827105,-0.013839801630513642,6.6000000000000005
-0.0501120446598363,-0.12518490954968567,9.640676854701665,-0.012383896612742355,-0.0036453319243251302,0.004035299847167286,6.61
-0.07122011451890789,-0.011079736665086819,9.622216701909162,0.0015547389027060219,0.013465581972281844,-0.008601027388114038,6.62
-0.013181422165557961,-0.10818801372478414,9.853653007925466,0.014234149994786217,-0.015065023559137747,0.0004865402966904723,6.63
0.12531486218127738,0.0784246659788517,9.707598976871212,-0.010862379032779184,-0.00022269010281281596,-0.006537004059489156,6.640000000000001
0.033202314194354175,-0.1397736444015672,9.885467871359767,-0.003075736350648706,-0.012703833333621642,0.004253825430360909,6.65
-0.12170053271693444,0.03503555762979987,9.759270422627024,0.0055847202956126095,-0.005043538373366336,-0.00767385832932566,6.66
-0.02652096445480795,-0.008773556072530653,9.818990578114496,0.010928259210825367,-0.004128579786891881,-0.01477872755058657,6.67
-0.024298728866131252,0.09113498436765419,9.954175150528798,0.008892778766827012,-0.00468722233839292,0.0016435824071779498,6.68
-0.15631876935961966,0.007353239977557331,9.886689008129688,-0.013767835379645233,-0.0010137489106809363,0.008802072407046162,6.69
0.18841545196828438,-0.05578933301014342,9.7404401492591,0.01543108863554787,0.0021537331378454704,0.010843053677297326,6.7
0.10188233144607882,0.07894768834717499,9.777135107479111,0.010729532573605146,-0.0015072517372567843,0.007455211620976977,6.71
-0.058828492414807726,-0.11458735226834299,9.87515702565158,-0.0060734792264476355,-0.00668434157733537,-0.005555260746019571,6.72
0.1617049822986562,-0.06849325479557877,10.001590112107575,-0.0006562171321019272,0.006273340083669092,0.008312675826450764,6.73
-0.048908526131251705,0.10483973498042223,9.757961041029288,0.01590052410521203,-0.00862933942355534,0.002951794349664246,6.74
0.006125785200380824,0.16060294875219072,9.933972481110063,0.025122380305567953,0.0025304672583465887,-0.005974256527915105,6.75
0.013810309389046661,-0.1375495168574503,9.883295496208994,-0.009969024972341518,0.007637239974829742,-0.00728131934962579,6.76
0.03853277130995618,-0.0031400072886426226,9.872562583360653,0.0036781189578192837,-0.00014110961528918006,0.010089484575175247,6.7700000000000005
-0.12047691974859323,-0.049402718807701765,9.765511041570882,-0.01008919531006597,0.0066739933676463175,0.016002039691031953,6.78
-0.21593146285749465,-0.09522186273695724,9.684084949179415,-0.016215906342830204,-0.0075816129186754835,-0.009883137903878361,6.79
0.04216699403230834,0.028758352556645297,9.893233568188279,-0.017171085557174507,-0.01542490514734258,-0.009276062476612468,6.8
-0.05428026700436505,0.05447036993766126,9.805791828815419,-0.004511284605193739,-0.002174278122911928,-0.01815139978106557,6.8100000000000005
0.018633659918676125,0.033096236484782535,9.847497795683012,0.009306077615047823,0.007189988350320412,-0.004572968361871701,6.82
0.11323849478203403,-0.1468762110661601,9.91558256214948,-0.006300603446859938,0.004339173982181812,0.0034983799614300664,6.83
0.013820943353120936,0.12371244795468897,9.911835851328656,0.016050447257009142,0.0045510094817337865,-0.008019610251913873,6.84
-0.14517362227325933,0.13776168166403996,9.830187947815672,-2.6539743571659947e-06,-0.005611504164181956,-0.013626040838791842,6.8500000000000005
-0.13717301737792398,0.03645216175363265,9.873595716649321,0.012087211830797315,-0.0007764499749869612,0.007551589985683218,6.86
-0.030285942615665053,0.05606715508936636,9.778805071548225,0.014212050799057994,-0.0036610157900419512,-0.008499576594093781,6.87
-0.12471911389996743,0.05830511168651012,9.76486199370855,-0.01587960618457429,-0.01184957230301949,0.011734290443172027,6.88
-0.06794319406638287,0.024839649285473067,9.868805491456055,-0.014778102551900875,-0.0030040825224350244,-0.004788880684639878,6.890000000000001
0.2978840949282882,0.09121679208514083,9.835516975239674,-0.008544877180536781,-0.00827074891333956,0.006343604862051282,6.9
0.09380768702214909,0.02143631389498743,9.61216382343387,-0.0013491862018336627,0.021988301666823543,-0.012290846446592481,6.91
0.03370023375060047,0.03010710667572087,9.82781447963584,0.017196910050803732,0.007656356250772457,0.01466422858256767,6.92
-0.0469669632334159,-0.24664951503295032,9.694740739600421,-8.781689667398363e-05,-0.00767221059078139,-0.024683366701677718,6.93
-0.09664090172281459,0.11065249948770604,9.713913967191024,-0.007379286028559229,-0.007568446146838483,0.006519701243537574,6.94
0.07948389449327221,0.09771721852055668,9.758002731047176,0.0014167948169500355,-0.002156890287456473,-0.010579328773488586,6.95
-0.036245594021053255,0.11864350178379986,9.825495105663695,-0.02549359723088727,-0.01156604060045178,-0.005806122956104254,6.96
-0.2707162285108839,-0.1270232820020001,9.829487036586668,-0.012506414752578193,-0.007597066874824849,0.005784753827345669,6.97
0.014739645889880002,-0.02706855115009439,9.776622562641924,0.009465904154230566,-0.004681172024712245,0.007105982569219472,6.98
0.10485634957254585,-0.01908082452825849,9.794284264757831,0.0011340802161740517,0.009587643689260832,-0.002719050916716171,6.99
-0.09836099005388668,-0.18299593585397378,9.868238381642813,0.005711148622775768,-0.009713425323860667,0.0009510089260079499,7.0
-0.09962993961255913,0.020922052282266984,9.824249237224075,0.011558560390897142,0.017360067758996484,-0.0018097702808530832,7.01
0.0869575117786065,-0.014682091810419205,9.808254116964612,-0.007353812276773913,0.00798156925748766,0.008749589649502475,7.0200000000000005
-0.03134779374517191,0.026632262072733445,9.696500536773963,-0.007817981713800623,0.006410874798530771,0.004498058064782352,7.03
0.1642920611675039,0.1554791282329032,9.620754577186506,0.017036685363350065,0.014067924420307791,-0.009106667943458572,7.04
0.0394992656307355,0.038442265833958926,9.745565969906494,-0.00026797008578845145,0.0005467258463946645,-0.00205858971582537,7.05
-0.07384298220519175,-0.20013802693702912,9.820317851027273,0.007908051801272235,0.005437458557316052,-0.011282109961485948,7.0600000000000005
-0.08127689301211653,0.08192099618402854,9.91530683128384,-0.018095698638126975,0.0021032200909325903,-0.005684860757619335,7.07
-0.13802695795105152,-0.11716297629853112,9.735812433737427,-0.008190401759767471,0.00936487142672183,-0.0010964105701988943,7.08
-0.03656933405899488,0.12315030221049175,9.861395354158185,-0.013093712185323712,0.006330179118747819,-0.001906642808941492,7.09
-0.16387853302796504,0.014470793031434163,9.732887779828697,0.00951997219444149,0.018373461567699804,0.0007425138374337001,7.1000000000000005
-0.04950552860961562,-0.09312842608045166,9.648378423759176,0.006719976359888967,0.005130781404839073,-0.01274251613304002,7.11
-0.08011926270384956,0.1551643192290697,9.731255552727548,-0.00431277051516549,-0.013719318830124597,0.009270959340028879,7.12
-0.08427529158523914,0.08216223305764901,9.915725402076887,-0.0036089863640779035,0.006556647412549034,-0.011659272141057735,7.13
0.10862408870118777,0.021384879086125543,9.593722424389739,-0.005736418320824914,-0.002026700998333552,-6.195784291270914e-05,7.140000000000001
-0.11725447509238525,-0.10512357136509483,9.62269689921549,0.013658197551551074,0.0008794257485362964,0.0004247867935053043,7.15
-0.04353331798339809,-0.09936150508270916,9.693155204536776,-0.01142818234643858,-0.0019624464966769613,-0.0031416236799953,7.16
-0.11705848376868185,0.04678445433199756,9.756634749780549,-0.011371879402979635,0.006539311034660882,0.0032641306677543016,7.17
-0.08837977451078968,-0.07913505921814337,9.81309281612045,-0.002652676029481108,-0.002066323722182633,-0.010909538981385887,7.18
-0.015259160939890971,0.18277562834411543,9.810849469217462,0.0038751494063498427,0.00394539676925338,-0.009007198202155857,7.19
0.03539538436714517,0.05686971472148977,9.703197830674954,0.007938348653149751,-0.013065993204492084,0.00784234483841704,7.2
0.032502324162059955,-0.043379038408721746,9.876315545806412,0.018500120927334798,0.002164142945373988,-0.014382488132063092,7.21
0.06268509408886035,0.00035919509590151013,9.752675335034649,0.013060150615533735,0.013735019298075041,0.012087612397779373,7.22
-0.08485653120186915,0.026216227495576973,9.814989845848183,0.01206014112170532,0.0002848659639359619,-0.01761570145652672,7.23
0.06644034913205131,0.04383252842942179,9.842667047048334,0.007167735027450718,-0.017672583509963608,-0.012138000731482912,7.24
0.13146445674754334,0.08328182791614763,9.89718563123362,0.00023863021475112076,0.005009258567233791,0.021171232555006764,7.25
0.23660813216701287,-0.09231118099358435,9.834376648135327,0.0014727023138204137,0.009889758404199698,-0.0010409675139549737,7.26
-0.07149858955345983,0.04352176407235754,9.911410338512928,0.0003633979877247847,-0.002278080751188848,0.007560839391867697,7.2700000000000005
-0.019142930330370594,-0.03120066921336949,9.690609022071687,0.00933796054736204,0.009611884460338687,-0.00261037503333723,7.28
0.08393476748758333,0.103145726723035,9.788967376113895,0.006710875280245205,-0.010312349631213283,0.013808994164779495,7.29
0.008595713634307542,0.0970549427412761,9.77449511772007,-0.005520983869451087,0.011636906378136629,0.00018566519197528789,7.3
-0.056465372026192145,0.18280757953891846,9.781251571420077,-0.005063096339994402,0.0045545561133406845,-0.013965798485985725,7.3100000000000005
-0.048576140831971426,-0.0048518039168700365,9.84078861855182,0.007661142390136895,0.026371211203494897,0.00578583446485338,7.32
0.002657342091571285,0.03681936643035598,9.879167848111859,0.000792145419111822,0.002332084279276965,-0.00872635921975654,7.33
0.038958473416725314,0.00834546158752202,9.641635789426513,0.002121081305808444,0.010602858227751939,0.02062258286250543,7.34
0.02058937895787546,0.21619914385997388,9.775294467628198,-0.0014699817713430458,-0.004658580570639347,0.012501435048907175,7.3500000000000005
-0.018399859105995217,-0.17303852938489406,10.018542972101864,-0.008758403903188126,0.0021922286079096988,-0.0014967001442563051,7.36
0.09437659059220173,-0.13031782148891785,9.895566440855431,-0.00025052451527318454,0.004157032998103694,0.0008223016629518286,7.37
-0.06723330898066487,-0.009007931703743621,9.82599044986608,-0.0009226260644749212,-0.0009847499563775822,0.0034597525821413034,7.38
0.0891027875583967,0.024767255623748274,9.85834236901847,-0.0017865660641249509,-0.031019393088821425,-0.009563971504371141,7.390000000000001
0.13539109183933826,-0.11058386541764538,9.91677233517375,-0.0006576175422058562,-0.009325700715306274,-0.006048642080572826,7.4
-0.13057171003715257,0.09844390432778959,9.883712172984028,-0.007592201590012915,-0.01784982542350575,0.008996318879628014,7.41
-0.14221643556534913,-0.0695367808764598,9.92260745820941,-0.0024058136266885016,-0.013711370975591813,0.01002372143713587,7.42
-0.008742750446977456,0.0313228083832977,9.791098742329307,-0.0002166775083537143,0.026862110402417684,0.008457930757245768,7.43
-0.051084624574106244,-0.06344370508477626,9.713261831594838,-0.009039899276819459,-0.004428046587287894,0.01140427706157833,7.44
0.01676087337693886,0.07317483298216074,9.834089855487868,-0.014633433040446588,-0.008040888361100059,-0.019827169331039604,7.45
0.07026546254119825,-0.12304207320510044,9.877950011471786,0.005109975664273982,-0.01978020266492822,-0.0030604915600017037,7.46
0.03505450406033852,0.03374598338439528,9.78119489393624,-0.0020710432410232862,0.0070760166294590214,-0.01355769286208602,7.47
0.028127247921886152,-0.10144341229704013,9.743813734103131,0.0009842903782229147,0.003016766943049512,-0.009641376949077048,7.48
-0.20323772024005127,-0.042017424322755764,9.588815285032133,-0.008527511905881175,-0.009990696024466504,-0.009883982150745348,7.49
0.1868484587682687,0.21060855178854632,9.669290936419028,-0.0016880928140019812,-0.010160802428820408,0.01788656703139836,7.5
-0.15986634426129256,0.039727340342633206,9.666349483635715,-0.000784607149072423,-0.014509654924679791,-0.01186819933308816,7.51
-0.14694216040029182,0.17542364371519178,9.791689894345273,-0.001852579839009715,-0.0021719857378128867,-0.017667778318734003,7.5200000000000005
0.1523135022084522,-0.19205473587389202,9.748783230765717,0.01495430126470476,-0.001428100687520355,0.006413172825646506,7.53
0.11330052137288234,-0.11558735684908093,9.830447684836725,0.003390711983082844,0.006062905043986212,0.0035768523833801086,7.54
-0.06858444787498215,0.058927420381590746,10.009031797934634,0.017185835192615496,0.0033279724503559134,-0.0012756711694305617,7.55
0.14668192011104367,0.06547282487768157,9.846341806201657,0.005018282920359194,0.012964112644267205,0.0021362785331931677,7.5600000000000005
0.03747873209428956,0.06437815714005929,9.958956716879571,0.001369548730536102,0.007022850814905579,0.00812634344685211,7.57
-0.09168626944771968,0.06027656043272032,9.812516707447019,-0.004607877332120643,-0.016496124138880696,0.012282418363361159,7.58
0.20596514274596048,-0.12027430502868611,9.927161121791515,-0.0005173963419470942,0.005172218532692786,-0.005414086292815459,7.59
0.09463640180204669,0.12113677819351049,9.929519211789364,0.0046808024045906825,-0.0014924752718872415,-0.003859935362532755,7.6000000000000005
0.06621700553831641,-0.22304328435839396,9.698973639172486,-0.012244474942395386,-0.010435622603920338,-0.0019811210869527364,7.61
0.09611861670386355,-0.11554410353640775,9.831997124260718,0.008466582057555228,0.007808556354701714,0.006152955543736531,7.62
-0.10723781440690797,0.06278990191963013,9.84962555134205,0.018818239875208646,0.006341659693901068,0.0004518483847642059,7.63
-0.10258292695910426,-0.023524827089453554,9.67286321683997,0.024514792806582402,-0.0032097248828477022,-0.002566215590587456,7.640000000000001
-0.18658680594532123,0.10248522523414848,9.788062264523269,0.006353451212930429,0.01217661491068665,0.012086827688626884,7.65
0.035470162627254075,-0.05095077464014806,9.979375263192377,0.0007310910127996202,0.0031178423442612345,-0.015277720285005927,7.66
-0.008243339760640171,-0.009371916022076763,9.780408553061195,0.01268823759907413,0.002056244310593039,0.011528937593675187,7.67
0.0007623987529287298,-0.04636004736093852,10.041129444090705,0.0019096729753073451,0.004796061982753704,-4.233087628379197e-05,7.68
0.17665702909476377,0.11827730506768118,9.941187019414679,0.0040266841343814235,0.0021379738223793565,-0.011134315043045614,7.69
-0.049007821759092685,0.09641008796519768,9.606224976967955,0.0066189333418800594,0.0056963579747107045,0.008246244356775907,7.7
0.09493428777255943,0.2388094769504961,9.889211059903023,0.003535116781113406,0.001468403090286967,0.01290902513519919,7.71
0.029186669720395533,0.12006644460485097,9.747704292387223,0.0061108277749795945,-0.007714159150804593,0.009105191929549613,7.72
0.1240369327001944,-0.06074353330714241,9.844175406003309,0.002103127356846393,0.02176330938419491,0.005933487549434158,7.73
-0.1225408046416669,0.03869483739521478,9.992174822402983,-0.007400932053044402,-0.00026055656705938594,-0.0013361203317606028,7.74
-0.13160823732268997,0.07909954874521961,9.825835087074926,0.002239417879200568,-0.0045042579433781016,0.005805450014078894,7.75
-0.18707894321482177,-0.042983782125178255,9.960503838890167,0.004572812839467489,0.014862340318628724,-0.004628087969289395,7.76
0.06506276734871344,-0.020175635415534028,9.612207498949678,-0.006156041813534139,0.0011540539418751561,-0.018237376428894687,7.7700000000000005
-0.07753461409871643,0.14570519971358561,10.010868357580522,0.008160701150181573,-0.0045122522849743215,-0.011794753364073478,7.78
-0.07202884796562892,0.049273407562473524,9.715433874355158,0.005486871550744301,0.008729039647662954,0.01617442436671837,7.79
-0.29075990363368076,0.07011692446198761,9.84961106937648,-0.014404329137588788,0.0009199188599513041,-0.013432786651952106,7.8
0.17607349180393667,-0.11910659971868863,9.950454359500846,0.005820905597005104,-0.0041494938167556256,0.0011557106593527435,7.8100000000000005
-0.03627393828705007,-0.010830682971024477,9.890550419081746,-0.003232143824714504,-0.004665683442240295,-1.4148126287426796e-05,7.82
-0.028656187876803803,-0.04572554776211252,9.976706542915338,0.013600859082611112,0.0009064743427144245,-0.006180678427147281,7.83
0.032335267801106675,-0.0962440784501105,9.870222856263991,0.010052871905874129,0.002383623775305376,0.008167980511442626,7.84
-0.03150736277038978,-0.15494476214069017,9.970769165706102,-0.008424578037164508,0.013314142998649503,-0.014149077282604807,7.8500000000000005
-0.08471004752264037,0.04068022580502534,9.783373403416814,-0.0059083664708972266,0.014726789139297425,0.004598296029173538,7.86
-0.04308948975359927,0.12763052375540637,9.916754402276409,0.0036188950632316357,0.017558247888548113,-0.0070653656590470276,7.87
0.09657635135297743,0.0029380495816819056,9.76594430888925,0.0005202387990730119,0.019636920544174645,-0.001071318582110305,7.88
-0.04737284734712044,-0.0002651582098079287,9.868021123282553,-0.005038174607268937,-0.020823526104089142,-0.013635290737633286,7.890000000000001
0.16889456883130094,-0.07064454189216347,9.697866703142603,-0.009310242410012309,0.008023596027646582,-0.013548362610875244,7.9
-0.0634346683850384,-0.03105821982342415,9.883997710484229,-0.0027396903668496157,0.007545149061361904,-0.00587905435998435,7.91
0.045852219553650965,-0.07334208215524422,9.912226689742047,0.016606208664694554,-0.0045905344111463724,0.0012536560757693011,7.92
-0.07329646665456865,-0.09009688853757873,9.820135519966712,-0.001127894607783122,-0.003700923627706505,-0.026594550644026122,7.930000000000001
0.04641896499122472,-0.03873327021134011,9.91590209593638,-0.0004627606792802587,-0.003007300654593616,0.005421307617857918,7.94
0.027562685323425748,-0.08140165271706183,9.915958325555959,0.004269930713750213,0.007207924129989288,-0.001259527651496076,7.95
0.038169213966591335,0.04063890879895356,9.8225224922677,0.0005745624230305104,-0.0057952018782207095,-0.015721897680107583,7.96
0.15056747866061584,-0.10955480020425057,9.900591347235611,-0.00385224948716759,0.006489676460320448,0.022985012741348648,7.97
0.04878184086060945,0.14945486275741984,9.798096786628513,-0.0037572903627707045,-0.0050338513532497,-0.00040245140998817195,7.98
-0.027358824493811273,0.0022673716453109386,9.792283751281474,0.0046285836155518095,-0.00980578011722729,-0.010518205427909509,7.99
0.09483659398805229,0.07728677307860153,9.710551260533972,0.02353908985968131,0.009062200861686994,-0.009011663535315954,8.0
0.09493211184209978,0.058039707374254325,9.823349277592675,0.0072214717217582245,0.011008727896611151,0.013304167536672415,8.01
0.047498461057345655,-0.01074380586222788,9.792703341143357,0.0036396770626874637,-0.005976779121071656,0.0021607455619090093,8.02
0.01944740910241386,0.04467256404371131,9.696873502110073,-0.0005002456991351045,-0.0029967905838988217,0.0004140196353727972,8.03
-0.008676569965423283,0.1355201666924377,9.807683584237994,-0.009658318618676682,-0.009101639816324163,0.012285184135366521,8.040000000000001
-0.10587924087879651,0.03532840655037505,9.765452244368706,0.01016946233443731,0.0028945203156683563,0.0007312818365132821,8.05
-0.08631883494299952,0.20028618883820273,9.8437138067954,0.005336931057425247,-0.007824196921457159,-0.004735280624127576,8.06
-0.05977678136658291,-0.1305596120522188,9.760455239950966,-0.028345484249975704,-0.008211044428029859,0.02237993771090363,8.07
-0.06232012449457507,0.0578510661138755,9.713850504896552,0.0006376845336218907,-0.004070341211940241,0.009111866173457439,8.08
0.023580031136309968,0.0017651785119259544,9.653228885790721,0.0064744879582102725,-0.0047794078395019405,-0.010139501729756938,8.09
0.06045778729060345,0.17435352585596742,9.972006247618959,-0.0023016984510876616,0.0017310399667465116,-0.016532752665764764,8.1
-0.01349786435489914,0.04556027723861771,9.780216660100782,-0.005472736944372042,0.0017353137326310158,0.005639006854461615,8.11
-0.19580681994362792,-0.229458856408043,9.810588909535413,6.958283027141579e-05,-0.008679380164948415,-0.019526815177745953,8.120000000000001
-0.08330488787675686,0.08839223398440171,9.86202874746521,0.011271715021058509,0.0006433573646238723,-0.0016348470372652979,8.13
0.19348803426481462,0.12022262615064863,9.807913161975383,0.0010290567887054505,-0.0020981766878540443,0.011588717666167847,8.14
-0.07724092654014425,-0.16089499211534306,9.759804109391856,0.022221719448174478,-0.016268029750738197,-0.00479490497019596,8.15
0.11684219884831755,-0.19835400556156432,9.807993818539082,0.01604851591069052,-0.004759749932490915,-0.0036028586817163323,8.16
-0.0068748096454376035,-0.14976177135334773,9.873739358399373,-0.009747092791130623,0.0014940387471374594,-0.013261882265574936,8.17
-0.06224254282044039,-0.10400318762638863,9.799973473902595,-0.011256303271223553,0.013816227177280085,0.013487898831404789,8.18
0.07057238052490127,0.10222757622934096,9.67192154659547,-0.0017080132972014297,0.0010784545253526478,-0.005678323266633181,8.19
0.0878176229791238,0.09625865682251991,9.811797523110364,0.0044200073983907216,-0.013492899111575068,0.012198317606007368,8.2
-0.09447612125903249,-0.06598010310139905,9.786947067667185,-0.002401673094888747,0.00831629240930301,0.00810745604111225,8.21
-0.056563860587780436,-0.05681285924540472,9.754292723556564,-0.02597575915934515,0.00232955382973663,0.009612347774156526,8.22
-0.11016823272920379,0.03549641591769052,9.809776762889552,-0.010813512904148075,-0.024569130945130514,0.021807788057769468,8.23
-0.09886079151622326,0.020820930835756576,9.953791238485007,0.0054165806378881735,0.0014465310087825437,0.002435330507635621,8.24
0.2291929137233152,0.009601718381585155,9.653786256033005,-0.0012842046494222499,-0.007458363465549209,-0.008125221706093642,8.25
0.017133950672224004,0.06582839669652649,9.72065355018218,0.013126283959587237,0.001256999720564684,-0.00856066970474691,8.26
0.06887919300539869,-0.06136869501861332,9.738337154800728,0.012365792085553964,-0.020135881195940546,0.017531442620534906,8.27
0.1098994695592253,0.030818726035128554,9.967064095643243,0.01986774162446846,-0.0044908984717772675,-0.007375523671115133,8.28
-0.0868760257823777,-0.05889789143690573,9.895294647558522,-0.002366341847943554,0.0052649792346558056,-0.0090223727001741,8.290000000000001
-0.03384513062419607,-0.10323179469973676,9.77284956968075,-0.008646908879337271,0.007607072501582451,-0.00013872524423487936,8.3
0.1123509819264774,-0.09523943987067424,9.855686355933484,-0.009795181943669531,-0.0010724198554450633,0.02159436931434331,8.31
0.16256773267496044,-0.12583347277841173,9.971694235414228,6.710179900200482e-05,-0.003426348841019552,-0.009182587933524873,8.32
0.041110837225234446,0.04994647731584367,9.884263755675873,-0.013077620926258516,0.015839155865561304,-0.007748246791715275,8.33
-0.07512804856312405,0.038755625955640055,9.756830121591426,0.00548330041602644,0.013294361821080467,-0.002296982318849267,8.34
0.06423718109360878,-0.02518252068355529,9.823259542889863,-0.012468604300491435,0.007790992123833038,0.005526428255297783,8.35
-0.0418600208829571,-0.016131460501315722,9.763178560559464,0.0020969469473118936,-0.013404541675973958,-0.0008284322694469439,8.36
-0.09549427037655524,0.10180431947931633,9.758524382504163,-0.017767720454768102,0.0008602777402302108,-0.004851124213485349,8.370000000000001
0.03109764935495596,0.2061039737659756,9.821921625332338,-0.010538618520371815,0.012237742334428077,7.039092003796649e-05,8.38
0.2547406650967041,0.09048449647042126,9.744643383931718,0.0012447494721591807,-0.003870740661522137,0.0039815965860179655,8.39
0.18571820785412976,-0.09827828104225732,9.789506377994865,0.01082456202748507,0.003940860777242415,0.006514196166787249,8.4
-0.099693798938634,-0.10578749494292344,9.972583006406637,0.005188203273942898,0.001383485296631554,-0.0032437811337490126,8.41
0.1521288320904947,-0.08125233746659988,9.919970394713047,-0.008934372599755722,-0.01737812389521524,0.00055376829738125,8.42
0.050095063421333054,-0.1502427036022278,9.817916600385994,0.011122844513787804,-0.002253146106015498,-0.00682269901818347,8.43
-0.03416792638843894,0.027415543705102925,9.867955181531459,0.012047969571145876,0.0035922987539552345,0.0012515538270231248,8.44
-0.03355156069660112,-0.11641373924236204,9.912219780429773,-0.0031941164896760357,-0.020900956378392524,0.003568944436129456,8.45
-0.11021326895673485,-0.203713577739696,9.8088753841221,0.0018753627011499259,0.0029296339702848152,-0.010337954557688748,8.46
-0.06555466507752415,-0.07442139484031142,10.00933035413172,0.008196639415363001,0.0072563549743975084,-0.006937219426237274,8.47
-0.015301342916624964,-0.0003059989812893601,9.897623640732853,0.009838854487879151,-0.0029650673416650834,0.0007155546756599457,8.48
0.08963259146396406,0.04318902769585961,9.826299862938159,0.013303060451267317,-0.001394462982284816,0.014575653633630765,8.49
0.029454308261468873,0.09476453794895445,10.05372192698916,-0.004324528591749922,0.0065647535485228,0.010166677477141402,8.5
0.11702646570209752,0.009029883598445537,9.803761644073145,0.0047662686463431,0.01083661808475422,-0.009071198924542456,8.51
-0.12385973783869718,-0.07434115313546041,9.903330310323762,-0.01314277714612758,-0.006960693327189673,0.004190221426815504,8.52
-0.012134586026808543,-0.00944303027961082,9.718674108748283,0.0022954075062306977,-0.007497831960450585,0.007442311822125361,8.53
0.14638403422928858,0.09773479827858754,9.750482763416375,-0.011687546468495926,-0.009841201235446021,0.005478248060674277,8.540000000000001
-0.11784929515655854,-0.051675168052844146,9.88558073772126,0.016392293001194172,0.013025312973850137,-0.009887975886648004,8.55
-0.03842041187084642,-0.019485022704464297,9.670257849724907,-0.0009478639938475532,-0.005610590438606645,0.001925998465467291,8.56
-0.14718384839766305,-0.08729383848194111,9.96667033136553,0.006132254920324811,-0.012161488291948843,0.006345931444556089,8.57
0.03570413991468579,-0.06798631822510605,9.865978885123416,0.002948601884548416,0.0006516615815605964,0.009222479600991727,8.58
0.10025426748090958,-0.08634982814154167,9.752370405730819,-0.013300640247549159,-0.0016613750353368186,-0.02170805692417307,8.59
0.03993052082697392,-0.05219961027868178,9.856437529429304,0.0011234371743566326,-0.007487245723628549,0.0003776974411811284,8.6
-0.023034764527460925,0.025116646179212943,9.76713028290993,-0.009527369284378601,-0.004769214595535454,0.009104207441675127,8.61
0.05921773321290955,-0.23389925894347857,9.704055806372113,0.007128193048668586,0.010054586675260895,-0.0036508112419594203,8.620000000000001
0.08063599907881236,0.061104430614760834,9.825902775064213,0.004310368198840895,0.019816508890533747,0.009835080253779606,8.63
-0.11087676805833852,0.22116951515295014,9.759224374025955,0.0021792343668209473,0.002236634245819978,0.001264539428955976,8.64
-0.12423173902934002,-0.1936575144464715,9.736395775464702,0.007422482546553313,0.002932711754932837,0.0039259071792666815,8.65
0.17310645105466266,-0.08440453743107086,9.784940633502433,0.004618384000639942,-0.0032847329885327455,-0.008719203154428107,8.66
-0.17920957723772585,-0.08006909999732258,9.867168989856054,-0.01937028167474725,-0.0007112419997683491,0.006752658347732076,8.67
0.0008451584493923439,-0.1646434274253008,9.830100492716044,0.0042006191622284295,0.002714472950528939,-0.009554435109601207,8.68
-0.08074380400864432,-0.10191433920205664,10.061278073791854,-0.000959852279191366,-0.012616278361098882,-0.0013570625872784765,8.69
0.06855670780232624,0.21273812050386498,9.756773388067993,0.006461095482581945,0.0026562388861130614,0.01830309843174178,8.700000000000001
-0.04456831487316168,-0.02765315961472391,9.92377491174858,-0.0018462234371074426,-0.004941951036441382,0.006737706733703014,8.71
-0.0796374674006245,0.029317651125111945,9.783783542056447,-0.004516438191182274,-0.0033904888817296542,-0.0011533633052932275,8.72
0.026226687387148218,0.14914041221830962,9.920931522865157,-0.011878709100258828,-0.013810796647808495,0.02265203660440401,8.73
-0.07891730294586542,0.10468833933851587,9.858405238489107,0.004976412798929996,-0.008201615290280486,-0.005897728586592534,8.74
-0.06766744102992188,-0.057407558454346745,9.999310505440159,0.008772299464466952,0.005825194897444758,-0.011879170451312912,8.75
-0.03232430520097418,0.058629056612993016,9.84564364556993,-0.00033475089473365563,-0.004217930766826041,-0.016720318877002954,8.76
0.008535764406889978,0.014213335008638351,9.781553413618441,0.008144274407590262,-0.012674638468406463,0.00026027756008484537,8.77
-0.16278298121067009,0.14699534485729587,9.67443362174473,-0.011161707941488536,0.004434132089171921,0.0008472699293753315,8.78
0.0709812267770458,0.005283340896175987,9.69684461354555,-0.007209935381264975,-0.001964534686844872,0.0003238688815002281,8.790000000000001
-0.09457476397617598,-0.12713985153841798,9.654891882233425,0.00027484746434858025,0.00995136560586802,-0.004016522826005928,8.8
0.10095817238688723,-0.05562170369787525,10.073189400562475,0.016878149659630574,-0.0009053642995870772,-0.002140464792526126,8.81
0.0239061102800273,-0.12575275358879803,9.879402906235196,0.01742877841809014,0.018490958198680223,0.01863487488147453,8.82
0.19720422865779708,-0.06516602777726009,9.847126776548555,-0.025580586921904486,0.00999941508000236,-0.002273097969103347,8.83
-0.027052419319345145,0.026733856636841413,9.802080249393022,0.009817812892518415,-0.02213281770823963,0.006280027523443311,8.84
-0.014359358297491335,0.12979391730146686,9.9010835798056,0.009386927103431067,0.0005128652484339097,-0.01687556575511868,8.85
-0.0299942401142875,0.02761887590573572,9.81362874685007,0.0003592973104949221,-0.0007976589528895664,-0.016596179041716976,8.86
0.009593560427803783,0.09567376742012013,9.610554205052756,0.007298515921684259,-0.0005226306837961078,-0.01112414802622167,8.870000000000001
-0.05778250566297515,0.02708719497664699,9.62269196502879,0.0059016619644894,0.0036500114987714862,-0.0017910899581699375,8.88
0.09770657659321454,-0.0494127943489342,9.91191576649015,0.00899498758568808,-0.0068559447058126315,0.0035338172444357207,8.89
-0.017461224952486573,0.1439516707131655,9.883874259118077,0.005018493866151939,-0.002619445959392045,0.002047990424133931,8.9
-0.1361567157572577,-0.04289090931385351,9.755705044330716,0.004765514963880153,0.001860641196914152,0.009110493498501446,8.91
-0.14452440749417036,0.028168228901025844,9.639187074322617,0.012327001506247482,-0.017732977263651115,-0.010935006854055232,8.92
-0.16104857483521415,-0.09272943012642121,9.828743240154502,-0.011618681484604161,-0.009774397878253089,0.0018158820402297856,8.93
-0.07802312429217739,0.043070450954686285,9.70756342183099,0.012385180549034296,-0.009650383604437901,0.0036883448271486413,8.94
0.11014564212298655,-0.040602494112789995,9.776307929847654,-0.001816676537931734,0.013309103115439844,-0.0037816519967060953,8.950000000000001
0.07647534184729185,-0.08328894919583288,9.738835318357692,0.018005021833288674,0.00021563305907014994,-0.00841452177040057,8.96
-0.11825241002112351,-0.07036111157739565,9.930397750664078,0.002539714607854951,0.002300483201152792,0.007728058227372923,8.97
0.0060572437821838476,0.006792787953297118,9.711155169943652,-0.002710119221140838,-0.0015813065429882494,0.0025745143517789913,8.98
0.07401987878923387,0.18644603348274844,9.743193809236663,-0.0009397133536526063,0.0004924916891877188,-0.017371892049610822,8.99
-0.07824887611427228,0.027889429857645157,9.709535965611465,-0.023021189998603565,0.00023796532245251388,-0.007876529970950705,9.0
0.12263319393718053,0.11630209564638501,9.890773914193888,-0.008107991804194994,0.005851962680725957,0.015039680997874368,9.01
-0.15049945052880087,0.10146622873282324,9.66471809465329,-0.01911193588172906,-0.015045037024120507,0.004865455159809541,9.02
0.09882337222914643,-0.01688036238375161,9.65011218852639,0.003458958017999599,0.011929374313247592,-0.0007160445432924134,9.03
0.12783693742275468,-0.048636685690060716,9.947836202919463,0.004607920446006369,0.002949395344605598,-0.005362639644011101,9.040000000000001
-0.06661908093582558,0.028360826441758438,9.7800720534431,-0.0017635926661689562,0.0029284701719274027,-0.0031929613663938122,9.05
-0.09152971344516449,-0.09885451418885055,9.815322397345588,0.0016190247746150502,-0.024826593403334873,-0.004301988162892629,9.06
-0.015569246869731698,0.00455189044884828,9.89342006312366,0.0056866121646669,-0.011805765853294972,-0.005679453376717046,9.07
-0.05387306540812983,0.22256498242245418,9.741595163546455,0.0016587905088707054,0.011386694855881282,0.01672857409827417,9.08
-0.056868059655376904,-0.0916135542721286,9.879832457722049,0.001376989814344295,0.024839439710217053,0.009399921823727404,9.09
-0.1095679710097844,-0.09400806413399229,9.730785283878003,0.0008703257165780154,0.009920456494982034,0.008421426518179505,9.1
-0.009494440933006085,-0.13581784867523033,9.811244776396645,0.0037804178119506876,0.007877277354123581,-0.026915874974298527,9.11
-0.04422622467975838,0.17042696671782875,9.797516979007934,-0.001072968686249692,-0.003470274286018984,0.0032937536308346306,9.120000000000001
0.15248238383345064,0.13485334806709653,9.779426428406131,0.009448715442107168,0.0010504170081719355,-0.0032796032663120144,9.13
0.049160376694932874,-0.06451289072803384,9.687248242885236,-0.006742276193986231,-0.017630288127661774,0.018952296124409632,9.14
-0.043629637508720745,0.08409958434481535,9.856112178274273,-0.005884700229929025,0.005459345211911591,0.01798907130477576,9.15
0.21227163016422745,0.046464680519683166,9.794787232313192,0.008116856418929223,-0.014020091234904542,0.006582224474772758,9.16
