ax,ay,az,gx,gy,gz,timestamp
-0.11368480181045336,0.09528820614029654,9.862246511041254,-0.010920479700368248,0.0004970347076680077,0.006237170253335343,0.0
0.1929845324025199,-0.056895177072687944,9.622969594252876,-0.0059558827410890495,-0.003971311851113865,-0.011316783185450978,0.01
0.06394470175678175,0.11177777578712532,9.787845083045271,0.006160065144289264,-0.007089168179203137,-0.009560329204694795,0.02
-0.045978350166936466,-0.05958870982717347,9.972864025861856,-0.002288843764167639,0.01441017910595533,-0.008191250062224568,0.03
-0.0969037417811541,0.22754219886451632,9.787906894903525,0.001866426005856868,-0.004224406558752338,0.0026445860861503486,0.04
-0.19678901005091315,0.11464973898652692,9.852958390769553,-0.026135739815562734,-0.011814226301493513,-0.00030464229641128396,0.05
-0.03695892401029351,-0.05636441774554793,9.538830213225596,0.003900651225977013,0.018809569134373382,0.00045379862252719797,0.06
0.05246443352857471,-0.08876596213124391,9.861464165596196,-0.007393100178379467,0.01671448031966459,0.006756220170669342,0.07
-0.19300690604785786,0.07927292522579668,9.863903272253369,-0.014553220439015746,-0.00719750180303156,0.0047224675068500395,0.08
0.15577278024813396,0.010857631471701407,9.740626048941195,0.005736810226940945,-0.009725075509720823,-0.0014289657701928528,0.09
0.11506329906537588,0.0329193256356416,9.73686901719756,-0.001039843445356248,0.012938647207129983,-0.010749500854761132,0.1
-0.15610732479290954,0.12668186821741842,9.803083136308867,-0.0072856690602628406,0.0011660752090180944,0.013541851212334373,0.11
0.31311602853815534,0.05824283450223039,9.735842078281461,-0.003951573197920023,0.004780383430406832,-0.007554416977274436,0.12
0.00017734679965688812,-0.08583073004755637,9.911099260298032,-0.01121390081678586,-0.025053494479309563,-0.00054880369578066,0.13
-0.11427658183387182,0.04935884107010267,10.133220252385089,-1.3832701627354473e-05,0.004240055398226623,-0.0041326665099281155,0.14
-0.10416789080263432,0.09110513484463527,9.779439321759014,0.008682835942667543,-0.003320231062376968,0.0006327976317736765,0.15
-0.0030399642413649944,-0.09105306954886512,9.704609323139753,-0.002277636055093052,0.010960982301258587,0.002410612030557431,0.16
-0.23493846605788837,-0.025020610467138937,9.67573509990996,0.008644270297628933,0.006265189133139032,0.0027143443099434473,0.17
-0.04849395323096483,-0.1889361892445997,10.066376329384681,0.013416468997636913,0.00156498857238455,0.0007074370365222667,0.18
-0.0588827429104752,0.1903310122876296,9.788439827051608,-0.005245473078119999,0.004218943330741198,0.005554237700709259,0.19
0.08398386325359758,0.02068801863882024,9.800014148728142,0.005646289003106934,0.0037177432831908643,-0.0015309549201587727,0.2
-0.04380413591088652,0.13252823998240806,9.857149484314796,0.013050648944808412,-0.01627081605342273,-0.014799411293316028,0.21
0.03838136880337841,0.10416813518707786,9.755557173527006,0.003731417500298372,0.002091442800385155,0.0012320575583094327,0.22
-0.06608202497869496,-0.11381197070400934,9.844636546380436,-0.0005779539860733597,0.012330884280997415,-0.002943603032755019,0.23
0.16380219242487154,0.04842109962762142,9.839782899280872,-0.010818658577522951,0.026526015789260074,-0.0011980839586282935,0.24
-0.045402761185553274,-0.15325869728313493,9.939569410723937,0.002825373943271838,-0.013318706885125415,0.008921340180576451,0.25
0.12847682166947302,0.05925247670026984,9.92296183828215,-0.0020850809110263854,0.004687242810377942,-0.004136875921117762,0.26
-0.09314916953756613,-0.07525669920908806,9.757018105618954,0.003204297272253488,-0.007625676495114661,0.006948778443758277,0.27
0.10065403156796673,-0.033197271802130175,9.86695211482606,-0.004542086871142651,0.006618795287533621,0.01213585595680348,0.28
-0.1616395856464372,-0.09383627359288815,9.782675226873872,0.00038952810898203617,-0.0044595483938196364,0.006428976056050779,0.29
-0.04381800682366557,0.14610490906743606,9.854586502011925,-0.005738267141423274,-0.009771567452143318,0.007267755960388458,0.3
0.0901905469133717,-0.04116158713042169,9.954620204912123,-0.0036010743670194553,-0.011072171639245799,-0.004914353099812035,0.31
-0.0794904690597498,-0.017319704745767602,9.903564366084135,0.008942273521600454,-0.015935440737799143,-0.014210288583108775,0.32
-0.11706714764087221,-0.07918690237504876,9.822671626486414,-0.010889624055615952,-0.0002734042712007857,-0.010075356008044883,0.33
0.06678780978969179,-0.06823402410185576,9.660247962986983,-0.0020180857892988487,0.0021147441269291052,-0.013547101702882175,0.34
0.04408216903209179,0.0247668733551478,9.967471459007024,-0.002776066263671495,0.0062475085665303,0.0026385603408909794,0.35000000000000003
0.06451049586147616,0.011338547011184063,9.777551552681464,0.016180703425824245,0.007150724410396999,-0.01096812810906496,0.36
0.03566751561132763,0.08051701514594418,9.93757481122567,-0.006343443395480425,0.004940649437152117,-0.002946957944917406,0.37
-0.012034337656109154,0.31481205500463405,9.868151620628327,0.0021766796569008917,-0.008243252275117576,0.0021894382958583965,0.38
0.10064569557618996,0.03277345431778126,9.64820575295157,0.0204307288465339,-0.001144155318067468,-0.002519317022463512,0.39
0.05686416980417574,0.09344907055418676,9.798951282940303,-0.008921935935060504,-0.009420044118510072,0.011718594979806863,0.4
-0.06041940767922421,0.0692844802413397,9.896976666811831,-0.0016453064672733765,0.006365363531843527,-0.004207855480957704,0.41000000000000003
-0.03220850384369747,0.20267437129360003,9.749239565941926,0.008725726219000965,-0.016162702356147342,0.009506927502953367,0.42
-0.15188322801678486,0.018758268517189702,9.782960969231148,0.006942187664994995,-0.01182879280212529,0.0033360067366401576,0.43
-0.01814345781902417,2.629026225967833e-05,9.70885147066067,0.017332889668924753,0.01506437073660605,-0.014489048420618642,0.44
-0.03981203696630106,-0.06210535517748267,9.8971962747784,0.00476008952417359,-0.017584918224586483,-0.006591023324564888,0.45
-0.14776519558865395,-0.10047449357751924,9.83353900005467,-0.004897015915664929,0.015055097390799193,0.00010989099249371885,0.46
0.0272626995377188,-0.17033874124721404,9.827394898057658,0.0012319687113742826,0.0008501258610394652,0.006194100715580483,0.47000000000000003
0.06922849856891583,-0.0655320914610664,9.939197245037725,-0.0006534997663181723,-0.009474311042420592,0.00252822213485192,0.48
-0.00797832606414738,-0.16944028184951407,9.959512765067478,-0.012127317848177945,-0.01654753161181044,-0.0033113066782615255,0.49
0.012982965666911215,0.09705227456682453,9.691278257911154,-0.013336843514808096,-0.01830986609191879,0.002236073607209269,0.5
0.18657566451006222,-0.1020827531226356,9.737098013695594,-0.006072776428771201,-0.00169236841702884,-0.008055742604206202,0.51
0.0504492239016072,0.009803126725886417,9.904528297330785,0.00908645748181804,0.0049606551097233845,0.015653324916640336,0.52
-0.11282934586880107,-0.13660284454501484,9.772345501762217,0.003098325686080283,-0.008188082228305079,-0.0010817351492866142,0.53
0.19632485643417164,-0.03224718345697701,9.848691299248188,-0.002620633858827543,-0.004763012377692152,-3.277717055603023e-05,0.54
0.015530053105037737,-0.006037556689236869,9.894443166624724,0.017957924456355294,0.007202198880936895,-0.009694623675090903,0.55
-0.14947986469108296,0.07261592323052161,9.727856551285935,-0.009440489670191832,-0.0023432391615268596,-0.001593058422289332,0.56
-0.24949265625649858,-0.26868266964968884,9.768183569802792,-0.0021322150846688043,0.007682329265040616,-0.005194081425517211,0.5700000000000001
0.1499854361542246,0.10709726047300068,9.841238030265998,0.013472964139936695,0.017258788349124997,-0.007971812603148358,0.58
-0.0195488774159719,-0.16356456182330267,9.777809640848663,0.019577525595868464,0.0009019295941266125,-0.004558651089383849,0.59
0.032379654952183215,0.13177025540131254,9.787756578255824,0.0031850163297116813,-0.001096947143504573,0.002648229677201471,0.6
-0.05464083709171541,0.05581491096364162,9.567089480715737,0.0022276155516568023,-0.016004717301959414,0.006696206006179798,0.61
0.16780433829510485,-0.08922899509800862,9.761062922239754,-0.0047240082153117485,0.004698144603280022,-0.00785207784904936,0.62
-0.13322487035769515,-0.047869830528556534,9.832811694525976,-0.00485571797801983,0.011953987954414678,0.015382600281430006,0.63
0.11523754186837787,0.20280660448880994,9.715558821377874,-0.017507391408618674,0.005211427338882724,0.006979740860301289,0.64
-0.004731363683255094,-0.05100133266044743,9.633653537887119,0.0034774701513278885,0.008624898680981262,0.005905354083844025,0.65
0.04788094298123227,0.0016136790046469792,9.9839457764607,-0.006946482585059821,0.004187773954832551,0.0002893413384474131,0.66
-0.002224652808369616,0.07122670193682372,9.897630474306677,-0.002742585798026271,-0.00027863001055484783,-0.015205028850805028,0.67
0.18756315663321266,-0.06825098730776015,9.740985346506756,0.008286116681308651,-0.005766988672612546,-0.011847608668073191,0.68
-0.09611265517815984,-0.042011871949475275,9.742290428542393,-0.012214253870517989,0.012992135497705636,0.02550667808928267,0.6900000000000001
0.036906357925784075,0.08927554487359474,9.814933806583465,0.002227391608911251,0.0013416183531589545,-0.0015355625082045935,0.7000000000000001
-0.08814332838591,-0.05005109865346259,9.809183211635139,-0.005367667681408388,0.01256986465552963,-0.005982200589290014,0.71
-0.03082385043753741,0.1149925348099808,9.75280892083631,0.002207296134924113,0.006187632907441133,0.0271835472136627,0.72
0.004697618176545974,0.07269480451586931,9.768259332242922,-0.007745963347715403,-0.004648151573630708,0.016361353113833032,0.73
-0.10715125308813521,0.08997981200152665,9.752478275350734,-0.011907877787558536,0.0031443427999578626,0.0034434811637989865,0.74
0.006333557060835649,0.11688174965972493,9.777100862717553,0.006882614346898055,0.00043358966107697627,-0.0006618639570886047,0.75
-0.0070828016393426375,-0.013934853828729813,9.81059594426595,-0.0012351232888303176,0.0012056591111575935,0.009010632435317953,0.76
0.07616490289302097,0.26362076488431113,9.653175239901357,-0.004170804257023776,0.0031766775072799244,-0.00418917207454566,0.77
-0.0815001848282923,0.08532172009444117,9.951677065950804,-0.0006625921147228776,0.010675355124933257,0.022844513650079903,0.78
0.01103448442922745,-0.08501510397972652,9.697490486153379,-0.0035989890872228855,0.003292390605850996,0.001900654535077674,0.79
0.033712900485964516,0.0093076920131315,9.766443960199325,0.004904246284215419,0.007932438364343045,-0.014350624275386812,0.8
0.07316094792376959,-0.06594777425185357,9.735769078756414,0.006512380510321784,-0.0037046309278014216,-0.011195062326006016,0.81
-0.0004609015441827529,-0.012756147131877485,9.7805965393356,0.011949862365022539,-0.013868316114044694,-0.00123090218483821,0.8200000000000001
-0.08126635104400798,-0.03631205951572579,9.834138517665908,0.0058863106568158565,0.006822445001196236,0.0081452185567225,0.8300000000000001
0.10495499666413664,0.05648841958793234,9.963019227103938,0.007572055585737677,5.043456448858103e-05,-0.006653670148475288,0.84
0.11591948983363683,-0.08216730921343612,9.85918109638895,-0.0017226872648642767,-0.0027783894024287887,0.006519504990481248,0.85
0.05483486874772908,-0.08042760359535792,9.907042242969382,0.013021213350029898,-0.001756738781766011,-0.0042930871735916845,0.86
-0.044583611143564,-0.03507873797988759,9.973314065781308,0.00021579555413264777,-0.004587513565499683,-0.006596183177545629,0.87
0.030086700175229478,0.08266025332508853,9.73906025027012,-0.013475578648047777,0.0004912327765300744,0.0027997977891336184,0.88
0.09986888120346452,0.11246429733797242,9.739783653464531,0.0036482465920976356,0.00469345317766388,-0.005806268203273102,0.89
0.07450556454062462,-0.02705655460438813,9.733623411699902,0.005366701410344322,-0.004283857076657177,-0.008722061054996637,0.9
0.002067397420694621,0.21570118082090173,9.949096481735028,-0.013288521782170933,0.0033042545252380574,-0.003602391024015713,0.91
-0.26422276961401453,0.04904116572577641,9.84122244439383,-0.01729119100467674,0.027068195472660556,0.018205635588007443,0.92
0.17246302157898186,-0.18633435543881305,9.888017242331474,-0.004169796417078592,-0.003263259995462489,0.01134654671362977,0.93
-0.18302023619305052,0.08018575993675336,9.820761462878844,0.0016704513559591125,-0.0036291065251908682,-0.004886200432094199,0.9400000000000001
-0.017209970657032902,-0.00012509933444289313,9.703209713936227,-0.013958371866282872,0.011125603291512593,0.010309327870911243,0.9500000000000001
0.14483767893534805,0.00026076899062597755,9.90104506909277,0.0019272295180184104,-0.006068706483135093,0.011222898465712288,0.96
-0.0641781629159495,-0.2791083869802672,9.83316192766065,-0.0036873714650976527,-0.0069939185322519725,-0.014814082327025259,0.97
-0.17604874947119917,-0.012649916185460144,9.85323394456473,-0.0056761539792527325,-0.006268685844638823,-0.005749224108523131,0.98
-0.1415000006176802,0.035186779652954324,9.713147124590432,-0.0034249878603567468,0.004984062813213477,-0.001098868520652264,0.99
0.10654425243887199,-0.03669285883201683,9.880711067467855,0.006825226202905054,-0.003944958849988736,-0.0047879681305764785,1.0
-0.04725491368091165,-0.08519528826437728,9.880755709403642,-0.013885284835662513,0.001889797386426565,-0.0040764024461138314,1.01
-0.06893325744900773,-0.1905046910601244,9.910289083983866,-0.01732307720955362,-0.0036950168172335913,-0.008104618175058666,1.02
0.3029969129188189,0.10444915916568845,9.811116605487936,0.0022326177898548028,0.0034807474258489453,-0.005685583665675358,1.03
-0.0012779922714946119,0.075171117594797,9.825852722556336,0.0019337968746473044,-0.012338128277213908,0.007402001337780108,1.04
0.10787417391182169,0.0139789484220706,9.856534808351716,-0.013397952579237317,0.006025911957092577,-0.0070350635530886975,1.05
0.13718665535631663,0.057252916048503355,9.737695692523314,0.0013362986900344613,0.001984366462958579,0.00040112326206174636,1.06
0.11829166604119451,-0.05700170005120765,9.816024268637808,-0.004000952947421628,-0.0168823139687878,0.0028539503205481714,1.07
0.07181309339636109,-0.03818496336304724,9.801824119187533,-0.0060351077127697,0.007830023285477019,-0.012947500497256464,1.08
-0.03011819701973217,0.07523137879956655,9.810138127870683,-0.013695092200145711,-0.006004058971098086,0.015377040768036216,1.09
-0.11659566467197835,0.08587872564236498,9.804408486845478,0.007030901445556223,-0.0003689711143911586,0.022531718276147923,1.1
-0.26602939277187104,0.012434834645102167,9.806225091285084,0.003296390629063427,0.00589833792037555,0.02499642374632829,1.11
-0.12841287110131872,-0.1466441783465321,9.897809198058741,-0.011463040711684651,0.0023345865612783086,0.009785086199994098,1.12
0.041046445783155354,0.020595231288757822,9.576246644953345,-0.00016075959970758156,-0.017311202157700906,-0.01477779531004521,1.1300000000000001
0.03654541248648226,-0.14199238118098445,9.921567499273596,0.021306875670467237,-0.023135775792297118,0.015313128137990612,1.1400000000000001
-0.11824958405556743,-0.14372768536975758,9.893629208943668,0.005217145542409488,-0.0004938836457585832,0.009209802955877781,1.1500000000000001
-0.13178666545755588,-0.018777640407248983,9.858120137212634,-0.0028145649371321326,-0.00014929476395725202,-0.002030034985887831,1.16
-0.012094370194800247,0.1371243512244493,9.729281221323596,-0.000836539963762891,0.019606957451170342,-0.0010420032987606095,1.17
-0.08544160468602807,0.05667388484430113,9.628140761935594,-0.013856767376983617,-0.007219495524981261,0.007247441577132458,1.18
0.08211500875683458,-0.08031366261152938,9.854548248200187,0.0007461803558282146,-0.019875710217089126,-0.0026954081460918377,1.19
0.08302657931279855,0.013417320693534568,9.763785464193926,-0.005155516159379417,0.00044279685106424286,0.004285712831780446,1.2
-0.07067446782347589,-0.09843526647036634,9.86611334797508,-0.0005036176983851915,0.015923564589970133,-0.00936748746323817,1.21
-0.15408482636261123,0.06030238094564814,9.816679784681341,0.0031984381555998204,-0.007893774370930612,0.0014897281494437795,1.22
0.09553002598531402,-0.15185583161499008,9.711643156878164,-0.0191466983775253,-0.00857221362314048,0.011829019077637497,1.23
0.12468443444633424,0.01943710506149473,9.83210503834796,-0.004825940731660332,0.006420826866406825,0.0004448438255986709,1.24
-0.1054519842378326,0.10592244443989576,9.948117044671536,0.017663210869627608,0.00041660968422180283,0.009139857482758338,1.25
-0.04193864115369696,0.24225965469042926,9.705654323513354,0.005038338176200109,-0.006986570187311359,0.010594449078254646,1.26
0.053385956083946785,-0.13474244574109226,9.902678570222863,-0.008635307236385888,0.001752661823690857,0.002248510141187818,1.27
0.01056258701557689,-0.13573143696966108,9.875607014538994,-0.010558851692952214,0.0037486089408704753,-0.0020919306676695595,1.28
0.11099166389971185,0.03452995071058303,9.854846794035298,0.017945787583297974,0.01676056314642927,-0.0037083713138992237,1.29
-0.05323356589412329,0.01338690728883629,9.933394280280968,-0.011287134875786366,-0.01608570108875536,-0.012051231028069702,1.3
0.15501877728845564,-0.007079297662008176,10.065903613649047,-0.01405113601801693,-0.004187810940578314,0.005698116315908216,1.31
0.051305111237572844,-0.30485145628105037,9.847564401510404,0.0007681264803435238,0.018524906309611677,0.014751002918818337,1.32
0.016524021352263336,-0.009933690383555797,9.896215601998492,-0.009450932227072625,0.0076348715123324175,0.01744992198773772,1.33
0.014099693584147498,0.08238031036981584,9.744224846811427,0.0024356647550894694,0.010695016194013324,-0.01726291114405641,1.34
-0.15235173354888715,0.11311093914316338,9.854031172345683,-0.006173102638105716,0.002158267352315548,-0.011770804806384136,1.35
-0.015594516896075054,-0.03645837767672396,9.644027896340656,0.012291075871877366,-0.01412934334004008,0.02683015698532974,1.36
0.10707848657997082,-0.16014226806755302,9.876297651143878,0.009650416482288295,-0.010353279806820824,-0.004570568209361591,1.37
0.11463250018982565,0.02197805450515495,9.801565311829282,-0.002469168962448834,0.02137910462529407,0.012455777250268479,1.3800000000000001
-0.23355700852410216,-0.0451055143222699,9.908219752726627,0.004886438983987856,0.009528943120811428,-0.00551777190651074,1.3900000000000001
-0.028645751526046082,-0.07796294031022408,9.88281478977299,-0.007930889385646265,0.00441261471372791,0.00939496340017207,1.4000000000000001
0.04766046241707298,0.012986949876304651,9.961516230020452,-0.00031026923165889726,0.0006706452564343995,0.01219079787509892,1.41
0.0004921589558090747,-0.026814901958158756,9.805974914359041,-0.007651850710263766,0.02050045501018337,-0.010744407198660329,1.42
0.11123378650046863,-0.08361873390662866,9.818692200482106,-0.007468426789911877,0.008729816221126853,-0.009902226725358801,1.43
0.12038677247366443,-0.06826714168570838,9.945435105480879,0.004142358897215025,0.0008981580207572195,0.005274998645698858,1.44
0.08000326280169871,-0.09855960020093957,9.777636165914945,-8.8136869552975e-05,0.003524129258785978,0.005227003759603882,1.45
0.04749560031829386,0.06565888324160551,9.856700943313902,-0.001912604583172212,0.01347963728012215,-0.013967569016884271,1.46
-0.025669926016534752,-0.15666390843234346,9.734049413363314,0.0280844957759652,0.010848965092424336,0.0006945257251630731,1.47
0.02994148737569488,0.24763013240499354,9.706987398699948,0.002689036636917903,0.008213139497069614,0.022874266566722583,1.48
-0.02382667257513203,0.09882612807021951,9.727799486342418,-0.013092529170163862,0.013066250392436208,0.002518877932190502,1.49
-0.1052136108883439,-0.08189962291590361,9.820929809001212,-0.010029445724563362,-0.0013518075670281642,-0.005821342584376916,1.5
0.14834492248043846,-0.0007831646863612721,9.717590507186259,0.010291276000097159,-0.011807867699835571,-0.0009758370369861934,1.51
-0.027364471088209164,-0.052037968127861246,9.636553613236105,-0.007649203881459746,0.021554746418999834,0.003934427407674614,1.52
-0.06278979515233811,0.02974902826972547,10.120029049232869,0.007927351812340418,0.010734651521269232,0.0043977751531107615,1.53
-0.015588325998134523,0.002735363690869454,9.765242922183493,-0.0051223346538258295,0.008055736122505663,0.002301970857950864,1.54
-0.014507298630809849,-0.11599088665375155,9.832437439206398,0.012730586915351245,0.009427393682072056,0.013774492554274636,1.55
0.020424847467956028,-0.05926275567568871,9.518627255438021,-0.01586132818160058,-0.024510061402009564,-0.014235902306729198,1.56
0.025450011429704284,-0.0666473433172261,9.679905332471256,0.008361726811757524,0.0015246552780451184,0.008023284714297405,1.57
-0.1440815917312967,-0.2208298831557267,9.771216188295464,8.60960954476997e-05,-0.0124391374419644,-0.0001535791545177186,1.58
-0.11593527317352287,0.17603055185681504,9.705523145755583,0.006487148534723331,-0.0018137399512836113,0.0003214108965420265,1.59
-0.05684751705680649,0.01545808012666195,9.986145168731305,-0.00039783620682948707,-0.005444353671681552,0.030576123858498713,1.6
0.2067297279335746,-0.2466852518516702,9.909089840490438,0.0029602069605823497,0.0033371017541838893,-0.0048269661457928425,1.61
0.08931344062322621,0.09534028603615723,9.755093329321387,-0.0036282642774959667,0.00514844209891338,0.002003858461215971,1.62
0.04194887982552443,-0.290001074432973,9.758492224561113,-0.011605423109000486,0.002265972753435596,0.006761101476648248,1.6300000000000001
-0.015093957043416512,-0.2277117889915791,9.775768424854627,0.01794494106391723,0.008731774310254377,-0.00025622904729734797,1.6400000000000001
0.1573917243627918,0.013473095093437533,9.706072691750538,0.0035186732640831333,0.0029377489365043303,0.0045122589811717176,1.6500000000000001
0.004345709066626804,0.08082295099299587,9.848587819387536,-0.00320560235566785,-0.006460323390568928,0.003947138276573147,1.6600000000000001
-0.01353375638704325,0.005662419879121837,9.856075948148888,0.0020146247116974688,-0.0038956325414333344,-0.0032638334993009893,1.67
-0.15659016219532276,-0.011955839086816064,9.901468472823552,-0.009774561607317099,-0.00026123879758622635,-0.004076204426855836,1.68
-0.08937812456518322,0.03573200017295345,9.861243319577733,-0.02178409063543769,-0.012028146932810308,0.004476415983143843,1.69
0.00924470794889167,-0.06951580360063019,9.744255836822699,-0.008790126576695074,0.0005321824991657344,-0.012862796652296843,1.7
0.04457271042654998,-0.08762767268059189,9.654090733177071,0.0008335490619576109,-0.0057247049375962426,0.002557515571460381,1.71
-0.07510474113646123,-0.15447395380921988,9.818083475809972,-0.0009831880654700169,0.014476379333400086,0.001718268572913096,1.72
0.005835723532925937,-0.2228954317143409,9.985719640811794,-0.008034575539126336,0.003486639196877379,0.004750557606280191,1.73
-0.1158863915574103,0.0029514856388759216,9.865480513300993,-0.013285967034767573,0.00045140758621776646,0.02033701739800378,1.74
0.026770885506793712,-0.06816644416796146,9.896984083724767,-0.0090136448438726,-0.00018805020344565964,0.004916503298002197,1.75
0.019518408580397946,-0.005192062653779993,9.638428763325331,0.006491122639829051,0.00814198533862073,-0.0014205972006987796,1.76
0.10351482373906876,0.05575794656759371,9.783212499037768,-0.007507080205831648,0.0046178412219678834,-0.0036493877758827322,1.77
0.11641643443209411,-0.05836503712901643,9.660472198534512,0.008991899071781818,-0.01163553278752832,0.007164124966637796,1.78
0.08291390786527314,0.0026702213496390963,9.837224416248977,-0.00560415415135312,-0.003934985701211576,0.015819373579028805,1.79
-0.06271593955963554,-0.183014103205141,9.839925885164948,-0.005269319205147199,0.008848159868697287,0.012915503740791255,1.8
-0.02902233668277855,0.018593624483116227,9.92016490706923,0.008821795462058813,-0.0038273932222807373,-0.010581982202396218,1.81
-0.12050256706874295,0.15293932457060375,9.882180935710599,0.012808451137184965,-0.006156302214828489,0.0043293181729026995,1.82
0.043338369875126743,0.07124749568259175,9.65964567670688,-0.0029242607667154885,0.008864125012509954,-0.016031486434945452,1.83
-0.1415131198456421,-0.005263763129619247,9.846507723187495,0.0031830778108781327,0.0011728652981308036,-0.021290987337925275,1.84
0.008063107020099195,-0.04843164366286457,9.92510986509088,0.004813607308748864,-0.0007690476146650456,0.014909364121316961,1.85
-0.08828594572390264,0.09557270527938205,9.818089710142418,-0.008449151954029913,0.006816374800287571,0.0064691295628602,1.86
-0.052215901502312645,0.06778372571619848,9.922767905580498,0.006641455515279254,0.004806526000131619,0.007482762266501081,1.87
0.07991317006717642,-0.0756204702000712,9.805220086113025,-0.011433310306590961,-0.011235095850665223,-0.01292219799265427,1.8800000000000001
0.12523175848269064,0.24726889632577786,9.991437280006323,0.007168326770233577,-0.0022657264252526664,-0.008558189288646979,1.8900000000000001
0.061049729529689956,0.01881454305542661,9.889028141899011,-0.0024954506638093055,-0.013059453706577026,-0.006923712486581649,1.9000000000000001
0.02302290038561022,0.020330678098792472,9.591332780154335,-0.006021233385933856,-0.02660102755218658,0.0010333694742915818,1.9100000000000001
0.058787314794818524,0.011411658642804643,9.763342199038789,-0.021347480135424184,0.010751231616711656,0.004694709513742961,1.92
-0.08134361661847327,-0.18394270096467688,9.81910364961504,-0.01433315726958043,0.004212854580329743,0.005772851817852822,1.93
-0.17852005461076118,-0.07160756548198621,9.682385006934464,0.014463956435577869,-0.010449113780097408,0.021045076236592266,1.94
-0.09985630497936471,0.2561551688065848,9.677402109017596,0.0037892365536292627,0.001654129711022096,0.0025836450970190983,1.95
0.05189696103176661,0.21251375400596273,9.834149371759413,0.004903479803057185,0.0026760285823821954,0.0009469159915392657,1.96
-0.14080199494708356,0.21294070962727074,9.899986718854693,0.004683481086223861,-0.019539909755189603,-0.017087483710983384,1.97
0.0945609720140164,0.0509263391248654,9.719010664449712,-0.01234162979891577,0.014365602472820732,-0.004041001957038609,1.98
-0.16349351293406678,-0.01913401047837179,9.866358520185047,0.007934665677567392,0.017358761539416286,-0.010252088551332377,1.99
-0.00614143409707118,0.053535040327956356,9.986196611916334,0.0060949284558822,3.414657429500077e-05,0.006297626713780129,2.0
-0.1112273450482846,0.13758179940317408,9.894952588382028,-0.0154323115931798,-0.0025257300108104492,0.013755906585510933,2.0100000000000002
0.1037302749028914,-0.21848046073532645,9.784247792162848,0.0064336181280469674,0.02072820110738768,0.008943438268842918,2.02
0.06855573676500892,-0.018757178314329957,9.830302931002608,0.019811441069678408,-0.005341130573774911,-0.011520341612133545,2.0300000000000002
-0.1076183649301462,0.02498188937257598,9.67634768836246,0.007541060265430514,-0.002580092851323093,0.007124959940138745,2.04
-0.05089450926117342,0.026797800171700616,9.792854083067105,-0.010670080227990316,0.008666008949102766,-0.010931622976366025,2.05
0.028722037996725833,0.040264085517184495,9.782306441186073,0.0056842575980507945,-0.0035933819757467886,-0.008615086366300751,2.06
-0.00027299712552867277,0.08924353940001728,9.7205011874503,0.007594656456009739,0.011139299740214137,-0.0004192917201699987,2.07
-0.0111416724806621,0.21264753015336588,9.922884433420355,-0.005462631245047807,-0.00788791826847912,-0.0041168512587531035,2.08
-0.046815162116765924,-0.019711112945038082,9.692124559598453,-0.011637816248991253,0.007333890574505291,0.014120641817853533,2.09
0.08591185058393107,0.018107971939433292,9.734027514478957,-0.0037460598368421224,-0.017796029825335746,-0.0002979382871955174,2.1
0.0477247397004934,0.15978623358653704,9.624281748588512,0.00250793046071367,-0.009525990678685804,0.00961842799079243,2.11
0.15404857316034637,-0.017432641947409455,9.768500033130955,-0.016038002142530882,0.005006151285454021,-0.008930248697242755,2.12
0.0756472789124425,-0.035958353703387076,9.861843198732078,-0.003921384716317327,-0.001475772716309918,0.007136547098989758,2.13
-0.1363747066963563,-0.036891938079632786,9.608786292849988,0.0032815567809696294,-0.002626862527609425,0.0007786030485638015,2.14
0.05531230615651964,0.0468696530705408,9.862532535540268,0.00024989162246658877,-0.010017643789681327,0.004162087735776101,2.15
-0.036219166275475084,0.0630933585715556,9.730782546007566,-0.015438765552305543,0.0015855090488395979,-0.006282454514761368,2.16
-0.017403730529239155,-0.0518101315547268,9.942836148910093,0.004554705151611395,0.005600969311407531,0.0026900121535926836,2.17
-0.10173015466902016,-0.030301894201485876,9.741325191680454,0.0007590163717551422,-0.0032703365748160034,0.009230833862631602,2.18
-0.1484350085217908,-0.04666994911417021,9.871194350366963,0.005026197747464288,-0.018058392664894247,-0.004434399402188493,2.19
0.0068581263264136764,-0.15686324558444817,9.711856961141446,0.013976864849358154,0.0006046469117149436,-0.026114547073922273,2.2
0.00021659499440475254,-0.040307290770205645,9.837497037395769,-0.011447826634553052,-0.00014148308619716385,-0.004693039524611728,2.21
-0.01820603890292631,0.12714838965937242,9.846194295582276,-0.005539071830709004,-0.003465660288976621,-0.0003779133557803419,2.22
-0.12116643714730252,-0.0014140288508981877,9.852989713550034,-0.023181932423719024,-0.00382364267228019,0.007898025574998713,2.23
-0.09834799001719702,0.06775486948253712,9.879485413426591,-0.00744574980124366,0.005887311783153139,-0.0020759339734880604,2.24
0.05659797124080096,-0.045798345221454255,9.89901100399818,-0.0036909573098314915,0.002322528806094335,-0.009550453025545736,2.25
-0.10003121423997108,0.13241129180503391,9.70501198971204,-0.0015165645404004971,-0.0012491461992544545,0.008940885814104231,2.2600000000000002
-0.08943271626117222,-0.09485275973907827,9.791045537590911,-0.007647644558152702,-0.02943041728563124,-0.017891598976689897,2.27
-0.03157441939866864,0.08600570915805263,10.001105435683938,-0.0107363342809818,-0.01672821788847593,-0.011372659461949446,2.2800000000000002
-0.25259775600980455,-0.1881625502145724,9.842654490128902,0.00991504332606886,-0.005523362606448089,0.0029120924119571657,2.29
-0.06513372491348113,-0.052000346537135846,9.972043265133228,-0.0037090729130690855,-0.013346672249110725,0.006158878963115109,2.3000000000000003
0.044595179692602516,-0.1050971431072648,9.71682975862502,0.0002030043528215612,0.0065001386964890885,0.006778041731472883,2.31
0.1497728395733837,-0.08920471578522837,9.852111551037625,0.005613971055364001,0.007226359393615017,-0.009715376069075507,2.32
0.12003390599326769,-0.023302087602046023,9.88415473280918,-0.005755665494164324,0.0002982793503433181,-0.0015359004014761865,2.33
-0.11433598336357749,0.027653601046650857,9.780694426613707,-0.0027476615998559295,0.006960862921089955,0.007813466656785213,2.34
0.13025858131186002,0.03352340222825499,9.718477702327228,0.004474236205594673,-0.0021584169919704873,0.014193288889240454,2.35
0.04105757623715914,-0.04376125109006447,9.910354128003833,-0.017928190653211454,-0.013731861625526271,0.003408668854787954,2.36
-0.13454317710567093,-0.10671068295975986,9.765283915293686,-0.022385492491560615,-0.02237976622668515,0.0006216915367352957,2.37
-0.2485792502717372,0.10908411917220154,9.92318548846543,0.0017263402279498585,-0.01542187320709143,0.014327323643072083,2.38
-0.14297856800696937,-0.030333281805094026,9.885950714108825,-0.002033178791976973,0.0061707986687918595,-0.001380854429821777,2.39
0.09541939047533567,-0.039217259966310855,9.830257420965944,0.006111121727177691,-0.007117798075504515,-0.0058535426740605676,2.4
0.05973412919606617,-0.02537893335784472,9.810205456261157,-0.0026980873946517536,-0.0039898887050889365,-0.006130432291688858,2.41
0.06278517329726228,0.04482143468716752,9.903719195585238,0.014253677635130167,-0.008011707056956294,0.004036473736867842,2.42
0.04716036284707444,-0.009908703719682513,9.715990000097577,-0.0016971625051316439,0.011106305368363227,-0.008354066424403265,2.43
-0.1307620097053019,0.2201095596246423,9.705948220411683,0.00175289337715012,0.028080195964531623,0.005581135035864867,2.44
-0.06196909640475295,-0.11148123907869548,9.83081593546004,0.008193342313114561,0.0025519813944226578,-0.014015916319388984,2.45
0.05996753330535786,0.030792116136944433,9.91532602515321,-0.0036084032879645056,-0.0022511259049125343,-0.00918682988969071,2.46
0.09823129302631878,-0.12927904791328199,9.863853423556227,0.0034988769011983097,-0.020917922485900672,-0.005249435266391278,2.47
-0.019497070797881703,0.02854604006107028,9.843998538089208,-0.0015323975831903398,0.011901579697681013,-0.018473035006444455,2.48
-0.036160120767781995,0.14697551862170005,9.680226215075912,0.00635297955278289,-0.01520174433882699,-0.006166733008681413,2.49
0.07985207608920097,0.15694206641931785,9.74455668168312,-0.0066997739522531565,0.004405993317376329,-0.006572856124298784,2.5
0.10848688811571,0.11541851235467426,9.764666518912314,-0.01371221582836978,-0.004189061311784968,0.0028054416767166425,2.5100000000000002
0.05529233972357095,-0.041350785264720004,9.937102116689712,-0.014324036017676307,-7.641335639922795e-05,-0.0012926616040196803,2.52
-0.1435006084196636,-0.07006765913294642,9.959292799808603,0.002383045920213815,-0.0064644781130339226,0.009349756302247379,2.5300000000000002
-0.10219446170629094,-0.05186838905984164,9.908848844762627,-0.013456315610017288,0.005252817681741793,0.0013673901596004579,2.54
-0.08804985266023156,0.08776626225329537,9.675161852291733,0.007514115987544125,0.0013358723260209254,-0.0019323105092232155,2.5500000000000003
0.002211209890638285,-0.03132239344437307,9.899378810091342,-0.009400389296186236,0.003370105656055593,0.0033037241847631437,2.56
-0.0847408956732067,0.06168344394649869,9.46250980015016,0.018205309836532763,0.01217683644868164,0.005233221760096633,2.57
0.032726716269765484,0.12265938394337235,9.621311516849241,0.012405726277227238,0.009927869399908478,0.010727085072231772,2.58
-0.06057694014373093,0.03371261845303964,9.766648267356835,-0.007999627358321399,0.004888169156423472,0.029386064825736594,2.59
0.011173523129186244,-0.09068986229748759,9.757546626963858,-0.010593879491326303,0.007325937778520463,-0.008168950041279183,2.6
0.034607490289551485,-0.13950266850922777,9.867491538941941,0.002391947801398678,0.01818995602158553,0.015230066428689982,2.61
0.12491135143163926,0.056318534950718646,9.757164132353884,0.007448882875758277,-0.013659499539868116,-0.005003058475807512,2.62
0.02070609651299032,0.060644891802740776,9.807541750731163,-0.0043073353205242285,-0.005719927746814924,0.003336062450254278,2.63
-0.008787007068598494,0.0427845854667603,9.95233979346181,0.005580386517516951,-0.0008247231907279328,-0.0042233402864759635,2.64
-0.0028764992377260734,0.1945450602481927,9.496691066019205,0.012122525336113285,0.00024222861067319415,0.00493751491298471,2.65
0.02380919957909175,-0.09903172657416867,9.79702431473666,0.024375121407226082,-0.0003661391502856621,0.009327958646406656,2.66
0.003201456758308353,-0.1126581102612512,9.765645946075171,-0.005415494567892995,0.010679313669407251,-0.005365980308814533,2.67
-0.08685582702702807,-0.03641576062777592,9.73386604999343,-0.01100359699454224,-0.02443599659840228,-0.022978273259909608,2.68
-0.018886446199435542,-0.027738538912788074,9.663008121879006,0.016152054039337144,-0.014802012212024856,-0.016188298438683822,2.69
0.021795533338236594,0.09671027366586174,9.775897325410876,-0.009632459777332443,-0.0029651067504544845,-0.003365036731527752,2.7
-0.17787447266904238,-0.011258256609923765,9.666414804265035,0.004608947703383646,-0.003655485190893457,0.009453283759419076,2.71
0.05241180679273574,-0.0014018543838071197,9.833096296896073,0.006751888630011983,-0.020731339233342944,-0.017167874721077035,2.72
-0.007670965048303825,0.030246835678837448,9.845001109366189,0.009033378236227244,0.002737379013725336,-0.002902953338000934,2.73
-0.2449060099240187,-0.008250102526987374,9.883630534111948,-0.008078997310826801,0.004858943631843455,0.0014787081475942279,2.74
-0.11661696131921964,0.14727588705428976,9.804695920559698,0.005896950632711644,0.014164434867423515,-0.010394088130340803,2.75
-0.014933898318683345,-0.0636557426087734,9.86992211747832,-0.006473093202596564,-0.0002714871474326753,0.004893414989843903,2.7600000000000002
-0.016382421567526378,-0.034433595445442104,9.737548279203502,0.02366700332206459,-9.76870647677112e-05,0.00506770449248619,2.77
-0.020954704709715815,0.028466068905566733,10.062310734905383,-0.009238056554513601,0.0032076609694855485,0.02055313867961864,2.7800000000000002
-0.02621023536439336,-0.08117344126257323,9.775692678913979,0.00019438940712654762,0.012777779460893271,0.006765116483182096,2.79
0.13854072329756262,0.08158510073732836,9.915916556710844,-0.006485288983074504,-0.0009280850320018176,0.0009394111969809907,2.8000000000000003
0.17529790755307817,0.018561340864171546,9.687269791615364,0.0024972780563518363,0.008525491881116827,-0.008389244812293977,2.81
0.04268817500232783,-0.09850343835901006,9.781540794942716,0.016633817847116258,0.008899653864328652,0.002033211589635279,2.82
0.06670052356781701,0.09097019318016164,9.884950196803148,-6.667473671767996e-06,-0.0027120745979529767,-0.003907755624678411,2.83
0.15349143458396405,-0.05597831989153114,9.749144060608304,0.013891894082005847,0.02240602598771687,0.012089295518702435,2.84
0.12497359336089267,-0.22513677651612649,9.998484185408014,-0.008978234814262201,-0.0005323522863187788,0.005313099259993463,2.85
0.07831144175031945,-0.0688568059624485,9.797167129304148,-0.005519865075022269,-0.002602502526438566,-0.0010586583935188487,2.86
0.03954635523886316,-0.0872473777540259,9.787059726010147,0.000494427992900222,0.0026874688919626528,-0.005859963663167956,2.87
0.056374489316592113,0.0958136248958062,9.836810493909255,0.0104837560447883,-0.0006964134024456946,0.008603979740731219,2.88
0.11949121996324913,0.06816489626277648,9.775079387608656,0.008842127144478174,-0.00716476241386882,0.00022985700998084173,2.89
-0.10777106197224313,0.0004264780926926744,9.898943998907608,0.012702860806923875,0.0074076543808249875,0.0049072579897420565,2.9
-0.07198300427663469,-0.19347122347181545,9.96867328893136,-0.005760795253398839,0.0055934561279203255,-0.011545893437100104,2.91
0.015166763168707902,0.13621118487988051,9.955577185903758,0.009485237245399479,-0.0035148134867347535,0.0016221326741929667,2.92
0.03662173886062655,-0.005566811794943241,9.72145809911554,0.011444927005974048,0.00287076954617982,0.012914138915493768,2.93
0.017078030152067356,0.11712172264396543,9.8113876837961,0.0039719585614291794,-0.01638614618853411,-0.0020060859734257704,2.94
0.06650951890147289,0.004455204112798005,9.90709220893906,-0.006564363145203612,-0.010097218853080323,-0.0018103149659674494,2.95
-0.15972342739325313,0.15038760926834177,9.808609841630483,0.01141563439456201,-0.008400434065881038,0.007846918297311066,2.96
-0.001074018020088459,0.1684766320665356,9.613493764961136,-0.010916607269675105,-0.001148246727636325,0.0003678040003551884,2.97
0.14950281637548501,-0.06069923766635206,9.7992405046453,0.004180390667603648,0.001187135036789946,0.0160052527318062,2.98
0.004507132805370866,-0.04077229895561379,9.907594323376474,-0.0034276705388315808,-0.011139856797492334,0.002402685454679257,2.99
-0.05088552348159212,0.15786517275238224,9.726126785669154,0.004011354727182772,-0.0035454271319097946,-0.0029981550983964552,3.0
0.12759838126919126,0.11507444287485216,9.819297455026392,0.004545989072174117,0.002773247492866426,-0.007990831922761461,3.0100000000000002
-0.08295070467416904,-0.10402825021436352,9.888556961183612,-0.015748059606816217,0.014602024736106459,0.009472342735440002,3.02
0.1302992162109728,0.08870328648010214,9.72404221348363,-0.002492354639224489,0.00012124982638750994,0.00684425594457861,3.0300000000000002
-0.01968790994121074,-0.08513411231597137,9.974316883355968,-0.006261698248668652,-0.004695842184604645,-0.016192000766154357,3.04
-0.05305947160051098,-0.02466171013790508,9.921878463422921,0.011244600084212505,-0.0006738518235146015,0.00022490870190608738,3.0500000000000003
0.1389420665207107,-0.04692991674727609,9.67430329917497,-0.0010990033066761668,0.019071593848109508,0.008657351090219074,3.06
0.159207601431816,0.050825002879237316,9.755600735955348,0.010396823401624804,-0.0021909894457036033,-0.003511505567263082,3.0700000000000003
0.09740427135887836,-0.009494749167336097,9.865091038160589,0.009784852013988335,-0.026158955477521034,0.008995293935905037,3.08
0.10220446221725561,0.18299150275901918,9.727576066562804,0.0022884758955746824,-0.00015948864919224703,0.007587237584066977,3.09
0.046765801170334326,-0.09319836321775234,9.851299897205301,-0.008111658140074805,0.006203024360566039,-0.006756661461492072,3.1
-0.1759597477268587,-0.04576623311639565,10.010654605593183,-0.0074825267476511925,0.015445345048488835,-0.003646895564268794,3.11
-0.0660843136157836,-0.008670512554620287,9.665090975803926,0.008060785045368194,0.014795529607230459,0.00938998117882041,3.12
0.07293385364818111,0.011143068940717205,9.867697599554065,-0.013103250933384339,0.006107459002201727,-0.0027284968928900084,3.13
-0.09970326145090984,-0.06585398637024877,9.927992142071524,0.000713021599369382,0.0030762723034652144,0.020258888207144558,3.14
-0.12608504626350794,0.07686079346021057,10.045332632033919,0.004175359901542134,0.014597755772779773,0.01745107716758317,3.15
-0.0312105460910298,-0.04665228654738633,9.982169722019435,0.006522915120586071,-0.004177121951823257,-0.0015086632564500907,3.16
-0.1473651274566972,-0.11375725141151126,9.83469149565765,-0.00105696750759193,0.0003093304466431605,-0.015706631553089254,3.17
-0.1315310170703917,-0.13490241898239042,9.830872312560011,-0.012089486550447778,-0.0027797335673536787,-0.008549251844977521,3.18
0.047737033285929015,-0.040489462234050616,9.849124222738796,0.011679328543370851,-0.013545140307964824,-0.0017684834100160115,3.19
0.02666911083569797,-0.07669203232048838,9.841702797912282,-0.00526197800954216,-0.0029088205572197594,0.0052012279306613745,3.2
0.03967153724808214,-0.12600794163375736,9.854497669083973,-0.009072401306969093,0.011117094028303534,-0.00634174434192434,3.21
-0.08505465637105938,-0.014541554867641452,9.817529847112786,0.01824595689975597,0.0028973187566986797,0.0038783380426416826,3.22
0.059508576348051505,0.002307942692606618,9.698537326398217,-0.006425499286241171,0.005101050248942459,0.015984571300753873,3.23
0.010880176756508575,0.024947024607432745,9.677934782175228,-0.012227631887712148,-0.008791948754539527,0.009286261390539669,3.24
0.14910119541197023,-0.11690724155139652,9.923443456701648,0.004501654290175201,0.005952244116470494,-0.005717178781090976,3.25
-0.12208251599073801,0.23477021699682865,9.842803233406098,-0.018623422894921922,-0.01069018635913106,-0.0024181558588115153,3.2600000000000002
-0.037871525141229906,0.1934331912799705,9.897060694605688,-0.009529336717091332,0.013018994412920877,0.005186313016833782,3.27
-0.10605675368364179,0.06267352532193629,9.926639793082462,0.01828414122637517,-0.017118258350890255,-0.01891197778482252,3.2800000000000002
-0.017694837126900356,0.029873544084545955,9.896825183082257,-0.021350028121788253,0.01086606433663146,0.0043224386701114035,3.29
-0.037374751593655574,0.04023713207908525,9.920225772222894,-0.007269406534686277,0.011000201090105912,0.009661063559786591,3.3000000000000003
-0.07851932990238819,-0.11953483193649538,9.85669510543642,0.005107580245375317,0.004488298150740472,0.006005722213054231,3.31
-0.07009461143288602,-0.1788572049625638,9.72568754555201,0.016643420937922572,-0.0071760588678166405,-0.003489825936972563,3.3200000000000003
-0.08678038003653354,-0.17104272059299797,9.841426598201197,-0.00040610132358451874,0.007465776027306343,0.013339818288618884,3.33
-0.06952632664741201,-0.029734823067711885,9.792123723643885,-0.006802280021454832,0.0072780682067456436,0.0005423365622172748,3.34
-0.017719222755213662,-0.16685167498213596,9.717258381995862,-0.01648880312167854,-0.01455909332602019,-0.012907206984701493,3.35
-0.14954923072898701,-0.024117057931786343,9.78595084554437,0.004374809978594075,0.007229944634239136,0.00305450066413183,3.36
0.009816467505895128,-0.15129451371388147,9.813455271748117,0.00762698047716891,-0.008328369494980972,-0.005736146295800014,3.37
-0.07701126453672258,0.02462055526481176,9.707682551796658,-0.003261061251088962,-0.00625453604905315,-0.006272115962295927,3.38
-0.06641616104758168,-0.26000810212118874,9.847169060999583,-0.013016269154505638,-0.013523428785468106,0.011449658749179083,3.39
-0.0014673463879805594,0.15487354941683956,9.729079830944983,8.620422397461894e-05,-0.003631204102368001,-0.005958632876035459,3.4
-0.0005310849056691859,-0.10053506454189672,9.934704862608472,-0.007965073843255876,-0.018165913942523232,0.01786869172227192,3.41
0.0569804247223693,-0.2193945486587044,9.938791539030698,-0.0038204313783018543,0.00783710510418934,-0.0044302240279895854,3.42
-0.021221946309745703,0.054484523861603976,9.695710529154494,-0.004126046896835351,-0.005064289107722601,0.0034206227781910944,3.43
-0.09618825647478702,0.0978766331513773,9.73097770094014,-0.00013348851150682818,-0.0037749555987813726,-0.007332361218151292,3.44
-0.14895809987891942,-0.08659347374435383,9.639560175327983,-0.0018702615749143026,0.0036283464217857575,0.005802652721375083,3.45
0.04291124027826543,0.06200138145344383,9.59123121887154,0.011194441996974485,0.005531552265987585,-0.004292267770665455,3.46
-0.12106451192538066,0.0013143483592557633,9.875122439412962,-0.023597878899374838,0.009564214211634833,-0.005423798413442985,3.47
0.002834781964250326,0.1170891462149557,9.793500075180612,-0.004458606084969809,0.01953922705511898,-0.014982088952949776,3.48
0.11084378598502956,-0.13809948451259743,9.945700029608155,0.013462467755469942,3.42155451819636e-05,0.013396545392954914,3.49
-0.05064093721244237,-0.10686761687737097,9.875332209862288,0.010922163063580403,-0.00210419297928942,0.020018783817039056,3.5
-0.026848985775238605,-0.0377728031153216,9.70278113545684,0.0005639972199311361,0.002837842433278669,0.003616802970852912,3.5100000000000002
0.13034016421538006,-0.12870755641379597,9.686213541000615,0.02058443240165221,-0.0042643516911917605,-0.005603834838111489,3.52
0.13024010527033567,-0.07117744367981475,9.778665614530214,-0.0018893528730008588,0.009014072701323594,0.006936191256470596,3.5300000000000002
0.08319866801218623,-0.029959981390227704,9.790569515328015,-0.009175581307331666,-0.013187009098824608,-0.0036113703989238514,3.54
-0.011930741575585534,-0.09399146998801228,9.70124991935276,-0.0035600010929905464,0.0022821958889979845,-0.000928205795477414,3.5500000000000003
0.030857266874655134,-0.02234042754823509,9.765203419577759,0.0042515051717642366,0.00037258840077338906,-0.0002940549401799504,3.56
0.01892751303766576,-0.1542155318292681,9.896166971008753,-0.015244489836385844,-0.01575982409674159,0.0032615570941472976,3.5700000000000003
-0.11022079577799145,-0.07343817144111876,9.9011121567633,0.0037402516610033354,0.010910848287220038,0.012345605843141903,3.58
-0.16657993815751804,-0.020942505352824905,9.783379214206118,0.011600770211981639,0.0027989009684172388,-0.0016126490940131725,3.59
-0.030258887583950296,0.040503251350443865,9.842281091036705,0.004308315883593628,-0.01205051494547015,-0.013055809438759947,3.6
-0.05330377086660426,-0.10937832684451881,9.957249241204368,-0.0005838171045534582,0.024956268478159203,-0.009992514014070692,3.61
-0.055903975648640386,-0.0436241532859834,9.904343714787196,0.004738197106809801,0.01569734777778555,-0.009758900468618839,3.62
-0.12432673000272504,-0.12160633617188532,9.688494598781261,-0.008575544872443499,0.005320944646115959,0.013165222110566864,3.63
0.03832692218840949,0.16237817604154078,9.783580897242588,0.006090552685628855,-0.002582398223731084,-0.012713952552751777,3.64
0.02302398579349157,0.1936335532890101,9.924761772920645,0.002282181192052999,-0.002218510111890285,-0.0005871341987065152,3.65
-0.06752881310652135,-0.19117960425560465,9.734331741927475,-0.007132632264939147,0.0008870456956389715,-0.009283929932528778,3.66
0.16489309663944932,-0.06533929973590093,9.766042439003233,-0.0013462550491128115,-0.002185870452174974,0.002069349562512247,3.67
-0.049542109072068435,-0.20988739704091286,9.819638817803247,0.001982021000986228,-0.0011676495376053125,-0.002387348076370977,3.68
0.11539420426722553,0.02669475036089297,9.626677580217235,-0.008480087553273933,-0.019786479752916652,0.006563439504916528,3.69
0.11788401255813152,0.02624769435038061,9.882012639590418,0.016565896826648063,0.008324102292897482,0.0003375914927970494,3.7
-0.12144757147923047,-0.10569875550568837,9.900688024214032,0.002064559652713432,-0.014371366346910983,-0.03825474864177012,3.71
-0.12677065319394845,0.24599514284059812,9.823409851117555,-0.005782928274932683,0.0009395195156009066,-0.0042507026607142406,3.72
0.05907174598966667,-0.001802736479910843,9.785311877863867,0.009384440150675777,-0.0014419213565538944,-0.007123126076751411,3.73
-0.11042148003847277,0.07800391508223836,9.753928176392538,-0.0007381685192411555,-0.006334798619816792,0.008434300886586884,3.74
-0.0012473754743992248,0.2626362024733428,9.80032338841778,0.018678066138700714,0.002947719835722982,0.015132192963009421,3.75
-0.08851671519036529,-0.025287575786155893,9.760696224995181,0.004415240710510507,0.0033461730481570283,0.001899151740654019,3.7600000000000002
0.043573290068302455,-0.14830825536703857,9.907564034354206,0.005227088233716945,-0.00033503562585851683,-0.014051125499096857,3.77
0.006858707728137448,-0.09800509192892955,9.98388387960219,0.007078102202434334,0.008128992574553347,0.012239678294363657,3.7800000000000002
0.14095068345768405,0.06045977800811975,9.746436180869518,4.77265692028805e-05,0.004776806815801264,0.011422915608435821,3.79
0.03692384829790844,-0.020669656810201466,9.865918813857428,0.016792706721606567,0.01525985385132665,0.020500648432887056,3.8000000000000003
-0.09060406957525244,-0.0989481016544877,9.849147236067145,-0.004335192917322643,-0.001034044562429528,0.006114489404082967,3.81
-0.04837200670523973,0.15112055065552701,9.758931690231988,-0.0037063946236441277,-0.0004761867117442998,0.008354659765826998,3.8200000000000003
0.027657680175853225,-0.03856506904920207,9.764515747881104,0.024832294021813285,0.008394065208871218,0.011131407110256807,3.83
-0.08214697530457873,-0.16335498883732721,9.612228907260251,-0.01048487839996977,0.011046829575710555,-0.009038404798727258,3.84
-0.08112007937801957,-0.03813639973732972,9.63390223397664,-0.0009195682905631178,0.012501764635985345,-0.011989331525269218,3.85
-0.019921811772777718,0.08603709782469386,9.639734297604354,-0.021230624853408972,0.009380290004280466,-0.013957873451321198,3.86
-0.07986131305769884,0.05503323271898633,9.883577651333713,-0.0032113067686764143,-0.003081934699397588,0.0012148660958030328,3.87
0.0835918710842653,-0.0836055383781183,9.721216855480211,-0.0067246393456687585,0.025015268121165193,-0.00437275769345209,3.88
-0.12106027896289984,-0.1431207238000962,9.81735675529565,-0.009219047909763118,-0.010211362659655538,0.01935049217058165,3.89
0.15531150074653496,-0.09166164298318628,9.773214917165827,0.007601026070925454,9.178853997720346e-05,0.010591974607049704,3.9
0.12051835337374994,0.08962970024618097,9.832111330635193,0.004589536664487639,0.0077581928342388955,-0.006077767049827791,3.91
0.021476169780907495,-0.04722687105496362,9.984693410837144,-0.0052717463081479255,0.0010258501735227533,-0.0002517609542560875,3.92
-0.10670227029105102,0.14001430610595575,9.92720087481135,-0.0024717421025540233,0.0021954282399060145,-0.007581422765841834,3.93
-0.10537401887211045,0.023641996925760203,9.945153910076982,-0.011123117617968512,0.003518468860790636,0.003335655149592191,3.94
0.032833790679912774,-0.02393982985375119,9.838460946960737,0.004964147444240395,-0.0034509150073914058,-0.004947656034238278,3.95
0.15683460153714338,-0.1631770203388777,9.84163585177868,0.013649375962063462,-0.01538502237859799,0.0054869321044344575,3.96
0.18626005068604592,0.09780908724626515,9.895113295988923,-0.00671154001098064,-0.014641036176103435,-0.008668903161106347,3.97
-0.0663241760445663,0.057025513548589625,9.876867773838212,0.007996175770286988,0.0020714583626220595,-0.0048715476790510935,3.98
0.15289694693355138,0.005256335557524494,9.584986923323505,0.0013515041931409571,0.005991723986129773,-0.010717239656388192,3.99
-0.07330123609253261,0.06873046445581946,9.834807795569867,-0.011874694171304899,-0.006464776785276051,-0.002658281234870722,4.0
0.0984923825355661,0.07714749732348274,9.78847632492097,-0.00597504476699178,-0.006458843948422212,0.010233102638259904,4.01
0.04007341740563306,-0.13298048626363676,9.880194246181826,0.01090038333729388,0.017413025012022534,0.014312096160109672,4.0200000000000005
0.10438724400526073,-0.0907140208892029,9.570611798665738,0.00460029916950588,0.006662679858287918,-0.010613641015919304,4.03
-0.07548279091718381,-0.04300684789946137,9.836397997924053,-0.005220975683847623,-0.004577277324341422,-0.007985596286418702,4.04
0.10136394535178975,0.011820986716585295,9.827745165806416,0.0018270162142936105,-0.010164863562515544,5.216641244963459e-05,4.05
-0.002316397095813969,0.10338645049961122,9.906025153823931,-0.0035943000491392837,0.004954867385718317,0.010353874940884624,4.0600000000000005
0.1250914465467956,0.0892854765580205,9.743289828120343,-0.006207371014510449,-0.011004824991202622,-0.005633804975845611,4.07
-0.02765059625641758,-0.05424537521000729,9.965710252983818,0.0028977400500514623,-0.0005494384947970077,0.01478132708514083,4.08
0.24762391565996303,0.02191639945693325,9.811291214007301,-0.008970763630626604,0.005888282181206628,-0.004773080307734181,4.09
-0.14909175277148928,0.14201522252888618,9.88527329928053,0.006328271734081215,-0.0047817994437959555,-0.009854983707202926,4.1
-0.12299395313565378,-0.030745090063085685,9.874750676622575,0.006845280011276386,0.0033640756023684323,0.006850090229635202,4.11
0.05648253003357956,0.059334229949049994,9.741146600660974,0.003987232627116339,-0.008305854500631035,-0.00768187743977437,4.12
-0.08718138166533816,-0.08034528959588803,9.868750831005922,-0.0018038843924773435,-0.015456515963070343,0.0058495439541589814,4.13
-0.0772584419416305,-0.10293597500498618,9.647030709352407,0.0014156609157770445,0.005814946246427179,-0.004995213092162308,4.14
-0.07056921641758787,0.035828344118235426,9.819340552565084,-0.0036438497294036167,0.010495267289162063,0.01289351922712076,4.15
-0.11244747868875112,0.07044271220918394,9.908343173220658,-0.011447567104834067,0.01174452107409443,0.012108764592669774,4.16
0.27006612774628036,-0.03345172439580191,9.790653544139937,0.009746643927680317,0.008898755954168789,-0.014033281747238049,4.17
0.04776888066543986,-0.07941094082130529,9.841587217429925,0.005757077219338535,-0.0004058436748284168,0.0001870349167131036,4.18
-0.02272714938457253,-0.09361531059792665,9.876663283894969,-0.005170733034742442,0.010151498654894495,0.005134352038236919,4.19
0.01599888293106595,-0.17377819794141736,9.811562299465336,-0.016023389250519788,-0.0077283895335377864,-6.30005932523044e-05,4.2
-0.11746182411600876,0.004332386343623192,9.80720088428339,0.014762752026058574,0.009747862831796898,-0.016292016741945917,4.21
0.10549282838002792,-0.0975802344677839,9.942445335387397,0.008901609856473465,0.006630330918981271,0.0028481742933674854,4.22
0.09657984219280152,-0.09984351318170807,9.822907654608791,-0.005099103352488345,0.011608723652071653,-0.003565899418381067,4.23
-0.14615002740754993,0.21140507684662302,9.780550762539294,-0.01782143294127959,-0.01805452521936211,-0.0035079849049008604,4.24
-0.029289107847521104,0.02257464274601491,9.824721633664238,0.01053672107021521,-0.0024999507752187238,-0.001989513640061992,4.25
0.09344445082526195,-0.008063102304933128,9.872822777816499,-0.0009264941764756129,0.00934561649490441,-0.006710410946125637,4.26
0.09832753397925899,0.14764283636153694,9.669211747860093,-0.003589592950848555,-0.008299900373425366,-0.006131367349243819,4.2700000000000005
-0.08413488227145732,-0.04490958676419077,9.763133127587231,-0.016559881344962828,-0.004968980570307602,0.0066137866057910276,4.28
-0.12810769031024835,-0.07211321299284472,9.83531409198017,-0.019524998789131588,-0.009789082217527697,-0.01470928233674474,4.29
0.11523517576437013,0.02196701667228171,10.025220573104258,-0.006490795778968556,-0.0029184725266256095,0.0007351287371908688,4.3
0.1933348885910403,0.031251815166196614,9.885137794723965,0.004386856971349202,-0.022106068667970626,0.0007807671811244375,4.3100000000000005
0.0042929476648549915,0.06493007429600689,9.849875343734377,-0.0024892275103763663,-0.014896174748181333,0.013309279531412584,4.32
-0.01815833209845838,-0.15035451762778673,9.645757179611431,-0.009643520490939743,-0.0013464875765790535,-0.013076345299273111,4.33
-0.01019922658426966,-0.042791663432071,9.711402318990558,0.009641644672010886,-0.0008061092756690341,0.020400399006843872,4.34
0.030730847045295658,-0.039875840126016825,9.661760361428694,-0.00014385131873388555,0.013866839138763312,-0.0013308924884430778,4.3500000000000005
0.03551323613321202,-0.021782452766800256,9.869613278245403,-5.264985273246715e-05,0.0069077306640496884,-0.0008776911439478417,4.36
0.06496956650484793,0.10470020484275921,9.920962989371485,-0.00844014033708002,-0.0010450101208836005,0.007809475808808847,4.37
-0.07430679990123122,-0.075144123935181,9.983520178346492,0.016170964720956135,-0.02014735131386921,0.004983573600332776,4.38
-0.1189131236066655,0.06525478669074358,9.860804221230765,-0.001379696729206982,0.007464846740313073,-0.00424872684094332,4.39
0.06672855464954042,-0.22271959065023342,9.80079830698132,-0.0009270722520707983,-0.01484708881484204,0.01724687904435359,4.4
0.15609435178977718,-0.010964536128259983,9.85299113867864,-0.012933050908344457,0.0029203104883487826,-0.0015150672516349966,4.41
-0.007645454727025595,0.11221342897551181,9.867230085906314,0.006459757259415914,0.012671174804428434,-0.006988483323110392,4.42
-0.11423165827157943,-0.10394928091777611,9.792166949911273,0.007903486192108386,-0.008690258483682286,0.00966468691364766,4.43
0.03747911068600807,-0.0457415704410561,9.710769164878823,0.006302236636191779,-0.0021565401101235828,-0.001719053583601549,4.44
-0.06314727583829727,0.06400489395998585,9.75379897623147,-0.006241909142545355,0.008315134408844689,-0.007167747165872901,4.45
-0.03449591568710976,-0.10257932234782237,9.812579708029233,-0.0077803737062699324,-0.008076472355833366,-0.0005728705080324313,4.46
0.14147275470704834,-0.07312692798754335,10.02876631592869,-0.002839571070619449,-0.004122738917824476,0.008566172858533158,4.47
0.14457491220301516,0.013689486258330889,9.71660628462365,-0.0007842293614521513,-0.017998178987700234,0.0012117543066783513,4.48
0.10951122466457984,0.04961275695926263,9.908251320682258,0.0007511975049809391,0.003142782401424412,-0.003726651135320297,4.49
-0.019554154939997365,-0.08523493829401382,9.902274361473498,-0.0015249380510217827,-0.008106671605822494,-0.015087377952232639,4.5
0.12015094491120003,0.06094462166586126,9.903743400905858,-0.006653704256241493,-0.018321243188326668,0.00545957376007855,4.51
0.08217198166020906,0.15010341584904865,9.609467104503626,-0.0010496381471182706,0.0014690039237390618,0.002485167264053727,4.5200000000000005
0.07832414839496137,-0.13378805343226016,9.959573394046734,-0.012615191155960302,-0.0025773333742947512,0.016741378025781715,4.53
-0.16766552170757154,-0.07981724049040863,9.898035252278044,0.007668828520238096,0.00308498842123788,-0.019693333892658864,4.54
0.04371722961940923,0.08265606291544296,9.7702917147591,0.004319986207567266,-0.000681344446038257,-0.0037013560106626893,4.55
-0.15736555574479674,-0.05015315045668909,9.80798047969014,-0.0020921351815523233,0.0002127495972365203,-0.002991000100169762,4.5600000000000005
0.16850324905453645,-0.04178526038497152,9.779055109197705,-0.016438767477240174,0.0033171609613041678,0.007789729233438848,4.57
-0.15920420938423285,0.1254966647334084,9.872128561905813,-0.005932651312276818,0.005249561894155747,0.003592788137674562,4.58
0.062330895188119795,0.15727716687014778,9.784913969083586,-0.0029667972793719155,0.003894640869548155,0.002611268610173877,4.59
-0.07334425813077608,0.10132664006345314,9.788553256146958,0.005108231501842342,0.0006807315346826085,0.003723551448685315,4.6000000000000005
0.031093733768992667,0.044798820792502546,9.863787130232296,-0.00035191222131160453,-0.012477407708895247,0.00619421720870936,4.61
-0.1400078686899663,0.02029086367246542,9.788488667544515,0.010452886587966136,-0.008836605781229948,0.010486373823693525,4.62
-0.08794819325038142,0.02544306775688068,9.729385371432256,-0.01131024368185654,-0.01650453465098871,-0.0006650720573955811,4.63
-0.030518235029878965,-0.029870316571140688,9.831153356234465,-0.00235447646790615,-0.0031827574866091224,0.0044189428098389254,4.64
-0.02178215094609953,0.06871423452614726,9.801010908339164,0.015097932187715745,0.017918390146884743,-0.016620349221481527,4.65
-0.030472186379112243,-0.14216418720766266,9.729534275423504,0.006103792363254411,0.007788772840784576,-0.0025366672986460014,4.66
-0.046878335880178645,-0.035659638876349674,9.864914849429178,-0.0015510679583385606,0.0010917813296598368,0.014571276422942342,4.67
0.026537576441516594,-0.08231260433838851,9.745524763633528,-1.848907061248454e-05,0.00900758101476667,0.011689439974935776,4.68
-0.029944298559809873,-0.027444018923505443,9.626192489935784,-0.0017892291401139845,0.0007343147015121288,-0.02108204572055383,4.69
0.17853329044390653,0.015053836370396681,9.854149062796711,-0.003761645956592164,0.008425922527258553,0.0016629629246424204,4.7
-0.04279207566330942,0.09692476720394205,9.851145625457908,0.002197858527316865,0.013413102485557854,-0.0030919509139736776,4.71
0.21066626552207093,-0.09645973955040507,9.651400406870973,-0.017855835070718053,-0.0004390697588277739,-0.004233040859916304,4.72
0.017896778542077288,-0.05272307491887168,9.865776325209685,0.0020553252048909265,-0.003903554103627718,-0.00042509906665833485,4.73
-0.03555444944996813,0.03184882547287495,9.711377959870726,-0.003133551010560936,0.0016801167980874637,0.001288818144399306,4.74
0.14262565774194944,0.13434513466194992,9.84829834342307,-0.011065851091464893,-0.005109250489626104,0.009081040269696758,4.75
0.037180495405195045,-0.03786569180098493,9.680724412791708,0.02558038870068178,0.006435140489420277,-0.013575641002355412,4.76
-0.0837166269380613,0.11500412830496694,9.813349321218002,-0.011822013327732592,0.015064433060788408,0.008097002636818592,4.7700000000000005
-0.02827145288123232,-0.012283615631271443,9.703178765439365,-0.001613420278666094,-0.00034090625171993497,0.018124730106771778,4.78
0.0579408882441242,-0.14988986270899407,9.957940212746978,0.0016644270094787936,-0.008998835834497915,0.002857350810212687,4.79
-0.0012486068261274717,-0.005250063123715131,9.613500360378817,0.00028137856091522013,0.024219378597013376,0.017865655875640263,4.8
0.05002204175306682,0.03307778539291478,9.847579988402181,0.017865088481598245,-0.003759849506413454,0.009705318284246424,4.8100000000000005
0.12366241727322427,-0.021208736004468983,9.499811288416803,-0.02796120884985097,0.005209885734338663,-0.006642282340249618,4.82
0.06729733786771626,-0.1827052334844338,9.784096437905031,-0.014465555450020214,0.01138402023115424,-0.0033210716782242707,4.83
-0.01980625462972837,-0.03216328980418568,9.765973393802582,0.0039950391040973025,-0.012516053232983791,-0.0032162013704801666,4.84
-0.06720432254753898,-0.32673686770049,9.916107841102333,-0.01151797169699143,-0.016169098409564132,0.0037375217681386392,4.8500000000000005
-0.006019893420581455,0.020282133571239803,9.681303537888,0.0014829372742303998,0.00770564525992412,-0.01596152430622045,4.86
-0.08463575131679202,-0.01809603756127566,9.72669790727458,-0.007391892332763482,-0.005032621770920411,-0.003391086817522523,4.87
0.04481283554718405,0.1430707621529662,9.80248493528833,-0.003513391542848336,-0.016947055564472506,-0.010410230547718126,4.88
0.12864332913638196,-0.15615814750925983,9.807128991011679,3.7213909115805116e-05,-0.007879516124095515,0.00841145380636584,4.89
-0.05525021933302007,-0.03103393380286129,9.743027857763394,-0.0009679374444072952,-0.008115138344526386,0.005503918329581104,4.9
-0.0287581596100782,-0.02513718758609275,9.811165381110765,0.010466514028657255,-0.016269428341320585,-0.0028585756267576344,4.91
0.12601257031623225,0.030116134429952753,9.882949387118302,0.008950349543489248,0.001252460730746462,-0.009733967483402781,4.92
0.015903503704763632,-0.06149362133000774,9.733133685436222,-0.00790569210275909,-0.001329428644483085,0.00704534942595007,4.93
-0.12102651012722143,0.020631666932490012,9.819408005681089,0.007905205175594138,0.003313069488067177,-0.001789297528874344,4.94
0.05806192089096743,-0.04097734721560992,10.051271024861972,0.002814098608505334,0.013664826157099713,0.0029252241078461926,4.95
-0.017769743227192724,-0.0010817981659388524,9.85178433390096,0.010544210867601319,0.012448008931091215,0.014003617314474701,4.96
-0.06972305803733708,0.021521960254706006,9.790687135052853,-0.005136773543157679,-0.0014988823234662306,-0.009254904693142439,4.97
0.019039272226745393,0.16225334923580767,9.645844487664261,-0.01480517097218208,-0.008152893745770062,-0.014678325635395187,4.98
0.11819855492565907,0.17284576738181853,9.814979421695032,0.0038633919101162878,-0.0013817260820830216,-0.009622237223930035,4.99
-0.10072583341090513,0.0820955848921468,9.841745169874901,-0.013270810769919112,-0.007074003884207492,-0.00440385828593296,5.0
0.13858652624667053,-0.17847108525594763,9.860239427411447,-0.00934343215467373,-0.0048805632183627394,0.0168345689362854,5.01
0.04177278421471573,-0.025469362297110516,9.725575910473719,0.0013435120374271693,0.010296608245860473,-0.010379106389418372,5.0200000000000005
0.044886804158835905,0.05335532858634036,9.829242442156549,-0.005479221321476344,0.004100820869082095,-0.012269335443191151,5.03
0.1286742695220998,0.030879814856186405,9.756812373625264,0.007236148317332546,-0.0031865007355494713,0.008038885787828458,5.04
-0.07241757231657421,0.045974453059196736,9.92828828398489,-0.0028783187175713404,0.005914752934115899,0.014690669072717447,5.05
-0.16749308563828752,0.10168307656410298,9.912521270316473,-0.017120455846967347,0.00750942544219416,-0.008576218115534991,5.0600000000000005
0.12637100314233432,0.01988038663640233,9.934842535557783,3.9036938882645603e-05,-0.006186212092172756,0.005394282855454168,5.07
-0.0012970482125549937,-0.06656422903834294,9.920723780594159,0.0031218967235626107,0.005038435688704206,-0.011752950092643455,5.08
0.06071530761758479,0.06716772529340083,9.976582919440895,-0.005177207880326582,-0.006831331429261284,-0.004171605402533569,5.09
0.0025887286967083093,0.06072958639729064,9.814840073041998,-0.011919148308738699,0.011388053041843716,-0.011943381656729177,5.1000000000000005
0.036554913362199466,0.07632231530891476,9.737666866571193,0.015205604337584644,0.0009788703507462883,-0.005044270084704839,5.11
-0.15994369818644535,-0.12285239554036947,9.887611973583065,0.002267304954771717,0.01603064695657134,-0.007245654905630406,5.12
-0.0195791856993995,0.1273213686769461,10.054630567395044,-0.0005727830454725334,0.025206036242520425,-0.02417704222235531,5.13
-0.039866316461766,0.09586022291010679,9.802808372279346,-0.011428977558378269,0.0034527046948779304,0.002986067685151718,5.14
-0.09750352208436269,-0.04268106465421515,9.61192688082071,0.008057089661373576,-0.007334652130982337,0.0022942229737719696,5.15
-0.0972789551011981,-0.1454584858552566,9.993935331714539,-0.0068382182245449565,-0.0017163255988158356,-0.011707602202238444,5.16
-0.08728765229029992,0.07113097178464778,9.718291956298968,-0.02004823566043985,0.015540288445615098,-0.009098444374100316,5.17
0.05931039938723383,-0.009991341867090976,9.809637625934492,-0.013484264797334307,-0.01912347587817719,0.010603965279629132,5.18
-0.07001521703894319,-0.051880980500342726,9.97485781617418,0.0026987991160080244,0.0009587401287945226,-0.0020119895842461376,5.19
0.10290730014983443,-0.08411095900412542,9.80413143454822,0.0069247961231356,-0.0005899496980836782,0.0231519912069666,5.2
-0.05450233270939475,0.021428699872414136,9.865454123881944,-0.0029524911475511508,-0.0009139464149658924,-0.022537629717630733,5.21
0.05552296255247735,0.13579376332674511,9.822080166920948,0.011566152267727848,-0.0010096071934799387,0.0011855815392749173,5.22
0.12132225589867994,-0.07762475017193217,9.847136198910357,-0.0068222382950898835,0.0015759303008724582,-0.0031206817651132364,5.23
0.07212963721855407,0.08227290645502291,9.95918316934395,0.004713883016001139,-0.013079043583640768,0.006523049983384217,5.24
0.2046007867502347,0.1674307307243409,9.921222763860804,-0.003775672650699043,0.01707226551441273,0.010479866404510707,5.25
0.0013323331809456226,-0.043647441963919065,9.894907473120542,0.010533243311965201,0.002436571855548096,0.005391868577236106,5.26
0.006668547798116551,0.08576487076952066,9.918331072170263,0.016250432790721164,-0.003018797311447984,0.009543862492459856,5.2700000000000005
-0.04062182394687213,-0.018464862102283524,9.688921640061931,-0.01790151132717649,0.010034098032617352,0.0027170930568047114,5.28
-0.05266505389992274,-0.08916502054729158,9.791121015875943,-0.01209149545925807,-0.0033198674163681524,-0.008741442993001884,5.29
-0.022045181957393578,-0.0014695900508620643,9.751974414309467,-0.013063041029542994,-0.0065761544424623635,0.009536613842196385,5.3
0.15673600376214283,-0.27466362434527314,9.728938478584455,-0.026077006227944094,0.007849151624444044,0.006014614480091266,5.3100000000000005
0.19357058092696944,0.10619850000471509,9.742846917592543,-0.006287297954591184,0.0037535399112705744,0.005745587379415452,5.32
-0.05178312507268734,-0.045427880745645625,10.090264473502812,-0.011513518680547664,-0.0113595901863429,0.006931936893782756,5.33
0.05964293204710024,0.052993676490562115,9.975309934149875,-0.012510793317054252,-0.0003459480663043029,0.0162843745536915,5.34
-0.019277763493280243,0.04194510340516154,9.773701031576833,-0.0036827715245206258,-0.014067301350875234,-0.006164753272472682,5.3500000000000005
-0.004641061758180356,0.024328642000881567,9.872769935822692,-0.008632413911786999,-0.01424927287932782,0.0059555586005638,5.36
0.001777804932321642,0.053856237272889955,9.980401332527865,0.020909518886453628,0.016629876444607547,-0.009523092541520542,5.37
-0.0016965165558750295,0.07511114929994273,9.896354710390547,-0.012425605323727254,0.013163087849582486,-0.005489113458279158,5.38
0.11186215842210648,-0.04982554811966133,9.83851497497567,0.006323524555054977,-0.00034092183037582534,0.0008387802722952282,5.39
-0.19731546710266645,-0.06911610532735228,9.846633176748306,-0.006278372744131665,-0.00571385475868122,0.005055031022675633,5.4
0.15300324934631113,0.18520287440965616,9.913264749521074,-0.002059586190089845,-0.0033076955712742044,-0.01428109153916883,5.41
-0.22667167417564166,0.03388180661960453,9.814020298211267,0.0025337673257256185,0.0005473104493976546,0.0024664832205349716,5.42
0.08401447381338277,0.05513585016498626,9.70131075632445,0.0024632783861123324,0.0018276995986716254,-0.003977325395136164,5.43
-0.1356188719130247,0.004440972431532481,9.995139318870853,0.02101243027621956,0.0002495023341404828,-0.009796291428357804,5.44
0.05181245734194195,-0.09837624574791712,9.80913070444278,0.012613945340598728,-0.004633958592362302,0.0011417750888578098,5.45
-0.010911850191785095,0.09848075964211372,9.876677139875083,-0.012935619984589586,-0.0010540949186873415,-0.00792089582763592,5.46
0.008924452225926255,-0.1036829602140623,9.840343592965514,0.0012651485163236355,-0.00709930115907855,-0.019228820841613935,5.47
0.17030720528229215,-0.03524171402164269,9.885709453927149,-0.002427854014663111,-0.006941754515699454,0.0010702083647251557,5.48
0.05148473890352119,0.06818373089442115,9.876710632371516,-0.002378823471786534,-0.0024753904007217826,0.0015099047296549797,5.49
-0.16656146859541895,-0.237715770093732,9.741255048826263,0.00251611753265519,-0.003857210768056537,-0.00897516715141426,5.5
0.05795922569039844,-0.04169638379114383,9.860653556726628,-0.000497168917448893,-0.0022409260129518187,-0.0020425349220311354,5.51
-0.05914092413336659,0.028927051304188812,9.860874943380301,0.009835719556197315,-0.0027088474281336656,0.00524826952405001,5.5200000000000005
-0.03185038774317714,0.05436588277259045,9.6623524206569,0.007499690760975421,-0.005016692866374248,-0.014432868717912953,5.53
0.04276057924468543,0.04268916961520558,9.871520946021526,-0.0016244324985809876,0.005915572725662672,-0.004985802740269391,5.54
-0.02239465950760089,0.25481414050054646,9.821492616200352,0.0015160256249623647,0.007163038300243914,0.014105418204593037,5.55
0.024678566788973833,-0.09928824047990017,9.786446221918734,0.01120300329899726,0.008956409589519149,0.010925711800123635,5.5600000000000005
0.05508112379285423,0.04036944025019379,9.801618473179143,0.004750741090194867,0.0015634006776038148,0.003593589496220002,5.57
-0.0033697906688010867,-0.12620327784923888,9.935998610419372,0.0018429621163177715,0.0021968224222067077,-0.0033289921518335616,5.58
0.06312737636550009,0.023991704634433425,9.771790923366456,0.008061270617349677,-0.005289120220263033,-0.0015971593815660282,5.59
0.0077520231734174855,0.0340531322548723,9.888181990952173,0.0032424919110512376,0.012130818573749149,-0.016218581991430253,5.6000000000000005
0.02260138952143455,-0.10535479223427423,9.864186571371581,0.008183521014327873,0.00010437818452185768,0.03225032178823441,5.61
-0.15078814410541896,0.0558327452225036,9.76603135622559,-0.007357944031377043,0.0044170777917997865,0.00025849135054712693,5.62
-0.06920863031895799,0.1665076724965982,9.812669717080277,0.007491392429129572,0.014393363843610323,-0.014333284010181777,5.63
0.017651597730420326,-0.04888940986084469,9.771976139762904,-0.01049549760765524,-0.007287270244005188,0.015375208559311793,5.64
-0.047486752849934595,0.0931546774913713,9.637193905420599,-0.002599865409025618,0.004834801614246409,-0.014482087321830353,5.65
0.08111812453852224,-0.05235888912881551,9.746202159762753,0.005582506809234796,-0.0020408825717600676,-0.01153285920890807,5.66
-0.044729756373278036,-0.07396127303063656,9.938750738148771,-0.006128352727326856,0.005330694760027079,-0.011468008534607064,5.67
0.003197048342336606,0.04793234074523284,9.959418631838394,-0.0036902001015120707,-0.017225276418115377,0.011534805699448177,5.68
-0.08387618420572879,-0.02671851759744743,9.749047914595874,0.011960191131392574,0.0025444047477168686,-0.02007978366790622,5.69
-0.20880453873541072,-0.19094806771230008,9.954339520352196,-0.00020699861932091607,-0.0010923214948441802,0.0009306395353618127,5.7
-0.1462502859811109,0.06350885583703728,9.713450959635146,-0.010238435464185704,0.007429418391495841,-0.0015624075207637245,5.71
0.08108170247981117,0.037111432298581985,9.89782212194498,0.011527333480265937,-0.016165214311784477,-0.011542232539889704,5.72
-0.08736688049726204,0.07194786927006859,9.747529869705414,0.0005543516951518386,-0.01803916750331356,-0.0019060262197055705,5.73
0.027933564138262968,-0.14073152177768458,9.803774917242528,-0.0024748710228185704,0.011069504262178387,-0.011511707323676098,5.74
-0.20307639413171025,-0.07198242591235675,9.587264636307554,-0.002412390386013322,0.002394103409776998,0.0034669476620355715,5.75
-0.04836597101320264,0.06560936393319533,9.91870249226123,0.0026904796238038458,0.0018263054955902026,-0.012120000910483784,5.76
0.0037985645398378697,-0.10905068432513088,9.863705468348073,0.02540388177410533,-0.000977898016794123,-0.010582955530707814,5.7700000000000005
-0.12067397094992478,0.07860038417269671,9.7936148590859,-0.02339277916105237,-0.0025348589715141127,0.0028417645062108203,5.78
0.05696137806424785,-0.09232466562165655,9.76326282952011,-0.0010952347929710372,-0.005228854238404617,-0.008582321302898557,5.79
0.02407528591124395,-0.03759882518199941,9.940754692393092,0.004791327371700237,-0.009942723812699818,0.0099474150129505,5.8
0.0018869784848914578,-0.0008457116060125183,9.812934285632492,-0.014670110300395446,0.005048653688824373,0.002853784266981014,5.8100000000000005
-0.0019958824794190466,-0.00539691600370426,9.736552104886881,0.000795927004058083,0.012198653280065138,-0.006664015565728458,5.82
0.11666336571095988,-0.09442505146431207,9.731029428543414,0.014376015061631258,0.005180581980472459,-0.001160466345117209,5.83
0.09032266060082793,-0.10872883095903932,9.7195804924728,0.002169732194184406,-0.005820949536006025,0.020817041368890916,5.84
-0.14898371200959168,0.07441396314055909,9.752295787291363,-0.0034222605532448257,0.00879506965288446,-9.787152422355718e-05,5.8500000000000005
0.07268561756297234,0.17962472214544767,9.77325439752921,-0.0050926157951041275,-0.006728274580980449,0.006797012566017175,5.86
-0.012388949448047894,0.059543558988931704,9.800775149590521,0.01495562879423262,-0.0013618378900768352,-0.020615897897952908,5.87
0.15259409464276658,0.10504836529518863,10.034973488176142,0.004391375455553082,-0.0076951198914126965,0.008691508311318461,5.88
0.10297526415804487,-0.06432976387084535,9.591944958412064,-0.009399331857734597,-0.008320982112497474,0.002356906471114139,5.89
-0.09119878305569838,0.10196475584141268,9.65687936105034,-0.001602895111494132,-0.007702098187325178,-0.003876084107794875,5.9
0.07883388655382892,-0.08782488952913131,9.92970061176758,-0.005689688933760888,-0.0038749476756753504,0.007083896295609645,5.91
-0.022976570321468385,0.08008347403314882,9.819251367589281,-0.00533433888165066,0.01582835870886677,0.0044940927070917114,5.92
-0.12828776550787627,-0.0897437257747703,9.800357111902796,0.008725183370388453,-0.008009008718268994,-0.004929816602542662,5.93
-0.03902512653329765,0.00010820016283141044,9.769283957702566,0.00534328332515626,0.0008690036410127029,0.01737366946088804,5.94
-0.04468771343438607,-0.08639416876399623,9.750334982744224,-0.0030972956405776204,0.011167313466195093,-0.01092212375983819,5.95
-0.0976312726768198,-0.00911554042720442,10.010568220019591,0.004695582226540731,-0.02448343080498913,0.006242000342332888,5.96
0.13370600166122917,-0.03547510965733341,9.621476531363834,-0.00602235284654893,0.0007856986348763473,-0.005713775440063485,5.97
-0.07672237815644452,0.07112166080565764,9.823121370641834,0.005467860507231372,-0.010002488003074945,-0.0061557296819545705,5.98
-0.07450672500851029,-0.098264403684794,9.770904326420405,-0.0032640977581643504,-0.006798770814720547,-0.009839655184989164,5.99
0.010880523538960598,0.094405117202454,9.873625829935895,0.009990757176249695,-0.0021731498199645707,-0.013095299972002747,6.0
0.038603694636067,-0.009960163026306137,9.679894558967021,-0.008261061678506059,-0.0007336343243695867,0.000510938205184105,6.01
0.09142824553785739,-0.08572276614884153,9.848523512723078,0.0023146273302762812,-0.005994915377122969,0.0017817938607082502,6.0200000000000005
0.025993288951275145,0.16368151422792587,9.867987025593521,-0.004547991581032745,-0.013747422620261256,0.0074160492999841565,6.03
-0.11333789062600529,0.05054204456277037,9.899164977983078,-0.0006083723729270603,-0.004238772983917905,0.0022892020540583526,6.04
0.15578435186469974,-0.018761209381250213,9.65162378811534,-0.005361988052139613,0.008529885669663494,0.01771952501701547,6.05
-0.038469326273975396,0.009129538656466577,9.666884666413102,-0.0060189273655780855,0.006047649628889087,0.00583259009640118,6.0600000000000005
-0.12413111076419062,0.045866170001791086,9.635859149919781,0.004400180100439353,-0.0007558602665664112,0.014067798788551068,6.07
0.040174559071482985,-0.1725772693088637,9.86890564276911,0.011102703202555646,-0.0009548964493544099,0.0010499412334977192,6.08
-0.10820361845557257,0.016328444268351235,9.595650477200333,-0.011293483495597037,-0.0014947397151716755,0.00389696775023151,6.09
-0.18369095555339504,0.31923818232117723,9.695897263239779,-0.0029177970137543763,0.0036772693545600284,-0.008151731570485588,6.1000000000000005
0.029110440511641494,-0.03402083288715734,9.774395509113758,-0.018117592025779738,-0.003332855498359637,-0.01452578828796375,6.11
0.02546267553955719,-0.09606083881910404,9.758519125954592,0.0020456197140373924,0.001985769180863592,0.011760546468836206,6.12
0.10228041225951784,0.12740083344464256,9.72722032724986,-0.0028884681361712916,0.011641902758614923,-0.007694112978785678,6.13
0.011705431985215259,0.08447062088584428,9.900295997439,0.013199648149664346,0.01005561490340048,-0.009506171353431183,6.140000000000001
-0.12433443480165796,0.08053220963063956,9.778335801907037,0.0025020967851887,-0.012680696957819901,-0.007353218863310288,6.15
-0.057028427937776516,0.07499890813850105,9.853855960494867,-0.005690195093499989,-0.00642757002384447,-0.00036173476258680095,6.16
-0.1295427692708106,-0.09263142985071378,9.790519279390546,-0.014120467407784259,-0.007843731845392722,-0.0017076618029012217,6.17
0.11202812473152308,0.04488338384132291,9.849384010240696,0.006660018485455224,0.010229962951340803,-0.0009783378965877072,6.18
0.058169074780915056,-0.04642177069883527,9.927912897268358,0.004227351855659243,0.010736678420082713,-0.013376651284773389,6.19
0.06893128175841245,-0.1360007401601475,9.758870718732748,0.0049078069780006586,0.008349455729218795,0.01225068108317339,6.2
-0.056551398156187795,0.1364782896510275,9.544987747229671,0.010905717550584495,-0.0003916815731744303,-0.0005424010372576957,6.21
0.10210578451230029,0.31433417996317725,9.865330099606869,0.007012900039985173,-0.012147087504544971,-0.007029655093528544,6.22
0.012510548699090785,-0.023936754108092193,9.744221750978657,0.0020687379951073374,-0.0002797672754027045,-0.003025442801685148,6.23
0.002067565457943586,-0.034997719189439606,9.708824164036043,0.0006756720555666758,0.007183065797211482,0.00506008627164919,6.24
-0.2687328598481598,-0.024208448972599095,9.699294234126759,0.0019473999372489237,-0.003376007722589487,0.009617152237737323,6.25
-0.07562886628656909,0.01018011818703749,9.811130662536646,0.009092769556064752,-0.011992963736864155,0.02236401451807172,6.26
0.13657442093294403,0.20704759200916512,9.838967115136949,0.003855035405755608,0.0005398939955075477,0.002664247496828871,6.2700000000000005
0.1079243625745759,-0.015418880763033688,9.982242836550613,0.003442121454130658,-0.011805016744493184,0.005027051165358215,6.28
0.10755540090438268,0.002670264557184203,9.649410626802302,0.006221312466638357,-0.0037167334779579365,-0.018659923191096106,6.29
0.0787687016432057,0.014112507950021488,9.734029633221981,-0.009292407331567202,-0.01927411644878813,0.007756209072421091,6.3
0.020248234929022287,0.03085613725496207,9.94296280445098,-0.017523578330212553,-0.018885126091512452,-0.00516967987129363,6.3100000000000005
0.0389225557230415,-0.024318453571787586,9.736267073022777,0.008551536932341374,-0.007340538474140687,-0.009404678813347212,6.32
-0.09728476278383519,-0.008112932220126528,9.76688653536078,0.0012868342204562242,0.00023347657818252693,0.004138765301056578,6.33
0.10762259058201096,-0.15281970945216178,9.87883164121521,-0.009281365348334384,0.0007893153376796835,0.018854019355929487,6.34
-0.056822653919675316,0.0363466938876207,9.91986832351041,0.023667809524819505,-0.014850429448480525,0.0007045990866704176,6.3500000000000005
-0.10601181896389894,0.07559083772434415,9.67727389502151,-0.0017823592641624583,-0.007496473461634197,-0.005180954794728933,6.36
0.014511654875670127,-0.07245454411715085,9.720993225735844,-0.009415444938895724,-0.005749799475846178,0.002251585954065921,6.37
-0.23762878586099948,-0.025359261701357223,9.754277965467828,-0.0008412189006787422,0.004190351400723248,0.003567023327127712,6.38
0.13678835064935166,-0.025401592579228905,9.736386152183982,0.009169670335587674,0.00026020087621064954,0.0006768427574836398,6.390000000000001
0.1062197047636636,0.055064630480425175,9.737516436220904,0.005911770807531016,0.001155910415877204,-0.005477032401801137,6.4
0.04133760985939464,-0.09424709967848242,9.737979570305491,-0.0016659933826138982,0.0034310325242190103,0.0054300139485736285,6.41
-0.04335934618359932,-0.05012677424188544,9.819888732224221,0.0046942212886608384,-0.006225569015052276,0.014313427761696177,6.42
0.18407776759070751,-0.10435539821692968,9.668158396881257,-0.00010060821419048568,0.006081663213745442,0.004561154137760089,6.43
-0.11289182380062224,-0.013509200746144463,9.825949300018143,0.015293248647546562,0.01228817269174654,-0.01815551586344954,6.44
0.06009899290596132,-0.06737715905771095,9.834096970733764,-0.011092815851561752,-0.011524951880798204,0.00457218757292804,6.45
0.1473869185037343,-0.04342934829931283,9.87529412258232,-0.0003073818937820239,-0.01618447712861746,0.012807290063418849,6.46
0.08040807682333449,-0.05755249069617873,9.776549015349383,0.0013656190508285024,-0.0033557090761014543,0.014223930981586775,6.47
0.01713223045913009,-0.07032500219346895,9.716931162327977,0.0018186417643657547,-0.00876355706917439,0.011414077833601882,6.48
0.13005951522313716,-0.16952783388490195,9.795043839804757,0.005319165080458014,0.010464589010163282,-0.009490670747875123,6.49
0.04419622130961391,-0.05138074468162251,9.787772787003455,0.0010790924947755667,0.015632078332414055,0.008540157484806875,6.5
-0.021647450605272216,0.0072182836848691465,9.854248573782462,0.006462951032385098,0.0010982684746756969,0.02277571875593337,6.51
-0.12456436054085392,0.010324753128333704,9.953979226029572,-0.016829117331976923,-0.02045072106634239,-0.022646177770886625,6.5200000000000005
0.05527262718081946,-0.3502398828808017,9.79991971672376,-0.00863320270156227,0.00793355344273994,-0.01030699550613228,6.53
0.23122974634682972,0.15898833694595993,9.787621056600562,-0.001562974894473511,0.00770140369407913,0.01068420462091189,6.54
0.038778557891627846,0.14673007544418734,9.887356584865875,0.003238835268255094,0.014487005718445769,-0.007070962726202724,6.55
0.20243487236924396,-0.08204522084566518,9.709723168393825,-0.0021026568080991107,0.004392411480493532,0.02020467601626106,6.5600000000000005
0.014566105542131048,-0.033324204036418066,9.92293291750472,-0.009668079941100659,0.0012714557158166814,-0.0028100250689004104,6.57
-0.05753788210228057,0.05294372063823626,9.956708756385199,0.0015068652447926675,0.007467105558628597,-0.014877653945062764,6.58
0.18659798535561173,-0.013613726970548754,9.741103060399452,0.013797796847936257,0.013721951753663988,0.009469054541819512,6.59
0.04596681555074381,0.06240200414186642,9.942909660246704,-0.004057512554153345,-0.0029875023540363956,-0.004313318586537548,6.6000000000000005
0.07754514832206592,-0.1687242828436939,9.74963515932951,-0.012891414803941785,-0.00817176220241431,0.0322533576893735,6.61
-0.0184669997475348,0.09641314236561314,9.758337018062996,0.0011656909056797188,-0.01067215238528224,-0.003990603426943259,6.62
0.08672103026231626,0.04029702415409457,10.020153186588209,0.0012376333027356583,-0.009061151146916089,0.006655299417803859,6.63
0.04273647999699505,0.04563814588147546,9.905442799928327,0.014927318848466686,0.007385602950544006,-0.02308533747699542,6.640000000000001
0.11108062647982682,0.12447665794354741,9.643051832931334,-0.006098530537969371,-0.010248535949311964,-0.015883168293051763,6.65
0.09296165726006633,-0.10506940443040058,9.977415608977557,-0.02356628117244287,-0.009251876506424603,-0.0053904129948598575,6.66
-0.01778272816358272,-0.11623870665554276,9.726759278557472,-0.009630041790218832,-0.012143135651422608,0.0013756171503738666,6.67
-0.10404754634966357,-0.0526199186680352,9.760675401831163,0.01130702147306922,0.022072037902010462,0.00846911063558201,6.68
0.015770541595372542,-0.04720640256287991,9.82426172316854,-0.006213469192276455,0.018130422619598238,0.0018572393196556822,6.69
0.03433980217841163,0.08158464337404289,9.730190155793867,-0.013336178849099942,-0.01816806156023902,-0.01054127194154233,6.7
-0.015855003170009267,0.09438808050415129,9.90569328060518,0.004822676233343088,-0.0010062194461456307,-0.0020607077078665255,6.71
0.021326548923202703,0.16273388482582338,9.78372039065363,-0.009642474679364563,0.0008114833146430191,-0.004619978677720866,6.72
-0.02071443897635678,0.0536990506538251,9.864093087530161,0.02256742377429805,0.000955456193376185,0.003559171392346334,6.73
0.1205230305938362,-0.0700864006577611,9.752762940720745,-0.004628252823538685,-0.014583497021670363,0.008217294410936772,6.74
0.05668148063123421,0.015828933776830326,9.819791513770678,-0.021964277814742618,-0.004893133900475172,-0.014470684910263536,6.75
-0.035338620633731166,-0.019070237247770055,9.757897283290479,0.0016689559516626553,-0.011486176230844799,-0.01709878694201869,6.76
0.005913170764474698,0.0711892060456706,9.800640857662493,0.013204452534286447,0.004040250159534979,-0.01757811960101967,6.7700000000000005
0.20940467963774903,0.14186643848945577,9.83249417013262,0.007526868399352821,0.0016412881373831757,-0.006632335542095107,6.78
0.10637532522258086,0.09339205274983871,9.952165862929274,-0.002905533803509402,-0.013203682674043546,-0.035920302785235524,6.79
0.15451576202395997,0.2466512588118296,9.960718111320276,-0.01652008540130662,-0.017259190119414493,-0.001354699825987228,6.8
-0.08359713740087499,-0.07860149982999551,9.79281490014737,0.007537303987464355,0.0098903609390174,0.003977076136115224,6.8100000000000005
0.02328710845279552,0.06299615217154844,9.775726397890583,-0.01561334189250233,-0.007496520115070979,0.00956714851200522,6.82
0.027034766398315514,-0.03245773518140747,9.76631486848537,-0.0011449590394750464,-0.002459566155525258,-0.00965290559381243,6.83
-0.06902975001064372,-0.0049389049163560475,9.593232858922425,0.005093905972378767,-0.012093237643848578,0.026110414390323237,6.84
0.18252938450254924,0.15258748790585872,9.844960822208845,-0.015879323354828986,0.014324881495341555,0.01515452448306271,6.8500000000000005
0.011536368360149781,0.023938279463766962,9.843987599247829,-0.006543275190714476,-0.004259489494425054,0.001302118984692842,6.86
0.009141927020076495,-0.07199719625921631,9.514978358604342,-0.03091843886359539,-0.007456909543703807,-0.0014058998513383123,6.87
-0.04788312175583428,-0.00015960795189174824,9.652626568974668,4.876100626525893e-05,0.004958230826342901,-0.00549545765286851,6.88
0.12486340838345589,0.07350482538101404,9.769497855445245,-0.0031678572824606205,0.013677305460057704,-0.027311688548241425,6.890000000000001
-0.09807354060124729,0.1042121709130986,9.924293137966457,0.004265569136915412,-0.009885455965301816,-0.0026674692385549614,6.9
-0.024946216286532055,-0.31144235139212173,9.773150187217244,-0.01133577479749528,0.0029626242643951985,-0.010845992649708121,6.91
0.06423627068572309,-0.0331151373539676,9.876508175301142,0.011656399661936578,-0.013946891740085565,-0.0004647796709912294,6.92
0.010474411926301056,-0.025061869579367235,9.62359070263083,0.0009122849403716184,-0.011285303866449738,0.007944470489187668,6.93
-0.287733285747725,-0.058363134740225114,9.725782424229664,-0.008822355860506259,0.015862705455989043,0.021559263978640834,6.94
-0.02188338962564371,-0.065730463306352,9.671898109570723,0.018444363174306685,-0.0021902336441803924,0.0017514850668551075,6.95
0.05655766343231669,0.10168853393164992,9.780280342048455,-0.0042626236818945635,-0.006276964514740043,-0.0033956117395179865,6.96
-0.010310946008988825,-0.01976193778397999,9.976047084322463,-0.0023706281174384076,0.018963229294024744,0.013822593029586737,6.97
0.10872102517620832,0.13011530166352894,9.903770202752359,-0.012678513492451518,0.005265494483061803,-0.009771412783236722,6.98
-0.10482317796238268,-0.18498833898976152,9.886113440794754,0.011592730882436803,0.010376060030987424,-0.008607216954463447,6.99
0.026085161782423066,-0.14889050920157726,9.99454490823046,-0.004187640797238885,-0.001097193305406061,0.001000631009881437,7.0
-0.050673213486619496,0.07384979218164678,9.53113477582684,-0.0029493203804800243,-0.019837970069036467,0.006886336346213443,7.01
0.0255783918775928,-0.028114327010734422,9.79581461850282,-0.005136196572948796,0.008379643494381481,0.0018115136177947156,7.0200000000000005
0.0584747963876605,-0.07950429813203393,9.754630281574375,0.00994139374911055,0.0018044521975302135,-0.005138874593598625,7.03
-0.011998253047275562,-0.02316806311810571,9.737846819546236,-0.0006618800288316431,-0.0008014442721842275,-0.021182469515165822,7.04
0.0009438266903360988,-0.04987211122878847,9.852759804765718,0.005578910540709589,0.007093160314679748,-0.00028733504551140535,7.05
0.05185379788769726,-0.005063944408636417,9.856296180092068,-0.001500297661097317,-0.021434335563892105,-0.004917861501293233,7.0600000000000005
0.05485017021233053,0.0002614162089591597,9.730288755217131,-0.010013310479699567,-0.00923310160178631,-0.005856763557902609,7.07
0.10555106441576774,-0.09771664463092544,9.578726437545843,0.013965624021377377,0.005693638478758537,-0.003364179804682071,7.08
-0.029022217578079358,-0.058940748888289575,9.76915168958094,0.011264778323299782,-0.006418956676563393,0.0048981801547929235,7.09
-0.10282950980346516,0.05531520211066476,9.917127203783132,-0.008007345296101672,0.019584933044689168,0.01727735332159432,7.1000000000000005
0.09337441269786811,0.016503184472688757,9.7430975596091,-0.005622455909370564,-0.004794795510949444,-0.023709559809964906,7.11
-0.11328596239412106,0.023078174567879625,9.878544282057264,0.006028640223458261,-0.006667552123173281,-0.004537256378915546,7.12
0.1056034695650283,-0.11519410226728172,9.926330668024635,-0.012754615566386287,-0.011275361444998824,-0.014526583966925154,7.13
0.17148021603600372,0.09824807462548268,9.742676955782164,0.007369519370734287,-0.01234389878481714,0.004697316076272683,7.140000000000001
-0.18563318786657546,0.06473995304960799,9.821709157778415,-0.012656134662501334,0.01041212590547354,-0.012976712214203032,7.15
0.17373739944812647,-0.020624410485203352,9.7193509561897,-0.011024084843471574,-0.001741249337636107,-0.005955844351433843,7.16
-0.1265908155676383,0.18283089475665273,9.814595492345614,-0.008291117675328672,-0.0032110082717405858,0.01858858441337626,7.17
0.089330518961356,-0.1389962421073199,9.751636898152478,-0.01988315290674939,0.0023438565784077046,0.009311759427425462,7.18
0.10121296578815181,-0.14373234166178164,9.870255773032937,-0.008960078051866141,0.004772233634973681,-0.005968041948793072,7.19
0.1759682019064998,-0.09681911227058192,10.05856680125351,0.0046678124052007535,0.010241671898871083,0.00904586466419129,7.2
0.05220876644745977,-0.028391381779810834,9.774386431088496,0.0043048058012392825,0.008924485864540907,0.0006454394692495892,7.21
-0.03615377842792942,0.013284951657107547,9.849865750637399,0.022395276707588445,-0.014795255276400422,0.007525215810079343,7.22
0.2963593456622586,0.06779968269662227,9.646378441632134,0.0029473774023913474,0.006425850737170051,0.022349318417054117,7.23
0.019038782160674797,-0.0036868677333883474,9.908274101362451,-0.010326451463081952,0.019651675035202546,0.00014773465382870692,7.24
-0.01298080473999202,0.07134105045254086,9.793233309716406,0.010634553374626106,-0.015562988538297589,0.00845359206169372,7.25
-0.08532235960526005,0.18302739209262928,9.795830497367477,-0.010541734316884764,0.0010234470084565235,0.0034709357991443775,7.26
0.2189052107733779,-0.044899631301740045,9.695822901866073,-0.0015569286991362738,-0.007716562698027152,-0.013335497120723905,7.2700000000000005
0.06655109686458081,-0.08145315924195685,9.672588215854013,-0.003528920400957753,0.00963412786327027,-0.0006693981536270988,7.28
-0.017529829178237363,0.018467234640547534,9.884056010786296,-0.010474689981595554,-0.003209303818973029,0.0009636679837331978,7.29
0.02000656059652222,0.05578951632153503,9.771768847961242,-0.015538753277409821,-0.013353885226882488,-0.002621561282137841,7.3
-0.10421433613518699,-0.05396851744984387,9.693299617299068,0.01512177343476274,-0.02522398931481185,0.0014409941232272436,7.3100000000000005
0.001700051679717618,0.01059470482303577,9.866640681570873,-0.008325273484494009,0.002330070702550255,-0.002825991321711891,7.32
0.06115838725530424,-0.12766531073394527,9.80445104159264,-0.0074284499606011535,-0.002129483104949982,-0.0029091161616816986,7.33
-0.030876828253719898,0.12398770450724346,9.837610787538646,0.0036336596850450953,-0.010301472526750913,0.017228862512672635,7.34
0.014786776605297203,0.09541396771214189,9.826322362992286,-0.010315715886324238,-0.016958923422953038,0.00861867615037706,7.3500000000000005
0.015581736810463171,0.1712136204630712,9.835453702329866,0.00027505643592171466,-0.012779499929331802,0.008330571488019935,7.36
0.08535729872467297,-0.015768541407800925,9.800550811230583,0.0031432629806667912,-0.020686125291480475,0.009675550551824993,7.37
-0.08585739065269764,-0.1338879915871527,9.830563563071745,0.011324043851833134,0.000990418510466338,-0.004738294136014912,7.38
-0.19580923882014756,0.35401606748657094,9.816300786698667,-0.0004914035913910847,-0.0062531014237728715,0.00959979086724826,7.390000000000001
0.031076603810266876,-0.07580183263494278,9.798519865612786,0.010708423685162536,0.0036801538887356556,0.004087392518074228,7.4
-0.0818411502385164,0.06906216792728516,9.932079570654349,0.00265395418121242,0.00988120067706519,-0.015879560045727395,7.41
-0.06692174728012847,0.13330137156276242,9.921860029289565,0.001706922618552302,-0.005014729021993686,0.020527691016332037,7.42
-0.1544356508637605,0.03733835750869232,9.864047767179324,-0.0046721603363714,-0.011299326257344047,-0.01289433671000943,7.43
0.11142839070403039,-0.13134312758843728,9.640914067014702,-0.008299869762256062,-0.0030368789154924876,-0.006834288378580909,7.44
-0.02941903518497484,0.028602074908308253,9.954790151475224,-0.0066621311546161835,0.014205199219044085,0.005547391013213101,7.45
-0.07390711006125336,-0.07996360056750583,9.847847111045423,0.009894660783469355,-0.016190420771373778,0.006574313974627239,7.46
0.28153794375578317,-0.1263292706014953,9.724305836916484,0.016286722110960467,0.01333495436939049,-0.01142250565957431,7.47
-0.09471079476697263,0.041305226794299925,9.700789514375895,-0.009889632793229262,0.005699068112447973,-0.009210977855294527,7.48
-0.13254836661935648,-0.13702288354521816,9.790871622281651,-0.00655740362128106,-0.0003482995542327347,0.01738855852540676,7.49
-0.1480116286477515,0.1033223474956581,9.837036982687463,0.007845045413995297,0.0066136077711304265,-0.008766274363034635,7.5
-0.07344036397478719,0.060314629926933754,9.824494513742875,0.009580908257294265,0.0007702843148206087,-0.0009482709719988607,7.51
0.09769266864895888,0.0921774922876553,9.863247447540576,-0.0030764074445753936,0.004555125723487992,0.00034914381125471526,7.5200000000000005
0.13914858649740677,0.09786343891530513,9.60877847867639,-0.006143993997020749,0.0334519203444677,-0.013064594116455717,7.53
-0.14635908023477562,-0.04814066260406066,9.898861914624858,0.0073824299914277535,-0.01420079131985023,-0.005088013410287278,7.54
0.06559353987887494,0.01962484902630034,9.834707248258752,-0.0013527162422558266,0.005747590007272975,0.015110435693503975,7.55
-0.029101476027888012,0.17367144179720143,9.929933995542882,-0.017904333221988863,-0.016385199825549007,-0.0018934868392734684,7.5600000000000005
-0.004294076295689639,-0.17150134221939994,9.889829535656041,0.0016808640089575786,0.009615013744385737,-0.014362380671963692,7.57
-0.04059898406223322,0.03634556408928417,9.782859502124978,0.01609326124288079,-0.0037311343760235705,-0.01898892469224695,7.58
0.1115830823847187,0.04775478969933821,9.839867977747359,0.007616032859555314,-0.018479740516227795,-0.005398488557150063,7.59
-0.2704117476691689,0.14997919108371907,9.791534428901183,-0.010080272241572399,0.008734095053555258,0.006071549837435427,7.6000000000000005
-0.009316450781103066,0.03134287110470768,9.754901554201929,0.026453583274562854,-0.0011546859296942896,-0.005233906181596169,7.61
0.03827661098155729,-0.1219890297982873,9.931736946704858,-0.013546630896123993,0.007339398414599502,0.0038755933637607833,7.62
0.13724295947780038,-0.002399859227097231,10.023882072584732,-0.004224321641583465,-0.008936908656729761,0.009195565317288478,7.63
-0.161686502555457,-0.030998733392626307,9.789784054284288,-0.00276456743271046,-0.0004974646780775769,0.010933790666230762,7.640000000000001
0.03677107433499671,-0.17783145707185383,9.878569663477869,-0.014953578585175499,0.004147817667553942,-0.0008086315255620577,7.65
-0.029181212780146827,-0.13048972310234816,9.752686391001335,0.0038218157741324492,-0.005638128274058675,-0.006921748133684886,7.66
0.13160005953682516,0.017191279537638993,9.781516135887586,-0.009112529480965128,-0.011613525260983833,0.0015102036148367949,7.67
0.1154104391123372,-0.0770339093501205,9.85191598133006,0.0004541575399757192,-0.00551958525304229,0.01020515499760402,7.68
0.01656429455450072,-0.02754484402848111,9.748963565268438,0.008267253926469723,-0.016637979325936542,0.007503876821091726,7.69
-0.03332484531930635,-0.04052371661797721,9.979696772052831,-0.000540697443493645,0.0027567575672073448,0.004529894134154399,7.7
-0.005925022386507016,0.024549696047379596,9.865974982212643,-0.005732362717628532,0.0035160209952264706,0.0023718524907157825,7.71
0.006005788914351086,-0.12794738666920805,9.780989616380232,0.0057083941014294416,-0.0010873482905849991,0.0025099431398249807,7.72
-0.06103906686009363,-0.010490409218520217,9.747630280492517,0.020317988569067028,-0.0027493527427703973,0.002383265436932465,7.73
0.0008077913846649692,0.10380303557982365,9.942354814816152,0.005827181357209998,-0.0013546143446828399,0.013194536338733352,7.74
-0.048015969372898856,-0.11970214804916797,9.834661186054136,-0.008150301325806684,-0.0017374160058207038,-0.01150528129316042,7.75
-0.08939497768484421,0.16709258522121503,9.8365956999845,0.004923486365665624,-0.013299454019392934,-0.001765547747275136,7.76
-0.06333479470500676,-0.13962502367918037,9.91263187388279,0.009581959614712116,0.014115317440620022,-0.002165299479251542,7.7700000000000005
-0.014405012121560302,0.08050432954052417,9.774752454675681,-0.001389802092431046,0.00821521962659844,-0.002000691130556614,7.78
-0.08215175428972003,-0.06529660186198535,9.736755600877425,-0.0028203525366232354,-0.007443336747440508,-0.004099298149771715,7.79
0.041535587491538614,0.07931927577423722,9.850418731180266,-0.007128824636494668,-0.008967144149488699,0.003635478588101133,7.8
0.06368514337952383,0.13141166718462327,9.582567273564807,-0.004499164471186153,0.000466965172834434,-0.02206999364823973,7.8100000000000005
0.029954684420423223,-0.0006907502728045114,9.873755118455524,0.002400827464626449,0.0021664377458282666,-0.007282864707733282,7.82
0.11663511006552539,-0.0004965985099777294,9.897790340542592,-0.010268270513664999,0.0049532900279341254,0.02281470818846742,7.83
0.012510092242309546,-0.05903635625007508,9.891467302528799,-0.0016205516361040156,-0.007011005002667873,-0.009428860068340074,7.84
0.015289859102415771,0.009856649549843895,9.796768074909634,0.005347372936575416,-0.005362962974798018,0.01116992932562467,7.8500000000000005
0.03067343966637346,-0.028662755259968316,9.794261194061685,0.005563751574927721,-0.012703559724663914,0.006099437218079078,7.86
-0.07655487526894689,0.09553539190157713,9.79496592630945,-0.003381486507224469,-0.010797674528910022,0.00016115567644821836,7.87
-0.007652314246132114,-0.08882239704329487,9.830918753580928,0.011137554053748928,-0.015434510579673853,-0.013885776816280324,7.88
0.048790116757772485,0.01900820879759472,9.960820308098809,0.0038466372401235937,0.00023010779522248098,-0.005327340151918887,7.890000000000001
-0.01468860106265818,-0.010733687324749311,9.78077279376882,-0.014446321289273272,-0.008220795591959056,0.0038318457982319544,7.9
-0.05347700526251529,0.01826397044910602,9.867352827330905,-0.0026435985125555757,0.013833958135409326,-0.007044417720692341,7.91
0.1009416109528416,-0.13665715525600905,9.803669152514903,0.004056071555311252,0.01423521220146024,0.003208901340684021,7.92
0.056982171164890044,-0.028761131787288848,9.868616014365198,0.010547820740267878,0.0011424671891315243,-0.004980853296550796,7.930000000000001
-0.12446445352424224,0.07039987177907142,9.838332020901921,0.005758824948061006,-0.002723035836674441,0.009085664490608669,7.94
0.14276490025687735,0.028264988319874357,9.764638002585379,0.011908035605231283,-0.008910493785623776,-0.010080282701015405,7.95
0.05074099050671711,0.05073165642373814,10.05044971033949,-0.004485635265711386,0.0038159177370067046,-0.0031935353073925107,7.96
0.0076875165781368415,-0.06698162037692201,9.703600995496977,0.01690435013403241,0.008922075262256813,-0.004792860501992179,7.97
0.06445783610245066,0.031874515913691066,9.645346471403933,-0.020731114001457107,0.0033462238842444036,-0.007445419567517159,7.98
0.10739640762301149,0.06934579508290949,9.942535385552853,0.014466560443956522,0.012751655538107117,0.005804948694357294,7.99
0.09447956066504481,-0.06106896860236656,9.695569707082305,0.007925094609814979,0.002377834165362257,0.00459192649430855,8.0
-0.015089814049150573,0.09581644188203464,9.916810188992315,0.006035189394401353,-0.00364614260037754,0.01649516721363094,8.01
0.1827519635384535,-0.16070066102252378,10.020368473387315,0.013515940441972334,-0.00908775274853589,-0.002558375389332967,8.02
-0.046657943975482896,-0.17228363303844607,9.850889968349213,0.019383386513931768,-0.004627543887767284,0.0018538936453771178,8.03
0.1610136415249973,-0.18730394374383608,9.736141110736083,0.0014436683509613808,0.01203248309072727,-0.0014498271090413893,8.040000000000001
0.0021421703747973144,-0.0478360705366944,9.641466613173682,0.002788609691733096,0.004122436290011779,0.0026481759738980265,8.05
0.0011161134926912202,-0.1551443720293355,9.721532771716642,-0.009228432207551946,0.00017800637407030628,-0.0117876058042105,8.06
0.04957189953297425,0.06486172295690679,9.836711163965102,0.000493213650577601,-0.003380341554155717,0.017083885884090873,8.07
0.026506709614896252,-0.07782604365358511,9.77432940170303,-0.010285521955322004,0.00556064892588369,-0.004115619204550497,8.08
-0.0521282940803142,-0.046548816046261175,9.828197009715593,-0.00865624246536427,-0.011161730385872613,-0.009209659423519385,8.09
0.20462676158855975,-0.04206841345419877,9.901814050775775,0.012678531641819486,0.0015514281473811933,0.0025470637432312543,8.1
0.1612341425862957,-0.025024851283248495,9.858303400651007,0.011210223518355173,0.023980046514528376,0.011474993083657679,8.11
-0.10651726884984125,-0.042201711784316726,9.815449267418213,0.006022551403140383,0.006787872584144714,-0.006996536129033041,8.120000000000001
0.24414532599700745,-0.05791477104669466,9.975581388937263,-0.003078492743590186,0.0008399451133892526,0.007802111599773379,8.13
-0.07030807499142468,0.013062093893179747,9.575969923392826,-0.011901900809581787,-0.0024884918272399994,0.0015718495772332095,8.14
-0.07093036152888195,0.060394446672150104,9.737977467290197,-0.004499140250270551,0.001593254348900862,0.005362105169157503,8.15
0.16962076690974442,-0.1851329292378267,9.641823563816061,-0.009829150526787204,-0.0009306848950041492,-0.010148621059616175,8.16
-0.03429228487440985,-0.05001546722565205,9.775977935594357,-0.003937380736171197,-0.003220141099515609,0.002100914387980168,8.17
-0.0667023604415604,0.08483308097220112,9.854478951767495,0.0021006345118766037,0.0031823324469363863,-0.005730452538809068,8.18
0.13024694908938148,-0.1964338157704965,9.773015809884088,-0.006940900753333745,-0.004620877668456596,0.010511062922213203,8.19
-0.014047156283956232,0.0414603029778206,9.664514950659004,0.0005833950279231591,0.0040132991145516266,0.006661437900181775,8.2
0.037203866519557524,-0.01040423172122725,9.609167613586049,0.005805138272185354,-0.0015962064083586403,-0.018552995340526516,8.21
-0.12344797890470763,-0.10139677161458789,9.668270906607868,-0.009366944680621925,-0.009878330704907125,-0.009846932798943992,8.22
0.1261298120684999,0.03281324180785994,9.914468361570663,-0.005574015112036867,-0.006935001276142407,-0.010359294451762901,8.23
-0.08695910060610962,0.19300687656772975,9.866171754982362,0.00292597640616647,-0.004755406905518788,0.01283948495778034,8.24
0.02344664727397082,0.1097826362130623,9.726994484609504,0.0038450926317032293,-0.010103846493613941,0.004371360741694301,8.25
-0.2832921466722049,-0.07421891567354805,9.892016992461038,-0.006420549739191094,0.0014725485457676819,0.014540004449721254,8.26
0.12402861795750948,0.012899339547730954,9.859768676129239,0.005975657505118655,0.005539878707644231,0.014370368834344152,8.27
0.10067911914612249,-0.15246402967126013,9.800354346286685,0.01962339101690749,0.0030201140714620923,0.014169504079007923,8.28
0.050164255047006515,-0.022965391935149692,9.99847580964323,-0.00374402559994348,-0.01681891720807642,-0.0015502183876041926,8.290000000000001
0.04463563632397705,-0.13297907666507489,10.021650039795812,0.0010068045538347565,0.017216713407705794,0.01966590502863435,8.3
0.013532560776672899,0.17018180955510048,9.805476958172386,0.00888150845205747,-0.01888064967661633,-0.007395628178791872,8.31
-0.07599077791086056,0.10126513480048414,9.713977510597077,-0.004232149347207277,0.003957544534111925,-0.003309374994966093,8.32
0.07548272181877386,0.10491160102511408,9.772488097005386,0.0003688769689042471,-0.030923512901861794,-0.001866964724055573,8.33
0.043007598885683396,-0.02952412611065456,9.93565208972751,0.004902201810108776,-0.0061336059438989515,0.0019815449730678407,8.34
-0.17423429393565457,-0.034459055223655534,9.907029746172872,0.005598614042725262,0.019752334917014464,0.0068166603782607825,8.35
0.004667476828738419,-0.2342708486219286,9.869650104679797,5.8004637106419876e-05,-0.010369403510464836,-0.00259341809383725,8.36
0.013935342978857927,0.04102916264404252,9.758319597154532,-0.00169164795708995,-0.00020045734163368098,-0.013494287957725391,8.370000000000001
-0.0777832492587352,-0.10795729707094362,9.693466941826435,-0.030710558332148214,0.003429060427226891,-0.006712012230679243,8.38
-0.11616432879963566,0.00018938138067581942,9.74176443794149,-0.0175888816094958,0.014516881656769308,-0.0017980510212676252,8.39
-0.13346229388155623,-0.20068268199017597,9.83896166405532,-0.009104656087228373,0.009171943693732611,0.013378218085898364,8.4
0.2716892685885697,0.13235477777015311,9.727074929971442,-0.0036866979296478627,-0.001554449511487957,0.003160746050677964,8.41
0.012628330103979402,-0.04637408213662208,9.837513799857469,-0.004852118987040575,0.005175294492154644,-0.01676702038626602,8.42
0.027855192374925203,0.09249101073319566,9.624214503994613,0.009994040907658135,0.007076907197126197,-0.0035543111327922656,8.43
-0.20778638480206155,0.0342171737465392,9.910131753984873,0.004163503997729203,-0.004441983353570452,0.005155090525677465,8.44
-0.13358757013922604,-0.0028778609983124395,9.81191369745866,0.003645993769694837,0.007116045025026864,-0.008669480498949977,8.45
-0.10345499119437535,0.058900904672886695,9.906153695959071,-0.009882566065563482,-0.006526545601292051,-0.00622015854182193,8.46
-0.11941019850153589,-0.098812731955194,9.811629262368523,0.001403855260732574,0.01579839843376905,0.006990865494895429,8.47
-0.026147287335914916,-0.06953074054465481,9.771132214810294,0.006901502575364156,-0.013451068983633163,-0.00828963911040762,8.48
-0.10623649645603124,0.0538306351759466,9.793040074336691,-0.010057853339601429,0.005466689416147336,0.00533393300808146,8.49
0.0630482153239114,-0.0022365790560374076,9.845961817954601,0.0034985178851953155,0.005595288226862999,0.006857951285450135,8.5
-0.12870445533699973,0.03958140476656655,9.956314640025356,-0.007980505900647517,-0.0012653954572199972,0.00949359278417162,8.51
0.01482086278996146,0.11618222952980357,9.897861432322207,-0.011286301632073793,-0.008829423865293808,0.004268121105878879,8.52
0.19389515971929172,-0.11506535260327688,9.856020418861844,0.004608302925465189,0.00539013777152101,-0.0034664377882396196,8.53
-0.06180606354005154,0.0032547744709259677,9.936358210564928,0.008809954977221894,0.018145110061107913,0.0021860854835451674,8.540000000000001
0.03497354254697785,0.03511297534276918,9.948479724800091,0.005123082813303282,-0.005717893893692257,0.00629573764433686,8.55
-0.03832785643739465,-0.04883875726316856,9.76806382901951,0.01178440854248354,0.02374697082361581,-0.010886131058696505,8.56
0.014402898549328384,-0.10440290739919206,9.722932240118698,0.0004772642536776534,-0.0001912172787083379,0.012842217952499815,8.57
-0.011236166350841553,0.09381070334875083,9.811145079090474,0.004718200965811923,-0.005537125890453949,0.00642156533442971,8.58
0.1514418020679374,0.04763273524237713,9.93768723254041,0.0008709127519808231,0.004222511860759837,-0.008749976297161375,8.59
-0.014040584866115677,-0.058563958419681185,9.69315049261751,0.0018157592904209103,0.0006417334568186657,-0.0012523665953955304,8.6
-0.0546513548250739,-0.03839490821555144,9.684355429016515,0.0029619130041829652,0.003138675465628587,0.011368926008745377,8.61
-0.039478212692102915,-0.03351315264765406,9.954071506369832,0.006138602211484568,-0.013562346571510593,0.007960098428886299,8.620000000000001
-0.060234806134755806,-0.13528605083421671,9.861021113061899,-0.00047507652796569157,0.015671250998598656,-0.0016460343508882,8.63
0.16318626962658678,0.08301086873669677,9.92904439036962,-0.000465455869490716,-0.002998725065543477,-0.005033931480871322,8.64
0.1793980781318762,-0.05900174090053827,9.838326017876172,-0.007623641086615071,0.001942943765027271,-0.009214610356281518,8.65
0.06745256245140416,0.03680163158831276,9.826351283150325,0.003035466200764613,-0.0076685740525563395,0.00951872992382991,8.66
0.08980819792005791,-0.0092781816627446,9.932566234289226,-0.002712543207904273,0.00205601289220369,0.0012156064043312431,8.67
0.0027771484254666898,-0.06903198585015179,9.805018724303851,0.008749531406862791,-0.005271560450833233,0.012763131146640396,8.68
-0.08881590174824569,-0.031888915833947123,9.793012644640722,0.012319737090558048,-0.010602802032506117,-2.5559918381900368e-05,8.69
-0.020254445142126914,-0.1579955194852769,9.65118575522215,-0.000621603476467615,0.00030069132906120066,-0.0038279826037153847,8.700000000000001
-0.13052819072297536,-0.020360881055415496,9.787352019892213,0.004025792146528741,-0.013575342930050477,0.01542353252002541,8.71
-0.01021822837454605,-0.0916857890533393,9.687021787971055,-0.01027036451292674,0.0014226850897148227,0.005047160222149738,8.72
-0.054866854716259676,0.02845825976882101,9.858675851419806,0.0036684019559764954,0.002440927358342126,-0.007198877904245718,8.73
0.04406221842508136,-0.11204901128785849,9.755130858926032,0.002714058132421176,-0.000523284631269357,0.001885273592534507,8.74
-0.05626554059427852,-0.08453454844972268,9.675990299150458,0.00035100648339509463,-0.01607266103647886,0.0031758113172065078,8.75
-0.05779456424427923,0.021945152167763896,9.74165307336235,-0.0028723408908666952,0.0010733225764163442,-0.0022968851346710398,8.76
-0.03925338429671105,-0.04221535550127982,9.759490773166059,-0.008736434111713395,-0.020723221407944515,-0.004092725390110402,8.77
0.032343444562286584,0.03525820557408352,9.872960360949262,-0.0009754650197894405,-0.0031936413860823645,0.0004710307850641545,8.78
0.11219214157259422,-0.06246361827354761,9.92222370835255,0.005898876351313221,0.0040312812355083934,0.010964927791859678,8.790000000000001
0.054146539082046787,0.060517357204020475,9.887300492921284,-0.005083373981661558,-0.0008316635016421617,-0.012110593252684865,8.8
0.1281067476826505,0.11885598283398693,9.88907952445948,-0.014824171635778146,0.014116095377654781,0.015571135109142332,8.81
-0.25017639151358123,-0.103525456843929,9.630730096254158,0.01194672557410541,-0.0056051303105778254,-0.013954927959013427,8.82
0.04085512271161991,0.08736250690629511,9.761260951562175,-0.004930458799582797,1.683534334927771e-05,-0.001209384074002923,8.83
0.059431650038640274,0.05055368666434762,9.85521823455378,-0.005102919401297699,-0.015486357378316527,-0.008303158079915244,8.84
0.1079475384660932,0.04913110356719995,9.877442614102977,5.6824217925116175e-05,0.0037562877670030133,-0.014053213503548698,8.85
-0.10364075614095498,0.04836739114724348,9.790701163031613,0.009154010969770704,0.0011130292195105915,0.004467667069202909,8.86
0.15515446051975182,0.019280878713501093,9.739015654499275,0.0010314170394004802,-0.003818457155111276,-0.0046429287707073765,8.870000000000001
-0.008137680267506308,0.1987888771215104,9.995721722332423,0.007317393383258481,0.002797922237885562,-0.008201384789538992,8.88
0.05010289461843235,0.13063282428758002,9.964346972873107,0.0009409791439989123,-0.007673717345046076,0.009128758374375767,8.89
0.12878010965715955,-0.1464999082584312,9.81510505923339,0.011975662265887038,-0.013312631280537288,-0.03389845201530794,8.9
-0.11860437389529073,0.14431914331810838,10.043369653834361,-0.0006845192630266291,-0.01276255850958023,0.011150296924844464,8.91
0.06330017141473482,-0.18781937454370237,9.868073603408916,-0.011476492312905743,0.009358515058566353,0.00972288725554609,8.92
-0.03283498058627873,0.14924072319741788,9.797470443802254,0.002525742366893338,0.012935598617744641,0.01069829038611804,8.93
0.014485767718283936,-0.009020016345339608,9.777634000776889,0.009476327721573958,0.007756723184495099,-0.000177820712626897,8.94
0.09377577898792724,0.1177037471998925,9.707673648135223,0.014157217808343555,-0.0020493467099835065,-0.0002192243802923354,8.950000000000001
0.12475873457367569,0.07567294893761528,9.812522712230766,0.004023744979018809,-0.004092644752170733,-0.013605636987391596,8.96
-0.06094418524135871,0.014082251447105698,9.984956608792816,0.008002245790946714,0.014580249452971556,0.005280950915520043,8.97
-0.0055243886683260255,-0.060479314697833735,9.917561526682237,0.007515619165418088,0.008662446562502885,-0.0036701814886314762,8.98
-0.037839286972728155,0.0803160270358651,9.861663530150503,0.012500505881579412,0.01168133053193047,0.009194324782758225,8.99
-0.07203595347384183,-0.08894495664229961,9.665323929212247,0.014337088575416695,0.009678877104511667,0.007483287465668902,9.0
0.08775630930883459,-0.0673443203161404,9.757357115607324,0.01355675569091909,0.006043911318334392,0.006102485296769686,9.01
0.14695899962156295,-0.05103505780513839,9.653792209032027,0.008886801238960481,-0.00825351522250074,0.011856683403468824,9.02
0.23066088441079283,-0.05736955856875839,9.80865366461548,-0.010664471433030056,0.005914987980276358,0.006529415307744092,9.03
0.07237628144115105,-0.05774730884367968,9.73437097354367,0.0010519559654253716,-0.0018354574863291716,0.009080323015840545,9.040000000000001
-0.20992897748448003,0.01667070483302853,9.649776669165243,0.01541083285961078,-0.00372822340044241,-0.005670119723085871,9.05
0.030116970404746125,-0.09437063989154694,9.878153809881377,0.004511934423348784,-0.0044668772121308,0.010104011680846719,9.06
0.29787678000437706,-0.018587141745718426,9.886507874371086,0.013599948264669561,0.009383481597699533,0.00199937817439985,9.07
0.0017210982069900335,0.2500546011538351,9.946827146273915,0.00019002693966005372,-0.006201981292597818,0.000997888942288127,9.08
0.07996352515574559,-0.05029245611024816,9.946189643744798,-0.004771151491223919,0.0013532644693286945,-0.004863562546057179,9.09
0.10102964573921147,-0.34144462244734625,9.948346499978802,0.0015819888495632794,0.005248226323554121,0.004020934302975982,9.1
0.02260820602270741,0.007409196736482982,9.811033280165743,-0.00618446295419406,-0.009170906131924979,0.007127273732540038,9.11
-0.13068035756358723,-0.0679293474236461,9.711928057399971,-0.006074709788041297,-0.002652176924944416,0.008817761595324406,9.120000000000001
0.10430586448555174,-0.20817519501587115,9.765956711751485,0.0010905207676787463,0.0043141976565174555,0.011252519960018359,9.13
0.022953834236887613,0.04550803061187629,9.828576683726865,0.008455645012405446,-0.007546541804917106,0.009527762643456054,9.14
-0.13346432515515663,-0.07491947974243406,9.73603626503088,-0.007064079481238898,-0.008237807050562693,0.0031597884115666447,9.15
-0.04419764058620941,0.10581935483117032,9.955686146500906,-0.009223814351819258,-0.010555436734729194,-0.00994852955601186,9.16
