ax,ay,az,gx,gy,gz,timestamp
-0.1347873933282386,-0.08947259306471268,9.809364543138559,-0.006492161168562552,-0.0028150212262021508,0.004916896098842032,0.0
0.060365865681768265,0.17997288588732507,9.773590652391707,0.011095435423998792,-0.014008797162075705,0.008581728542531322,0.01
-0.0200943383714697,-0.17520473025555525,9.883669716612697,0.009097180516328095,-0.007734098167721956,0.01678871900739694,0.02
-0.06465992444488637,-0.027901053445549797,9.72735853169885,-0.009283090799647965,0.007177643193516572,-0.014510199256656049,0.03
0.18891791534176328,-0.007533109064209594,9.83641909161041,-0.007111998157297797,0.00265375178397521,-0.012738416773154572,0.04
-0.012402133798143348,-0.028351266372498563,9.85027012869236,-0.0010763800523906518,0.00798673280647957,-0.0031849478241090406,0.05
-0.07592830547127685,-0.01354134058051158,9.723467407481262,-0.0027300072091121104,-0.0019839171585110285,0.0008753349572564907,0.06
0.08405703118070224,0.04489612084181219,9.763313570574027,0.004531667255513063,0.004708168322919687,-0.018320567425536012,0.07
-0.09074444754251947,0.05854576511497875,9.764584283644382,-0.006750919659938979,-0.014866255220976881,0.010303996932300002,0.08
-0.09767189718344431,0.1871118166961834,9.936646416557508,0.009389493696252436,0.00405245918977954,-0.011963584017404959,0.09
-0.14396829868793418,0.03323879756503977,9.863837347917299,0.00035420135366590657,0.002480400837081569,0.00738562246073673,0.1
-0.0031217198169834867,0.10412101806138752,9.623495803316459,-0.002575541228950862,0.0033453672458994906,0.004457085972898443,0.11
-0.18985970285521436,0.03302456747957381,9.88708525957688,0.017218520240293984,0.0064422075342896665,0.0018137267117523156,0.12
0.026045768895632756,0.032391080196228696,9.795743874102637,0.0013427521823215491,-0.00992241900457739,-0.001545172931886842,0.13
0.01597710613529528,0.09996371413777097,9.881715838089336,-0.0009981326763967436,0.020832055265175717,0.006414933157666786,0.14
0.020172691631778775,0.06495917888692836,9.75651535361457,-0.010595088061901601,-0.004606091129255306,-0.0004490794924160335,0.15
0.06820644054944423,0.03456447971324469,9.88744998244507,0.0009571193829737622,0.005291522282022379,0.013298361668672822,0.16
-0.042368843619316476,-0.03425404745754096,9.874262297989903,-0.015917979078423093,0.009799415622210482,-9.78215338733959e-05,0.17
-0.06270760210627882,0.09990707832463679,9.700237636498432,-0.010730823091863797,0.028944497206682053,0.017854977862012136,0.18
0.036539833054064566,-0.2028019297278951,9.768289433398229,-0.003621909613607388,0.001272655636546872,-0.00438993533923074,0.19
-0.0470610714954712,-0.13406765914776217,9.666099447581757,0.0037537228202468415,0.008279652542955403,-0.015702957518769788,0.2
0.11636430548134342,0.12432265443178014,9.844387895974473,-0.016056128749568802,0.010130844574935427,0.002436434597471803,0.21
-0.016562369075144474,-0.19874981651608314,9.995036560466838,0.010405311016599018,0.007826776915207515,0.01876059333895934,0.22
-0.11777822839697515,0.028474576649778663,9.829642555637285,0.003990462571691536,-0.005234941263045848,0.01085792097066173,0.23
0.0649878348207795,-0.03474456623158167,9.795632918831865,0.009239416882249045,0.002765189911439912,-0.00837124113793929,0.24
0.05203319596756561,0.014014779496418923,9.967893484256258,0.012045052161154635,-0.0006630253660647863,-0.013341624889917752,0.25
-0.08649367820234377,0.18459368638343532,9.887190134344479,-0.011833120783560693,-0.003433233085207831,-0.012756324975204354,0.26
0.19408296555909407,0.0153404943146785,9.836420940759687,-0.017257177903291995,0.002926119640542329,-0.00442084941387821,0.27
-0.1695483332821953,0.04184601303126787,9.788318791763192,0.007751611441941644,0.004504669970607973,0.016268823931870315,0.28
-0.011389748321371124,0.017522309283925227,9.864785533808789,-0.018756051899125124,-0.005358924598923111,-0.0028830627330847375,0.29
-0.10243442323853179,-0.14626679504706272,9.693052376643253,-0.002853848997923315,-0.0024147972504389025,0.013620139742024652,0.3
0.048935720932610255,0.05199590212659988,9.811426115113344,-0.00708677800138039,-0.01865562670670077,0.0005615787436367327,0.31
0.0026599425214342623,0.04150025162330506,9.835548503854149,-0.010788630904067458,0.00495894147077987,0.029293218559613067,0.32
-0.05193032224278993,-0.0621786836675186,9.949878505400557,0.0019037279259854095,0.017497099018493653,-0.00622310870969202,0.33
-0.03403145956813336,-0.17011185975841997,9.905614120160857,0.01687769489171836,-0.007242194601624885,0.0004438963747090871,0.34
-0.03447936356693141,-0.13580293499229723,9.819095383032655,-0.012298240767038664,-0.01118527318853414,-0.0045372451614016955,0.35000000000000003
-0.016014394557801178,-0.2224771533494796,9.911149966157215,-0.006957570695818905,0.01551930830463206,-0.014946753846654238,0.36
-0.03930521586650978,-0.046805472512662136,9.741533057266972,-0.01229747071113397,-0.005653952710753323,0.00013058510073319122,0.37
-0.0897913015939622,-0.017064358310026884,9.736357941774594,0.004751339198349637,-0.006758319614694478,0.0031494599914987436,0.38
0.07909637144531056,0.01629070200437117,9.672103138818766,0.006956890489725656,0.010571531144567999,-0.010559056312902427,0.39
0.11152485000257878,0.043306729330681464,9.808059010102808,0.0023088366121881095,0.009375564263907694,0.001203649349720316,0.4
0.10057802630111677,-0.12623885664289752,9.839761389650425,0.0039713536877709395,0.006308593132471801,0.00020634919726327135,0.41000000000000003
-0.002793064651304628,-0.1944988458758383,9.846959828944158,0.0036144369398180627,-0.004317763216565258,0.02029237725453342,0.42
0.2139538352879441,-0.23824772609824643,9.979759996281077,-0.006934467946596919,-0.013863124173378203,0.004605131603953689,0.43
0.1741654034327301,-0.10708884900482521,9.913541887518024,0.0010334516381741608,-0.0024331884603028364,0.021655867336068314,0.44
-0.1664352892917248,-0.024496522954852384,9.78827530899851,-0.005629430264640707,-0.004927287520605209,0.0006218369779096444,0.45
0.15722299731070788,-0.030340086744556655,9.791208829420102,0.010128244579731579,-0.012958972849020573,0.020604180771070596,0.46
-0.07957126519881463,-0.06664247464726969,9.625422753099594,-0.009962930969993717,0.017214010742410243,-0.006818939163354116,0.47000000000000003
-0.09612875953127292,0.02124755768026754,9.561461432511743,0.0016404311640050237,-0.018510808216682863,0.00022147450876989377,0.48
-0.18403517816158743,0.056848663960094595,9.849697650779074,-0.007413711321806812,-0.0022967467976534816,0.002083472546356852,0.49
0.008660530140582328,-0.04350775518740191,9.830198895753815,0.008186437173481961,0.0006290442986991509,0.0066308188525850825,0.5
0.0006395616719638304,-0.015906053671971777,9.83461865276687,-0.010958228146338003,0.0029551737692286146,-1.61062483735279e-05,0.51
0.018550336702084436,0.06859503397092993,9.74654033292539,0.012472177597670593,0.006453936902787567,-0.015940469817588572,0.52
0.06303692844684437,0.22274792753049463,9.858410421515995,0.012742105421503636,0.02099962053328045,0.0026206052836143137,0.53
-0.16423946081991803,0.0956012357018051,9.878769223832148,-0.014663185710123592,0.0039446602310143734,0.004782912569629569,0.54
-0.002258579421412729,0.05689387095301706,9.907365035031164,0.006403149743879808,-0.004994438162930305,-0.010657340024280593,0.55
-0.052454007881337916,-0.19488048538566372,9.854235185305999,-0.004408227617183893,0.006581103920959756,-0.021522065326691757,0.56
0.012347017060875931,-0.042538309993456785,9.896915192200964,-1.3444919402667082e-05,0.014758411371247303,0.0076503593313234485,0.5700000000000001
-0.057962732713341375,0.12823406480472452,9.875069011438145,-0.006359626524588764,0.01300618094405699,-0.013148943244095926,0.58
0.038756321786855834,-0.022096660040171624,9.781910030685852,0.006808136040391653,0.0012826275761942168,0.023374981364980642,0.59
-0.042696770305749185,-0.11379286691249049,9.668324122763847,-0.0022267171966015953,-0.003097301065140083,-0.02153277030537703,0.6
-0.04042379513437017,0.0399841797939047,9.889229248386796,-0.012362749474064549,0.00043753051708309774,-0.005066171643144759,0.61
-0.06780556919995594,-0.1517374476948215,9.792023011413294,-0.005655473806322294,-0.00034805527179015755,-0.022800299685730604,0.62
-0.06646919788787996,0.07347131835993523,9.691023620229025,0.005904388559103243,-0.003028194090185176,0.004096325804793011,0.63
-0.023208809174374113,0.10539978812788704,9.818072284271585,-0.010857511572082864,0.006382247967391265,0.0071192747441242675,0.64
-0.05384729381580325,-0.03177037715025605,9.932670463543856,-0.008496424950125713,0.005157138578044057,0.006354942891098332,0.65
-0.15902597496620566,0.14372950923275002,9.774689900712845,0.0010207211008352725,0.003127354083222404,0.00407226325227619,0.66
0.021721010964464126,0.06544605506868731,9.850481050275338,0.005945791245330959,-0.001822675374628978,-0.005649948958723895,0.67
-0.10529619673136488,-0.04583615299842731,9.85533999425091,0.011296990065820727,0.007189284025036358,0.009931608320238889,0.68
0.028849174471115614,-0.09030979560397415,9.886550442547117,0.0014818521546714428,0.021847490455404243,0.001089400045425234,0.6900000000000001
-0.01506301939282708,0.2359691510629084,9.732818563413295,-0.003407135563325988,-0.0038640774128357812,0.011073538044395656,0.7000000000000001
-0.11572900256543142,0.12031994897991807,9.612265595871591,-0.0011246572378838672,-0.007427945171722215,0.0010827786750777955,0.71
-0.14935419134068276,0.034023415055246774,9.639258688833477,0.0004118163969496365,-0.012826222558729153,0.016385967167652806,0.72
-0.08580090787993283,-0.017614464177829206,9.726283882986538,-0.005898336901197989,-0.014763315575770953,0.004620210717782666,0.73
0.09630248087811957,0.0166910389188999,10.113285839881694,-0.0015078877434258045,-0.0043837935384170865,-0.008436024474074525,0.74
-0.08580086125481041,0.07015945951321058,9.751075047845218,0.0018402352001794004,0.006310119458654854,-0.015768875083579922,0.75
-0.11822857271769614,0.0716188443650893,9.749545007769138,0.008108831725823112,-0.02106429307274158,-0.0028167986622192223,0.76
-0.07393042544327744,0.11796919424512349,9.905924334255985,0.0006476448287829288,0.001055793537792307,-0.012149583744680033,0.77
-0.029178289971227483,0.07559473857443774,9.778834669073138,-0.020634907887676534,0.01776416509265843,-0.0005384275309870572,0.78
-0.2219443863956565,-0.06363233561329139,10.100898816595953,0.0007010727283280735,-0.019707611165881437,0.0006766438000099646,0.79
-0.030712653092762734,0.010294990038310477,9.756993953994261,0.010708201124451491,0.01030161008018415,-0.012535051125314308,0.8
-0.09179387403432392,0.10514956870847432,9.739076230279656,0.0008478904304443584,0.008899819293492551,0.010843472441199178,0.81
0.11407165053993995,-0.10183091916661134,9.610982513471368,-0.006265681941016585,0.0042925715927980765,-0.00368129357179461,0.8200000000000001
-0.01951544733716026,0.06817165121533203,9.72867024831821,-0.016058266992632013,0.0020393565939520173,-0.009336709657524318,0.8300000000000001
0.04847816690511532,-0.07872540490526622,9.972292094984605,0.000779922112373854,0.012146834893015875,-0.0047204365411686235,0.84
0.1461708628727728,-0.04355232917286893,9.803240691121378,-0.008619809352338498,-0.011533971600823147,-0.0009378742435885532,0.85
-0.08761119667295011,-0.06720514110269546,9.82298083615849,0.0035539371929765463,0.020863273335355523,-0.001559367652114213,0.86
0.022078827524697482,0.0281681816623378,9.814831676455032,0.0025355786054544814,0.008380802004250182,-0.0022874769838247253,0.87
-0.09206631079318084,0.010065122120400916,9.768636430796448,0.003229219242833764,-0.02302579707650884,-0.0060057934877666965,0.88
0.033435987097119396,-0.025577985082638366,9.79579907909987,0.006163682650238256,-0.002337329154064468,0.001842896810991706,0.89
-0.03727599438931092,-0.14911022043622674,9.791943776120151,-0.023325150734543443,0.011774989284186441,0.003974860505501378,0.9
-0.0829753411693436,-0.05829201281498336,9.792449586518797,0.024337803221691275,-0.0015149440703538122,-0.02051548365102834,0.91
-0.0627480056289591,-0.11277781468283737,9.8344220561482,0.013993136989513663,-0.0013650456711933867,0.0023253227145362287,0.92
-0.018537687540320334,0.09857118287079239,9.963573059370658,0.004970952060550752,-0.006064021094402059,-0.019881095615952773,0.93
0.18602193498993505,0.06497610536350155,9.981536790613665,0.0027345589154197355,0.0032676312483753186,0.009176655020511617,0.9400000000000001
0.20988457498839988,0.0776530187078025,9.784480857191914,0.017357404007710936,0.0035120905875533504,0.002090334573058413,0.9500000000000001
-0.024498771673594186,-0.10473192569732215,9.937440130467518,-0.013477830982316322,-0.007795895346767809,0.021021827641855683,0.96
-0.05069612087625354,-0.09578208386766991,9.60482673806673,0.008599766192550165,-0.006964177148787728,-0.020656520107389737,0.97
0.11824320519416764,0.11765724112315668,9.821447394403027,-0.0006524400580740387,0.013286447248256018,-0.001970139919497552,0.98
-0.08659933063440702,0.004931112732564637,9.932558077943668,0.011748570916369026,-0.0132402144405602,0.0199528704227156,0.99
-0.06437672078317912,0.031310901729285065,9.80099757816066,0.010901678816710716,-0.014261061603689071,0.0016059194982472205,1.0
-0.04167172138426364,-0.15717548996727126,9.720623319262835,0.00726136010409257,0.0027412751619890837,-0.008596381052211163,1.01
-0.03559361276625719,0.0036748307201085145,9.78548114148163,-0.00905648460910068,-0.008387153269051803,-0.004672947646650591,1.02
0.012773411957201048,-0.0244015402071152,10.020440152908115,-0.008311619305854088,0.018975401043884933,-0.007467177870738884,1.03
0.10952100360344119,-0.06300663649941145,9.79002915918386,-0.0026462506970059414,0.0005938709581918273,0.014367776682963776,1.04
0.080995915486053,0.06132258806279248,9.739364809698387,0.003115257807398178,0.031097725065029717,0.01594436829374344,1.05
-0.10508266739099088,-0.025808225769652523,9.792342505934903,-0.0012005554778854546,-0.011377131857046627,-0.008884896974509613,1.06
0.00956439003805132,0.10369511204774162,9.89722208023667,-0.0029043464875175102,-0.0011592079870923896,-0.0014809206157283558,1.07
-0.05148822300009018,-0.13808001043567117,9.732773238783668,-0.013139407000466742,0.003426908719606414,0.025205302289421624,1.08
-0.005640248925276706,-0.0036052793951451933,9.853127919527603,0.0036054160299593546,-0.004517972938124796,-0.022648942123123933,1.09
-0.02445859869320241,0.027077208231301615,9.789436844328998,0.009366653095069571,0.006799037597157982,-0.010062585986662011,1.1
0.1011419537300464,-0.11596294268590038,9.912166915592735,0.022296310422524154,0.009003988079533985,0.01893830847094431,1.11
-0.004376227344685182,-0.06702958575264627,9.706300856596934,-0.012430800094987671,-0.0019855070112817434,0.02253582612560298,1.12
0.1090122415475813,0.2142011793457409,9.838703502768423,-0.0052775435825625,-0.007012193257620325,-0.027109308615036604,1.1300000000000001
0.026893465170689676,0.04527183868389692,9.644690138739382,-0.0003017351930399681,-0.005656823303848095,0.007338281907634048,1.1400000000000001
-0.07007469236302837,-0.06444145307912579,9.841660985546657,-0.010530426478887363,-0.013094443107519615,0.004651696234021349,1.1500000000000001
-0.008788551955819525,0.06113040894927066,10.030923367169478,0.00019735125317899254,-0.006242410619714101,2.2070983916379463e-05,1.16
-0.013971153280293747,-0.06399900539063708,9.794398891267926,-0.0025242572032541538,0.003955221671645561,0.004835745449341949,1.17
0.10752355115311088,-0.035538847521487005,9.915715587668709,0.019999928201130668,-0.006079142378665414,0.020405141455845457,1.18
0.1519081536806764,-0.14757040099058716,9.81008401770282,0.010242297756666796,0.017546366591935994,-0.005254248346966285,1.19
-0.08006061545780307,-0.0054011481634108315,9.940193972018236,0.006571127355180315,-0.00720455479023578,0.0034042950113605647,1.2
-0.09389244108134491,0.04353829654850069,9.799744525241527,0.008165955466068556,0.0034118307648287483,0.013732373012522366,1.21
0.033012218512314444,-0.020546719561516057,9.675451209908488,-0.005064357432777985,0.014604035097446571,0.018689243125515006,1.22
-0.047498647323645705,-0.05402184898419457,9.986322300852033,0.0016681159851544614,-0.009048595429572145,-0.01987040296764575,1.23
-0.006982447856819113,0.09782821629037658,9.778186478538629,-0.00223940832504159,-0.00911958624258584,0.014198007326575168,1.24
0.16565621101743183,-3.832330482282933e-05,9.705263738790297,-0.00464576467768395,0.002618105039897596,0.00618283888025714,1.25
0.012970629679725254,-0.032516867206872406,9.913755918979376,-0.001487811692718522,-0.01809572334982916,0.01897454806607432,1.26
-0.11671670043646334,0.1894213564865061,9.884012782146792,-0.012092849023308077,-0.0014771255458991151,-0.004612746654954546,1.27
-0.19692901363562712,0.03377780224103301,9.827340995012694,-0.0021527346609356087,-0.0117681123747784,-0.00018690801163678554,1.28
0.062347642581120535,0.03229196567709105,9.840038917251897,-0.008181892746673471,-0.009037671164137267,0.0009287578138094304,1.29
0.05010232510359176,-0.047754368495205674,9.787362766079296,0.016070267241912805,-0.0077477822020973735,0.00719509321351792,1.3
0.18738431428444524,0.15737523676828502,9.846235616797271,0.0023597223287075333,-0.016627038409879523,-0.006642319365206582,1.31
0.00995212747314906,0.057064900713659786,9.87215002394085,-0.007649213131138353,0.00960333319587952,-0.007787133567723107,1.32
-0.017562614384933988,0.10567225935132066,9.933729200298648,-0.0013064431543978944,-0.016061969581631287,0.012557586377056814,1.33
0.06506009755469273,-0.11934290674733894,9.691671044465616,-0.010497600896201989,0.01296629344339507,-0.014993808542670914,1.34
0.04818863734389757,-0.11235721599299447,9.92182046300163,-0.0037290659465079273,0.022124772373798257,-0.0047564181274202975,1.35
0.07532783593314428,0.014283608786884245,9.900053444504666,0.0078110442520058325,-0.005005322636838934,-0.003703184946389082,1.36
0.04521260746461107,-0.05637564694463525,9.830321920236736,0.02328780837541406,0.0038717605273628397,-0.014372738362110407,1.37
-0.1568464014208481,-0.03864614045761199,9.748718457219155,-0.011317852558361605,0.017967475357850808,0.0013720887760485954,1.3800000000000001
-0.14838592521693464,-0.014264026295924579,9.96002918678141,-0.005191812191840501,-0.0050148520356822065,-0.017189631767046517,1.3900000000000001
0.007488826812630781,0.1084553044411446,9.725550717161354,0.007974358769770344,0.008911842306838022,-0.008000106429225934,1.4000000000000001
-0.03196047152240693,0.00476274810071524,9.8089421466716,0.02449084198899495,-0.001820760821827673,0.0017457941223779114,1.41
0.07463324250886465,0.13699623724514154,9.666343089821952,-0.016658091986066447,0.0004394699337966304,-0.005236239475989762,1.42
0.0813284868952901,0.08335277577934617,9.66383212483611,0.0033208214801549547,0.01998012219155809,0.0019349019558539827,1.43
0.16184442579447547,-0.12893257069995095,9.742490797573115,-0.0103008377840005,0.018627186243370036,-0.021676808501475887,1.44
-0.09450306011671485,-0.13357028754300737,9.86114634015735,-0.014561488810095202,-0.010239488374631529,-0.004876809437331358,1.45
-0.030921516228897973,0.05892918935251901,9.605366359769809,0.001799062182900555,-0.0030488288601535447,-0.008277742261659263,1.46
-0.08277387581398561,-0.050406277692949565,9.72096800999401,0.004230483471802933,0.00469953945645795,-0.01415097147665552,1.47
-0.051027099683768146,0.09423104571671231,9.898371137617113,-0.013773879623562444,0.004554468079129389,0.004000863727375918,1.48
0.11976306187885671,0.09478300203660786,9.720109301972167,-0.0005850097419600443,0.004233061832924523,0.0016771432068656042,1.49
-0.03156470528367099,-0.23022732271650634,9.754052599557003,-0.0037923339856932793,-0.006774812343807304,-0.0071371893157726185,1.5
0.0428391389475606,0.0038560872437488885,9.822675870742868,0.004084391991777235,-0.006464428038050405,0.0005414460921375825,1.51
0.1486163616604225,-0.14362427153738466,9.670057589884811,0.022057515214185863,0.009231410442116332,-0.005484953396237708,1.52
0.020438353335843568,0.053173366983896,9.862494256514536,0.00151014914988913,0.0017355154088231617,0.0017754218806937212,1.53
0.061659951862516486,0.0772900334692808,9.646213860636252,0.0012744867781235905,0.0055231488324220595,-0.0052354258971595,1.54
-0.13915988270733542,0.03449326016848418,9.762415422854218,-0.010815729603830959,0.012876879774087557,0.0032349269106824253,1.55
0.02882375358395145,-0.10927083982018289,9.948112730860014,0.014754637115015224,0.00631414086657916,-0.023858588450717446,1.56
-0.12065063964895367,0.04680973893053669,9.795143096715817,-0.006274076385112305,-0.0001837874500249496,0.024961670933727476,1.57
0.018282147524164852,-0.10918261119757655,9.868233786035146,0.011686636215912491,0.011072267382145949,-0.0054744225217507785,1.58
0.10286679931870935,-0.06776532617459723,9.759369664485593,-0.0033061060373873624,0.0005548934441036156,-0.004013648782631485,1.59
0.059659753890649495,0.07541496148238704,9.757540897693271,0.019775857489503352,0.005994694547036056,-0.00531745752783894,1.6
0.11333415129258767,0.10194892520749538,9.7195116269785,-0.006403939118980255,0.008487306263096725,0.01307481221517989,1.61
-0.07662189468849454,-0.12090453594404726,9.693382230366133,-0.006711187452727654,-0.0034693068635053286,-0.01782306598069602,1.62
0.14968193752884806,0.16788805918027153,9.752433472603318,-0.005616833265747313,0.001688675117006986,-0.0038961088754576505,1.6300000000000001
0.011952072316172669,0.1200411636362023,9.86517916644292,-0.0009675827212297556,-0.0008022269964212316,0.0039012001250285184,1.6400000000000001
0.13275294313136685,-0.04417644099458823,9.822305218971469,-0.0015970071852899601,0.003719084429170895,0.0038105655665963325,1.6500000000000001
0.11825714449224292,-0.17740504649830857,9.79389689513244,-0.013447579818683525,-0.00020788211331175334,-0.00826448753511236,1.6600000000000001
-0.0638361196119732,-0.12365686583439102,9.891216138379205,0.007660473404010549,0.00991356774015041,0.011377600036220497,1.67
-0.027369908459425704,-0.015297267551993217,9.824983649004505,0.00332817793824634,-0.0041771911467211225,-0.016238511414392916,1.68
-0.0007371563974001907,-0.09856312723905118,9.803264464838813,-0.0013074079367169822,0.00905693372006752,0.0005272105970187958,1.69
0.09613231388581618,-0.03986323711592877,9.917325434189886,-0.003287343456096442,0.0021202868106353244,0.007728392763825896,1.7
0.10496205843985225,0.07579189901417402,9.848739468073745,-0.01740132835269967,0.002176638508450598,-0.006941055775366883,1.71
0.07659812129876749,0.0020905181283406393,9.896243841244534,0.001520393046051034,0.00347891362426379,-0.009868764326368608,1.72
0.05328172374254667,0.04356954573181958,9.978691761941937,0.006277707797692124,0.028056826594225898,0.021871306240356457,1.73
-0.013940829094717095,-0.212001981175926,9.85048214202329,-0.005211348927327184,0.02148021301677267,0.014235452246328608,1.74
0.04127657394280296,-0.03057526495119277,9.841801220497734,-0.01827832870294819,-0.001344758189687955,-0.010271635868048919,1.75
-0.08005415000129275,0.048153249880704956,9.746627175233641,-0.0016872137061223144,0.0014057247276325889,0.0075426941862058216,1.76
0.039827083774236244,0.050689165539984794,9.83384045308607,-0.015301914403070814,-0.0024927437297564605,0.006759576319796453,1.77
0.07466822337270045,0.20433744852022617,9.771066156238016,0.006819335687486323,0.025268596902376185,0.008166496745372816,1.78
-0.16756697920332508,0.09842275798828591,9.685610259723589,0.006655683684605841,-0.004996101455228979,-0.006334852548048624,1.79
-0.059493282258947344,0.0035950069637887567,9.812575469365804,-0.006516636758357678,-0.01717047691055142,0.01158982634979823,1.8
-0.0642467239936802,0.1778073831041663,9.943793610148862,0.010139755386477121,0.002446019291333424,-0.002010221570461504,1.81
0.04380717595335362,0.028002625079026622,9.86010383035075,-0.0014872431613586398,0.018103286074674665,-0.011836437309673096,1.82
-0.02034079345412021,-0.05995639954333665,9.610805099670111,0.01416289547068393,-0.01311740952488399,0.003274656116877225,1.83
-0.06455252669215511,0.12296102595368086,9.770881363504865,-0.01111938369282689,-0.004385542833964666,0.008722997249787048,1.84
-0.1565002259397441,0.09609152349709371,9.950719742029369,-0.0033323744187905963,0.004382300785416259,0.00014625720268741699,1.85
0.011794067884231395,-0.03693173993977447,9.857896601920237,-9.915176354144084e-06,0.008431342019685522,-0.008748577701860388,1.86
0.06908732494670287,0.026450771609262676,9.826950468951493,-0.00011471929029042177,0.018444376762519407,0.02789047397654373,1.87
0.09013695309226365,0.006801972633256184,9.937667830644665,0.001062164108614078,-0.008280047469184796,-0.011811269858472744,1.8800000000000001
0.07065225380570117,0.011195354118415136,9.87693981999906,-0.005859646689464723,-0.014020107009306502,0.004865723801138933,1.8900000000000001
-0.14976063290299121,0.07725911223077546,9.782609867014308,-0.014262517902005807,0.006542396888758482,0.0009318400603555964,1.9000000000000001
-0.24846058565055948,0.14675756074917104,9.884879111874945,-0.005199074690215424,0.0026208761972903445,-0.011331027510523489,1.9100000000000001
0.04681797052001414,-0.1737969471715226,9.866464056960762,0.016271337053669142,0.006425289722441747,0.009049864260805037,1.92
-0.08448910226324889,-0.13283841652028966,9.824817651002487,-0.008576832116158173,0.00560926681016839,0.021516218081153355,1.93
0.14825570053858003,-0.011297698923280192,9.589223327007769,-0.000834765876142163,-0.004160198769692614,-0.010540367079819214,1.94
0.29963636494660045,-0.07649942330771194,9.91368066629497,0.01846365229184356,0.008041592292919552,0.0017984324209290407,1.95
0.13516632702249512,-0.12953156942390062,9.669729072328904,-0.004682750528006575,-0.007712662114035104,0.0033607491476791112,1.96
-0.035338455322741706,0.18365496496873546,9.821859436166932,-0.0022665642200422717,0.0016975341863545727,0.003965546149499294,1.97
-0.04878399767858767,-0.06246839857434784,9.95035891987124,0.01263968413616281,0.02114258648529072,-0.009401384188292729,1.98
0.12389539620190444,0.025574251605010825,9.657821088644042,0.006837040269548229,-0.025122370958693026,0.006829896538312005,1.99
-0.09894682911092871,-0.05763947570151606,9.784314749097565,-0.012161714666634967,-0.009235706883551638,0.0027082849121951593,2.0
0.06990604153395749,-0.048137926449694945,9.672113391012166,-0.0076288930880615904,-0.012224449532104607,-0.013449171308777595,2.0100000000000002
-0.14025753810405014,-0.020219873668561133,9.911963959845618,-0.008844845429984774,0.007928761062325576,0.011583144736873286,2.02
0.009897723407386002,-0.013326537874217332,9.975153264546268,0.008210854244301383,-0.0072178361091870934,0.002061093780604522,2.0300000000000002
0.10953698732737988,0.025215344721232137,9.754269346837543,0.0012916699194145962,-0.0033521099226759884,-0.013801810605089811,2.04
0.048293374257101424,0.10381471878002593,9.814651556253738,0.007116364905423554,0.0023758246393321956,0.013856196544883325,2.05
-0.08669298441004102,-0.016335467807175843,9.880273441945459,-0.010950790165609054,0.007794140009714165,-0.0029191717968125525,2.06
0.14296182594986276,-0.15660729071083226,9.888929579738443,0.003865040006066556,0.006970010078575669,-0.0010007302574217849,2.07
0.21059242321702876,-0.004617646847299271,9.783157787950156,-0.00857974292475084,-0.009966947627120061,0.008342006474430182,2.08
-0.08354777356892361,0.06801984548561867,9.95494373203745,0.002235847211770937,0.00041603334176417415,-0.008290217604632702,2.09
0.014138171248992339,-0.0628672225965123,9.648897103429018,0.016301435386791484,0.004886232928948633,0.003944969054476332,2.1
0.03140246569296609,-0.19839538889833108,9.985811959473313,0.005478344014579749,0.018534606111704273,-0.0035765795235278854,2.11
-0.06605720540563119,-0.1435752777648726,9.828629505930191,0.011170721069328282,-0.008570341776994698,-0.013151696595709679,2.12
-0.16315094761310506,-0.05183333226737496,9.844758771633122,-0.005991102181410054,0.005374041486031714,0.003625239088201944,2.13
0.0085919545651859,-0.11898362087060875,9.692472644252511,0.014470869237119937,-0.0002495613437462077,0.004009004632867611,2.14
0.19878079151976838,0.03579036001079475,9.748460858508075,0.015723936694459505,-0.0008734164596090595,0.015284055298143384,2.15
-0.043736083663652586,0.17557683345497163,9.98923572296443,-0.0004597244088537558,-0.01813192474391481,0.011465255137120137,2.16
0.00683559442978529,0.06048886328353767,9.826391908058602,-0.00023903496257938827,0.0004075585896071188,-0.004248776764720286,2.17
0.012183091381804512,-0.13862461563803546,9.778529483017584,0.004180763476633976,-0.0006408844249163311,0.002974783545348614,2.18
-0.13534817520883652,0.06988162805673435,9.744370217340087,0.006241225739484454,0.0054735797347136295,-0.004015914703462394,2.19
0.017715716847719557,0.014182952184398323,9.722832825959632,-0.005523177179614988,0.005802355207490994,-0.00042674459363673374,2.2
-0.12584972062978986,-0.05387251119824317,9.630001970844289,-0.0036289204296972707,-0.011849615195298565,-0.013968553918344203,2.21
0.008417331647389047,-0.1175845893986019,9.645220230103817,-0.010127569389246914,-0.0001873795529493625,-0.006794319895151754,2.22
-0.0982594550296631,-0.02001108675911896,9.864223081025662,-0.009339421547545843,0.008002911233342134,0.007815277188470643,2.23
0.13783020141861044,0.12528031352964658,9.970860446051976,-0.005455674994089333,-0.0033702314556425246,0.002557239002916331,2.24
-0.03320470047498696,-0.07603159390415609,9.637917948456476,-0.004910891076863822,-0.002893928384850613,0.003002278441885307,2.25
0.04633796570845759,0.03994465223127326,9.661444206523615,-0.0005728024561115402,0.016318254539791976,-0.001921999796236036,2.2600000000000002
0.06606306281420049,0.12868555748985405,9.740592773858356,-0.002268893800900785,-0.008938678424847205,0.0031553203892336007,2.27
-0.05655869946966466,0.09800105014074392,9.690372077451848,-0.007997362926874333,-0.009627702815527547,-0.0013449834441204666,2.2800000000000002
-0.03633138146604081,0.07129536953675285,9.826862455167731,-0.014367259009722315,0.009664823732004316,0.005986864982247153,2.29
-0.0542304730308315,-0.14444972347177734,9.857276805319804,0.004832826326239271,-0.0002307532607586999,-0.004710150687336971,2.3000000000000003
-0.05673104511132457,-0.09085127862306233,9.948369524907207,-0.008235209456123724,-0.018819991824668016,-0.013452047842855608,2.31
-0.095174623052151,0.10185895864981159,9.934757480107628,-0.00950748629691486,-0.01261359057666726,0.00850581385755656,2.32
-0.03239927326135605,-0.06846067408972081,9.745552918949484,0.0025348540577966737,0.00039918317145133707,0.013969737553407455,2.33
0.07115088553591725,-0.03652174757645641,9.701200291077779,-0.0018795516280232603,-0.0053981667765043775,-0.0013831666478411398,2.34
-0.16894615893344034,-0.09222907840799617,9.739609646449832,0.00044015271099584106,0.004008249285561425,-0.007294428176714356,2.35
-0.03790507755897373,-0.026698908739858963,9.787083883850354,0.006135503562108284,-0.0048881419056227594,0.0061686446205546155,2.36
-0.1274708215026523,0.054026744819457545,9.849978471573321,0.011444326726192375,0.012188961784448005,-0.028120386594907107,2.37
0.08110962488755995,0.1815418728710977,9.89867698677129,0.0003267385198168231,0.009629660813901939,-0.0068182209352381975,2.38
0.05648588486185618,0.043024508726762084,9.791575261798574,-0.007223870037045225,0.0013536858386138193,0.008232975253735467,2.39
-0.1286602683580794,0.09289000492899899,9.745777456358494,-0.0009356668639521728,0.0064736629886488406,-0.0069554219999448455,2.4
-0.08647384206234345,-0.11492297198653914,9.820901009175218,-0.0007579638703302891,-0.003640801692625214,-0.00798365872030656,2.41
-0.04441197479032729,0.052045777559094786,9.835482195879102,0.0047449969473533846,-0.009878930728664548,-0.0026760157130394624,2.42
0.12816068059885252,-0.06063975640067111,9.871378623425663,0.002398105343521644,0.004786270771120427,0.013782264253097254,2.43
-0.10733972064681302,0.11811067835499452,9.78862699084567,-0.002813947088637259,0.0014591667717001496,-0.026783524659205797,2.44
0.0019275430929447926,-0.1009918417692871,9.955986597905108,-0.006231164076289073,8.812421223100657e-05,-0.00500302863991696,2.45
0.04324937757193233,-0.12104698186086259,9.699364781250615,-0.0010256686121646523,0.0018513701373601109,-0.007067456780761558,2.46
-0.08297054548506386,0.01108012183841782,9.683793658879038,-0.001866356155579738,-0.006665913152434124,0.002323035952583917,2.47
-0.06954436245012281,0.13095963167143462,9.839508304908323,-0.018665732509198698,-0.009173041546925692,0.01645240069884964,2.48
0.23619021917512728,-0.0836537362527177,9.904606181685818,-0.0008517392231280017,-0.0072247360378533835,0.01511746210775524,2.49
0.08544018220051841,-0.08313524483728085,9.720141065172916,0.01651845736003814,0.004202893710372819,-0.00061559844773423,2.5
-0.03490653597329897,0.06609272701843988,9.71866408710901,-0.004767256527213082,-0.0018957973258795827,0.00936458018778876,2.5100000000000002
-0.0672504243451638,0.06251548678142488,9.892035936237189,-0.004523058090444862,-0.005424824641651997,-0.004436070620603159,2.52
0.0029210775545928007,0.1176928944728468,9.844635630229355,0.018081005087766843,0.0096976918676623,0.012359406325460525,2.5300000000000002
-0.011335346914572105,0.02356627305401959,9.893569657988552,-0.009512710399292856,0.019180601177766085,-0.0075133316582113975,2.54
0.05218449863900318,-0.000944453539363948,9.855285595577877,-0.014910585214562075,0.0036133098866712476,0.0027351972940384524,2.5500000000000003
-0.034095235846195074,-0.017821004244418476,9.691478027190984,0.005436325476851099,0.011795899438541528,-0.0027865147621745456,2.56
0.1110968917053913,-0.06391593325313508,9.791494286757189,-0.016364961454131535,-0.005352294375775805,0.0053359138588637105,2.57
0.010613480773722806,0.01199298629760822,9.90754667461948,-0.006041378878154643,0.008763069567302405,-0.0008850146477304385,2.58
0.07211518987295251,-0.2142268726760214,9.797466354820871,0.002819288910626759,-0.0006897298690707217,-0.011062923718161486,2.59
-0.12092942218731464,0.044270750431101916,9.498709347113817,-0.008725321210119983,-0.00027079320751154866,-0.006493084443300517,2.6
-0.13550649030336823,-0.11642282994261031,9.835403478452509,0.0017796693917966472,0.00764504011683722,-0.002373864590382759,2.61
0.041447934958226774,0.08067055701575059,9.712198866874491,0.00019735116506215921,-0.003042068190485806,0.00959506877409298,2.62
-0.029708230821445865,-0.010711386082740205,9.810614630429457,-0.015485489289183875,0.0018063830735321493,-0.007674230519733144,2.63
-0.1650060428177017,0.09967245096942765,9.728553303780457,0.009920366139694834,-0.01562316026915966,0.0022892042140181634,2.64
0.09716494025278352,-0.12967662950430672,9.876486812263057,0.008055528768165713,-0.00858648775435008,-0.0036777833735067633,2.65
0.07867895861883009,-0.039443255690794043,9.892251741717288,-0.0028766565355663864,-0.0040492132715462354,-0.004318617680267314,2.66
-0.0009846535806747514,0.1528311470946092,9.895750989557449,-0.01478005615284932,-0.009108846468661539,-0.0031758443683713063,2.67
-0.016940176092277406,-0.03615723566890866,9.785022618418267,-0.004494911464983485,0.007217245725966162,-0.0030525517934923293,2.68
0.10028678428747749,0.21599486247550118,9.750713348488068,0.008156285307596076,-0.0047360036955558914,0.009090588288045995,2.69
-0.09130682857447975,-0.03617029755567768,9.595151357065436,0.005870466829449488,-0.01248184084277089,-0.0027479121833491062,2.7
0.0058564090780663354,0.09787738730726901,9.87464245152082,0.0018927856681319967,-0.0010113345234973256,-0.006506081217362737,2.71
0.08960903007831907,-0.0380316908604715,9.797387787802515,0.009512051475596086,0.011813350346135829,-0.010556271625623805,2.72
0.13062047763653528,-0.18549250715672183,9.869524791515332,0.00627104419812515,0.0024362232276302852,0.0045508555071195255,2.73
0.01484974678380075,-0.024522095868285042,9.936494555313374,0.0029409637639599196,0.009206704827793184,-0.024128048299886934,2.74
-0.016235296198580804,-0.001771148793631991,9.693958918068581,-0.012229433787477111,0.009017196315644864,0.008498216224326683,2.75
0.16768676276456948,-0.11060120977182818,9.609855595160052,0.005194104920856892,0.0009605024323335837,0.01755098055885679,2.7600000000000002
0.056595301924432066,-0.0030540174828026442,9.832190854054875,0.006603413151473815,0.003039893799519424,0.0032265896695311646,2.77
-0.025726517125470097,0.023376134392889103,9.784327771499846,0.006716520193522965,0.018928277707668913,0.002751319375218036,2.7800000000000002
0.054776497089965154,-0.1127866426024205,9.82603590496946,-0.01842785047943538,-0.01763315750742024,-0.006921222157176259,2.79
-0.1948186978724922,-0.22193080816168853,9.834365636111816,0.008921516366498525,0.001598781336939637,-0.0023964277715664015,2.8000000000000003
-0.07373238521644525,0.04838637605497591,9.76298293124869,-0.006506991183093489,0.009303858331965696,-0.006696992028992391,2.81
0.09412610030422647,-0.060905299918289024,9.79728396627467,-0.009342564485608575,-0.005078130215348114,0.006360734074507292,2.82
-0.1268435793012875,-0.09518598807317397,9.754566075886455,0.00946879959414665,-0.009278947591331105,-0.0038512069062378385,2.83
-0.04088452901974391,-0.029015966526587722,9.75294162046696,-0.0032364849555245137,0.008564104379761869,0.008179149581453398,2.84
-0.20840503475996963,0.11725896869906699,9.813594483501378,-0.02465345346570201,0.004336734107669487,0.015906402885939225,2.85
0.1817457733520347,0.011512963751805794,9.867085813276683,-0.0016483061084238413,-0.001482766865758137,0.020805019011068807,2.86
-0.12495176767714067,0.10448027111829679,9.983223732055635,-0.011431110507580767,0.008817978958200438,0.006763283102768326,2.87
0.08409463734439301,-0.06247184200248505,9.745614158935597,-0.010413276171191277,-0.009238207444784052,-0.003701713169581356,2.88
0.07624477823875865,0.07514552229631694,9.694810378977918,-0.012001400718337949,0.017583858045325557,-0.005137056126052279,2.89
-0.08161869179553052,-0.09265143391028664,9.869349605776996,-0.006349395843310146,0.011350383972191711,0.012636507095613514,2.9
0.00505863555035559,-0.2469994418363017,9.966946884797293,-0.006049997815745817,-0.008497921660696186,0.00199944531678674,2.91
0.09129474125713574,-0.2181749596992409,9.62665672921175,0.0213586671731346,0.010880429153835344,0.0006452774060534683,2.92
0.32786578483163087,0.12353741030039343,9.891490289965434,-0.021883433142193234,-0.00030773272018636065,-0.010220974415404115,2.93
-0.1716130172341788,-0.1775407064829973,9.739314445675106,-0.002071883412782594,-0.00461946009821552,0.00903048179967412,2.94
0.017809313659594178,-0.0803453740974476,9.70658036649958,0.009997115837768203,0.013421051864591143,0.0002008830357255645,2.95
-0.08487221728185637,-0.12541830145773086,9.936073122803,-0.021282218473113765,0.010291431057629054,0.01626676208624563,2.96
-0.04056186996651914,0.06193263279826994,9.870010074249809,-0.013987687298982945,0.007521674364935051,0.0020188534745597397,2.97
0.019786244210795344,-0.0014605190412805044,9.767598371456046,0.0027798613046861906,-0.01352259988323662,0.0031395169446729603,2.98
-0.04832166463558882,0.03406138336799926,9.865756977434229,-0.009555131809629911,-0.00273983845129179,0.006924263121705338,2.99
-0.09354959735961658,-0.0017501210890307744,9.727858847421867,0.00017227790056767602,-0.007251328632826826,-0.004731582580437478,3.0
-0.0951751459504505,0.014177384696230111,9.684630808858774,0.00525157891934665,-0.003878619632303248,-0.005773173794935099,3.0100000000000002
0.064652958178553,-0.14635238849441087,9.783644294066255,0.0035536464127276387,0.011539386277891892,0.013740657984271992,3.02
-0.1225613727168417,0.1434631848410613,9.813625940351313,0.018643381270829422,0.012406273136013495,-0.017813180625734903,3.0300000000000002
0.15357733769308823,0.039688578676735066,9.905612989900732,-0.002096791832281821,-0.004251786277151337,-0.0008005992121443194,3.04
-0.02995802810255434,0.04810785704149748,9.817434161431745,0.004523724744061837,-0.017150805716947725,-0.010849414896837401,3.0500000000000003
0.014195387464053327,0.06368902368758834,9.884613965447475,-0.004374260999095169,0.005486133615585598,0.0007738541431514093,3.06
0.05539735246919382,0.20844784969505545,9.796355957926554,-0.013696905848082487,-0.010885021449437792,-0.006953393777059491,3.0700000000000003
-0.02471890205823,-0.018854022603499956,9.90360811269984,-0.016432777173339363,-0.010241528548523152,0.014937976149656945,3.08
0.15981333731603592,-0.01627268079758086,9.711330300811753,-0.008330366233181582,0.020693352742006513,0.018415550962969773,3.09
0.2168952749720098,0.03667404461893236,9.908488006345584,0.015449952027792369,0.014108339089069591,0.011456914677775529,3.1
0.20129417520283155,-0.10339131045499624,9.58560863158862,-0.005569732725745016,-0.008467017578838158,-0.004212188114208208,3.11
0.09802613140272894,0.01569366250994905,9.863910457644742,0.005576387129667841,-0.007257493893517262,0.017121384834145208,3.12
0.006744592277292416,-0.0242167417645756,10.012611728388201,0.00333422809645126,-0.02342118277097999,-0.0017357137085971949,3.13
-0.050564968996123554,-0.057400226141625835,9.725313287418965,-0.0023932639518136232,-0.023831942183264065,0.002153865229407012,3.14
0.08662874130641086,-0.11321252065858073,9.85009283811026,-0.0018011881995463053,0.021429723865632366,0.01640780890237184,3.15
-0.019176523700695405,0.016522777115313032,9.847214770642434,-0.004882793524379558,0.006041281771793265,0.006924858432139049,3.16
-0.028881662558453598,0.01522782476688164,9.681875163810858,0.006635167271019827,0.005407011655852095,0.01011317480450026,3.17
0.11283595513435454,0.13073520015519446,9.780414185807894,0.025834047878449815,-0.00021921858356284022,-0.002924229767012365,3.18
-0.03761200661892046,0.00043243819501758893,9.73335819883623,-0.01113296004520632,0.00784574283937913,-0.007390069999700542,3.19
0.0420937974088092,-0.032386556096114266,9.81620444206793,0.0068263684322296,-0.004436613282567679,-0.004417036858777827,3.2
0.07456736873317235,0.06427675991007417,9.832655884448634,-0.0006695062704825883,-0.021242692158407565,-0.0008902112690059398,3.21
0.01591239525707616,0.0340971500846882,9.915792174919824,0.007202238198771003,0.008196326422723286,0.00010131021857540553,3.22
-0.1317524101669437,0.09244086645120118,9.879547713401648,0.00234923492808857,0.007001843709755698,0.008813360173047706,3.23
-0.10391087394866749,0.043833852471708096,10.047147303297116,0.010968918353563553,-0.0026853267301773613,-0.003513854812082744,3.24
0.02367142918175059,0.1109835840939571,9.736384892160416,0.019118451124961716,-0.007426627149729144,0.01771375316641166,3.25
0.0590679674383774,-0.14108560342175805,9.946936828113351,4.71924566737943e-05,0.010717391572952636,0.014326129586626369,3.2600000000000002
0.15289964957603577,0.020723433000790777,9.969243023160242,-0.016898663590923155,-0.0039872002377789465,-0.006923829074793708,3.27
-0.05623195437082101,-0.00724040262771675,9.958633390165183,-0.001755994840741567,0.009932648058347128,-0.008497027300525668,3.2800000000000002
0.015257621875364094,-0.16530350826143447,9.728196214627037,-0.010110040374768495,0.0009457064553379935,-0.005667073666162223,3.29
0.06715520856663638,-0.15942894222593174,9.758824119807478,0.020552520803522198,0.01723441455813001,-0.028865511530050108,3.3000000000000003
0.009964913215168222,-0.04266130442126766,9.763153246326858,0.004836131555600779,-0.003087178302303446,0.010119394126751249,3.31
-0.059497432047316196,0.015339238506040987,9.742178330185887,0.004123634640147676,-0.01726917498996318,-0.012227713378966505,3.3200000000000003
0.029134794936897863,0.028762275250348524,9.739053428528658,-0.0009130813857689639,-0.014241957330572614,0.0019836709738482237,3.33
0.12671864518161643,-0.05052464995776595,9.570652051858483,-0.011182334384791904,-0.004338890465398429,-0.0016514598435692508,3.34
0.10555878977589589,0.02774309034135646,9.928114408332858,0.0052362740425171295,0.014725255262309866,-0.0007372611205582945,3.35
-0.05869938819740758,-0.10378436370834276,9.75788268147932,-0.005015461091021357,-0.011774935869334473,0.0004673901529869142,3.36
-0.16604879281284257,-0.14088742922460848,9.726390823196962,-0.00024040457745836533,0.00880149023293744,0.0017875057063202852,3.37
0.020548390054103523,0.00847286837240177,9.71826523721448,0.0012111364674131772,0.015761413962994155,0.018180399851962743,3.38
-0.12675147232894723,-0.11071144856661214,9.744102532073486,0.005509271472411125,-0.006185743762693973,0.0031509053425402135,3.39
0.22812404347673365,-0.1326237549436549,9.657023899773,-0.005409334387123162,0.006971546217644025,0.011231910904799603,3.4
0.004637001667801944,0.08277465386577693,9.747220267348371,-0.002755286892267301,0.007570730642101108,-0.0012074930372128446,3.41
-0.017418582163955736,-0.12447766455818841,9.756362848752685,-0.00832204956570595,-0.0029762226566277003,0.004713350351725863,3.42
0.05119305687579097,0.05307839378335704,9.828162873168068,-0.015138852859758734,0.010851608380668485,0.0011410503635877712,3.43
-0.032304559307485624,-0.10471123648617836,9.93042277286389,0.003843038219184298,0.008491684375659314,0.012552272442941293,3.44
0.09778847705678911,-0.024678326465872216,9.731176090432578,0.002900503906317396,-0.014679584360695434,0.003624802567569613,3.45
0.01723541642852156,0.047747497627055435,9.733630033130263,-0.00018344644047616325,0.008177491853028428,0.004840911530358672,3.46
0.09297693520616788,-0.06907668108524491,9.65976588030441,-0.0013295238592135731,0.0026581225146586453,0.0057994238193034685,3.47
0.03210719006113621,0.04465682455514054,9.729146000462393,-0.0046593424049403654,0.016152567323027806,-0.0032243128399305804,3.48
-0.10214631951372627,-0.0018517923284569462,9.761066379540294,0.01108971407844423,0.012659847800656312,-0.0033547971158177582,3.49
0.13625858760840268,-0.03196584128107479,9.670721177062328,0.005869981966366011,-6.0287465335331886e-05,0.010145138942104701,3.5
0.03651622757213503,0.0036545037222149657,9.866173055623566,0.008090592187462782,0.005819950868582215,-0.010034862249319565,3.5100000000000002
0.018966741180388505,-0.0995812755868204,9.742419147383771,0.012641066952773936,-0.01910719072002142,-0.011843945154657426,3.52
-0.02494234982962049,0.14139751144571405,9.883635916625456,0.009387561993485317,-0.012615077045196559,-0.007609299080943809,3.5300000000000002
-0.10964637475581684,-0.04301119455293146,9.803392572285619,-0.015921016312269384,0.00039060582373267103,-0.01048590970913359,3.54
0.010199006352698999,-0.022352338947004384,9.794347852335633,0.005679475387889665,0.01703826443873612,0.007435906648099347,3.5500000000000003
-0.18768145502997746,-0.05426964887937244,9.736198575191143,0.012692308797152715,0.00881298953023654,0.011932877409536418,3.56
-0.04547844220961536,0.01942695455671307,9.791563861601684,0.0033724123669238667,0.002241704359739562,-0.0006513776333876593,3.5700000000000003
0.04179791531234421,8.86794307539282e-06,9.873194750860174,-0.0014544437201081844,-0.033823797605634816,-0.002019146465048686,3.58
-0.018480826469948943,-0.04372455784757168,9.630952442614825,-0.021858157059587935,0.0006077082927715976,-0.0008010101646255961,3.59
-0.04083057259418793,0.04028351027398502,9.714233176009008,0.006259581096383225,0.0043740979624146865,0.008731586613476944,3.6
0.07294069776102138,0.04651251689141789,9.707906520099712,0.0016596268558988789,0.005409535510360941,0.007217877400633899,3.61
0.027070658495928063,0.06819248523753273,9.843711986831577,0.006812867631823034,0.002710525553567677,-0.004232089790482191,3.62
0.08120217218440759,0.03979505108487783,9.772335385374136,-0.0009093070791151754,0.006603087817078908,0.009066832313157611,3.63
0.10035543187986491,-0.09081142525953653,9.869384144710288,0.012141793083239523,-0.019073271329971258,0.009926526950735546,3.64
0.004338246976135926,-0.04898520178997445,9.941603531583414,-0.005701304036370299,-0.00748232766460715,0.004407379369822426,3.65
0.14810820412265596,0.017326896485263213,9.773845407341017,0.002699921766758992,0.016086848427159572,-0.0007055589634766445,3.66
0.17577276313749762,0.1000765338815548,9.770846247260671,-0.011723959559468054,-0.010577390162985794,0.014580527503304153,3.67
0.09721684062598418,-0.06257251620927717,9.727488766993295,-0.0023590813318196254,-0.004696680129117794,-0.009466888878317493,3.68
-0.049135395705698005,0.04925734314427998,9.822095175186048,-0.008371523240792645,-0.009528831542586404,0.012173621611098953,3.69
-0.11140790139946131,-0.08791433026237519,9.709100050704485,-0.011508714188614589,-0.006409360095006201,-0.013384782502389793,3.7
-0.1401104528359781,0.041467433055435515,10.079040698914318,-0.0014641446804565257,0.01604440789476352,0.005968664481426379,3.71
-0.10662961870945656,-0.10428325864668303,9.606295932251628,-0.007090817404919898,-0.0031011483690923814,-0.009940889124212392,3.72
0.034169319655045674,-0.0053032268645351556,9.801231322772326,-0.000555675308157985,0.013158520617038354,0.010171947482823554,3.73
-0.14481502364014906,0.0591844564368066,9.72913989638493,0.012310146102805813,0.005267899234334944,-0.016323394226766874,3.74
0.12912268397631785,-0.022205656367112935,9.678049384323323,0.005521891490769078,-0.013527923372859208,-0.011948147743636174,3.75
0.11609457233335702,0.014307962816310622,9.829401501068403,-0.01279600457084738,-0.0030458359168434998,0.014894927085324488,3.7600000000000002
-0.0983578091081681,-0.19079682164612907,9.769700777042772,0.010828993627271022,0.003471281369688158,0.0047888809594334595,3.77
-0.015431213863238312,-0.17040734873591057,9.697846428185597,0.027657430800436106,0.005463421016250957,0.006981378421683408,3.7800000000000002
0.2779579167986437,-0.1811676258087528,9.855168577400761,0.011108863691970686,-0.01911721667412801,0.010621370020592727,3.79
-0.05199792961370686,-0.005845260521816211,9.824099097111151,0.007408990247799791,-0.023649309397071307,0.013365919885079599,3.8000000000000003
-0.002976031999283849,0.13762974857846857,9.80747869632403,0.017292114992653946,-0.0008483009387302911,0.0022487852273476213,3.81
-0.18664129774263774,-0.07336192118414735,9.661795471217932,-0.008098551863633794,-0.004201676351810736,0.004642538958964224,3.8200000000000003
-0.10797570141808284,-0.09661543653765936,9.826238738354812,0.024899538612045583,0.01510541499033278,-0.013694958177140889,3.83
-0.12087171830457571,0.0017515959652189316,9.86527130038789,0.0023651278096052746,0.008521361478590212,0.0014424878607588972,3.84
0.08514705225562386,0.09741728108585233,9.695614207418268,-0.0030405592357287616,0.003610498273535354,0.010314164952612835,3.85
-0.02577345034026018,0.06181728862559996,9.843823528988688,-0.0024862154795336523,-0.008461474998365446,-0.008329016692941664,3.86
-0.030911109692680544,0.11155069023280338,9.781624095616959,-0.007030219728671011,-0.017353604169400582,0.004015097649472787,3.87
0.1330248487690153,-0.06735595491457551,9.774120547943992,0.01179374708496071,0.012045528855205488,-0.001868991945580658,3.88
-0.007323717041127751,-0.19296536257530267,9.925706889909822,-0.020515306785661852,0.001190520271500761,0.01965164240343889,3.89
-0.09954366006492212,0.1442405341451368,9.79294940947384,-0.02190239368588909,0.0015746910980256221,-0.018327357142247768,3.9
0.020796871426620202,-0.04286547832224361,9.832927223635316,-0.011273164918330773,0.020866880158074967,0.0012552795032868694,3.91
0.0051939137812897175,-0.043571833121679004,9.870017703919729,-0.0008892055148620165,0.012244784735968711,-0.0128310216944061,3.92
0.03581902252409985,-0.07733995299564184,9.969807133965991,0.0001540606859735816,-0.01258387128016156,-0.006996543291317578,3.93
0.07845601996215344,-0.09503708439956021,9.538277804536994,-0.0021720762357290736,0.0006727621102328712,0.0003961521062343156,3.94
-0.17354882755143752,0.011801964633222507,9.870160519107818,-0.016901684349919854,-0.0027404375691819512,0.0036864195259456996,3.95
0.05137516329960715,0.025047877807186737,9.62701663340186,-0.01370493071782954,-0.006014282819295775,0.021930764253258243,3.96
-0.09494766297395929,0.11847406245212294,9.941907243480602,0.0013822077454552616,0.0028808788206711833,0.001642740263416228,3.97
0.07809662266734614,-0.10579307590268601,9.904991487909914,-0.007708804545933712,0.007255732781150782,0.017210459294845364,3.98
0.015760135830247195,-0.0038411906853213214,9.749065685532923,-0.0009350267759311624,-0.0008625443736749072,-0.013140431645929795,3.99
-0.030791681910209735,0.007163140307321449,9.8832460783494,-0.007868258769588972,0.007874984486987868,0.012971507294264337,4.0
-0.02754772739267536,-0.07996220584513436,9.811740563117123,-0.0039057381192319513,-0.009128913242046587,-0.008420877798577935,4.01
-0.14029499990456806,0.0011585378121530608,9.840690463398191,-0.022343517608398443,-0.005152817717382704,0.0025414056340905596,4.0200000000000005
-0.058340351525643534,-0.11770000139138632,9.799607759580503,-0.011529720964185102,-0.005052930142133114,-0.007817960360732715,4.03
-0.02108820156571352,0.06291053722991997,9.777559958730366,0.029606890741334616,-0.003071712479237651,-0.006905949934032088,4.04
-0.017988480687703572,0.09857636831424561,9.753382655657456,0.0017384134625694728,0.013129726178800948,0.023662090662122784,4.05
-0.06608443965339958,0.1653695581443274,9.984939286784144,-0.00197936602908014,-0.015135091148748721,-0.008433913098575541,4.0600000000000005
-0.16778942846413863,-0.09324998770752471,9.768190427907387,-0.0027440031421887613,0.011563647036766525,-0.003132431402971304,4.07
-0.17935371371674247,0.011153291532025954,9.783741579846879,-0.021153698206021112,0.014009607211699821,-0.015026253666877841,4.08
0.03171288317029307,-0.08273938844858089,9.911358107951472,0.02670127774014712,-0.00513099831187118,-0.001184119862577093,4.09
0.0027482330281856913,-0.07846471860958154,9.8976149859813,0.019198539437649608,-0.009603117167188006,-0.012456778495684877,4.1
0.10458861317191259,0.08886778747029252,10.008085793269728,-0.0006426216847426349,0.0034810949537533976,-0.00874300922939393,4.11
0.13486051190162793,0.04710822948061716,10.142116594282731,0.005296808927071631,0.013441038293134127,-0.0033861847196847827,4.12
-0.04954296340775936,0.23901202016004094,9.815255017453996,-0.016553565593789444,-0.018569650018477216,-0.023537245744958652,4.13
0.03487895189785773,0.022080402430877485,9.949337001862247,-0.018408718423306155,-0.0084126656183727,0.0002947058566654481,4.14
-0.10976945749954614,-0.07101646430348618,9.901303605629083,-0.008135715216301038,-0.007316587501570507,0.008267041682274923,4.15
0.10132755148027746,0.10360222734755811,9.950969922988486,0.0038764668618074256,0.006434176229467167,0.009638645085596588,4.16
0.0993634488381328,-0.11131011552207078,9.940467847096972,-0.002278729460479514,0.0011589867235033862,-0.0035843107210388227,4.17
0.10558692766697685,0.016782994220073028,9.79030827978249,-0.006731331213482083,-0.003400050284744251,0.007006552748476001,4.18
0.09118044415676908,0.07441692915917714,9.973479081489065,0.0091174649899078,-0.0007227337824090574,0.00924703663430308,4.19
0.08036514043084747,0.10639658661072247,9.835050428570293,-0.0014829921475755852,-0.014110522430565169,-0.00538744893006907,4.2
-0.036847880342601044,0.046555707282546085,9.749928151862939,-0.00895632176468252,0.005913929298197744,-0.009488957318661046,4.21
0.0774850705269393,0.0547592332171809,9.812796377491303,-0.011872070068855474,-0.0026232617081521224,0.008188472998796902,4.22
0.045509724221529525,0.009099758087550215,9.886231545762856,-0.00644164006623281,-0.0062363266058396575,0.001283626916999392,4.23
0.006489200235907056,-0.06385505680928812,9.87154461481304,0.016592312739193676,0.01221416254884772,-0.009979850847619048,4.24
0.03261389517405401,0.1441823753896984,9.980059058805862,-0.010064801315658978,-0.010857670974900906,0.01923443888082627,4.25
0.03660471810655105,-0.0925511657658053,9.700740182428648,-0.010580630918268313,-0.00713524770691208,-0.0024141028545392428,4.26
-0.02599415196467906,-0.10546294865556677,9.811211422526071,0.0036861838812931387,0.0061900927684577205,-0.005485933090698506,4.2700000000000005
0.12802651614569444,-0.09538172003230072,9.939977119155644,0.013247456626325467,-0.016624804262311547,0.00021114369410486753,4.28
0.06019642515232602,-0.2421228511679766,9.751476650464292,-0.013195289876917435,-0.01223205278254107,0.016498549163061697,4.29
-0.12466793970326018,-0.14980836054525035,9.813266429074348,0.009878784863543237,0.00724978329659448,-0.01617898222330212,4.3
-0.11611063460338039,-0.030419931854072414,9.931560209299075,0.007418608834899602,-0.009384487317822465,0.0070652146714865255,4.3100000000000005
0.054618126891777044,-0.009062530534247682,9.766971506162584,-0.010652866666773637,-0.004173967195377108,-0.01673100603845713,4.32
0.0710333298350046,-0.12913866106600672,9.932543603059488,0.00037466768147916707,0.0023433559524918706,0.00028842220503431704,4.33
-0.00562404142373446,0.06207287095033298,9.848587540525768,0.007379085449616747,0.00042840685516169644,-0.0015674799185048658,4.34
0.017789028782795393,0.1180762619472659,9.793002437049786,-0.006504128573590612,0.01109285583886716,-0.004068647053243794,4.3500000000000005
-0.05866300329108007,0.11386923846044711,9.858839712539865,0.007798582638590165,-0.0024023454049108516,-0.0031833963475175796,4.36
0.08482512194736071,-0.09373770572727246,9.623036261004428,-0.001866604897803637,0.01139233923742212,0.007293104310080092,4.37
0.08102178139394406,0.0717422998093644,9.748130370201407,0.010894108773610614,-0.007680548652349821,0.009041725474637363,4.38
-0.008415070340890117,-0.15904201608317814,9.867644422807896,-0.005167076629270727,0.009691508131891777,-0.0011832912133406916,4.39
-0.09833802515608331,0.2369306170445097,9.770423579033759,-0.012915226535785704,-0.010113560154770735,-0.0008412429438564062,4.4
0.023137687963122332,0.020953007565060532,9.744214662333224,-0.0045443887605936375,-0.0013956995493448407,0.006787123581501935,4.41
0.02925725001799482,-0.10171876525765965,9.85691831444449,0.004945739928447233,0.0012327686681227396,-0.008736540907798698,4.42
-0.03089278737996451,-0.09251184393266332,9.873327249984033,0.00024144302756865137,-0.008562135258678603,0.002604362336558885,4.43
-0.029993589974426207,-0.02358827643438611,9.792358624791332,-0.010686430299051395,-0.01927409429720107,0.003057840653398082,4.44
-0.09069137581323722,-0.016763958314354437,9.837143455938474,0.0030852783467306484,0.02005820279730833,-0.003234960709605875,4.45
-0.032680510729790564,-0.0808051214361531,9.853559981582926,0.009272232808253622,0.009377233703547943,-0.01899612695932889,4.46
0.00469873397876773,0.0008363522859988097,9.694727840396505,-0.011422074312768095,-0.00801471383158868,0.019225629138048872,4.47
-0.06124284048444106,0.03885637558675682,9.76020516552042,0.005191104564686124,0.005320206789718233,-0.001816018236603706,4.48
-0.04993252965089272,-0.09402566427418212,9.826953816667302,0.009313890261674182,0.01385033895995567,0.022331916595861027,4.49
-0.08580162953851907,-0.07288118416640353,9.869625987776907,0.00904723592289576,-0.0014515665566226074,0.010210188915580197,4.5
-0.01460032455699876,0.02298536442515254,9.773548398060727,0.0015969302901229015,-0.0037803143914142347,-0.006927588209314652,4.51
-0.059839594670561304,-0.06122961078045591,9.708821765714468,-0.0005061560236141962,-0.014087942381371439,-0.006560707002299175,4.5200000000000005
-0.03707362200160759,-0.018273349857441955,9.748350598974778,0.018127663803782938,-0.007402447805863826,0.0015134386778666564,4.53
-0.03558351799014446,-0.031048442488106287,9.82090750888918,0.001702136167955108,0.0005581679484081594,0.004944081011582002,4.54
-0.06930222616736596,0.03835089021305732,9.958438884337694,-0.001995939983214127,0.008680018139053476,0.012948523067829634,4.55
-0.14178464317509942,0.06812868202492567,9.820708818778515,0.013886338325452474,0.015741032619120045,0.005429160820062951,4.5600000000000005
0.027788216715014125,-0.0401635173452058,9.98154594724489,-0.003152669368887883,-0.011510648288044522,-0.000994520248117123,4.57
-0.061629712623062244,0.08082732830007068,10.061536022816439,0.0017322499591425414,-0.0012122718295388458,-0.011405955080998604,4.58
0.03284786592748325,0.1283457689502142,9.782220954271923,-0.006418643180249832,0.0041493152413721755,0.0034260550714839415,4.59
-0.09162411897418464,-0.07205085886930723,9.797683598011805,-0.003265059718865874,-0.0007833408396707192,-0.004577295030417283,4.6000000000000005
0.12056481439486838,-0.0043819143360685885,9.94405112415332,-0.002003362217151137,-0.02515506276743278,0.006165437621069377,4.61
-0.02216418638254222,-0.048908633815184205,9.782149684398123,-0.007268214338060883,-0.0032182254258406725,0.017065988574793193,4.62
0.030960308555468996,0.02941931689777888,9.732279683600682,0.017525464278856543,0.01427995663258236,0.006355048478452232,4.63
0.06581152904389453,0.046015304274875934,9.957353079153249,0.0025305304029120124,-0.006156766023135407,0.02661894723399643,4.64
0.004391784504089709,-0.12830796624601926,9.85539076838568,0.010370804974504768,-0.002882287789802072,-0.00048308139667215487,4.65
-0.024582567716455058,-0.08804443343207177,9.78410484866751,-0.0010698848494271247,-0.005714428655511242,0.00941957462561895,4.66
-0.02093855177370018,-0.045514281724585624,9.783512850868215,-0.0020911661890189925,0.0063856061211906515,0.006801680567193065,4.67
-0.04375688497712317,-0.023991219920473327,9.707352129427328,0.008702355637916628,-0.009159120808445088,0.016566188673159846,4.68
0.10186121728215734,-0.008130660569832068,9.90081353591725,-0.0019035474447204014,0.002666363616524657,-0.015694091286667745,4.69
-0.15163224372390635,0.0725978772775889,9.8191057887788,0.01086235844596295,0.0018432731810362481,-0.013574543997621383,4.7
0.1679066425356361,0.10525935664608994,9.774586232062067,-0.006027764662576077,0.005039261802850446,0.004652422255997878,4.71
-0.1403195004292662,0.024831403934283736,9.639172132089296,-0.013021912524878821,0.020895210171060757,0.0004420185663950021,4.72
-0.20848263523202515,-0.01133151261311104,9.811200157843237,0.003202861443697693,-0.020644332195054328,0.00011518940041439471,4.73
0.030025190687429017,0.036793762929864755,9.861114839923406,0.0036841654838215073,0.01998485936645536,0.00985677633174826,4.74
-0.18926744301547432,-0.10419870470952666,9.88169698041453,-0.029212205838485376,-0.012156969151223667,-0.002923710925092719,4.75
0.03422028721514884,0.049948868388158825,9.91552961453036,0.010725756731051393,-0.005614700506963796,0.0010722081221335767,4.76
0.11196649638909564,0.14938134859473412,9.753976831339473,0.005222906153084342,0.0005926073587954871,-0.0051412869959841815,4.7700000000000005
0.04208281834657573,0.1731643077968617,9.89453780018517,-0.0072465358875003615,-0.0024749157949560748,-0.022756127638942254,4.78
-0.04980863336685426,0.03086805441365097,9.745850351512894,-0.0017164443098704866,0.0018817020279028737,-0.002805137038238765,4.79
0.11948871917597188,0.06248260707181073,9.779811050330474,-0.004250449768002641,-0.006305570644532661,0.016111414143032587,4.8
-0.0019413918085370984,0.0010762253359080736,9.727699615479539,0.014195525641992716,-0.003766553813113889,0.003536514927144187,4.8100000000000005
0.17532212313550655,-0.08846954736453028,9.7044647172669,0.011252356329221305,-0.0038336522466069045,-0.002941426152776475,4.82
0.02823925370210022,0.07911251593435885,9.82829192822404,0.003564132928640213,0.017790201904718222,-0.010009710115314305,4.83
-0.04538892905761339,-0.09888842272283485,9.86232518899271,0.003384112782132418,-0.00018006693562383242,0.012646675931332967,4.84
-0.08213166007977138,0.148185225488595,9.574436329952105,0.000551245132587834,-0.001660675841125379,-0.0012642480684610267,4.8500000000000005
0.0053666556569413265,-0.0885112930984216,9.828576640813523,-0.020917403906466896,-0.00222060407443793,0.005780647467781861,4.86
-0.18711940109456476,0.02757825613584234,9.716741406554487,-0.008873488155608294,0.0015247181281049951,-0.0030395441860933104,4.87
0.06975047484522048,0.07900287161993352,9.84757744943435,-0.012184531051392672,0.0038826781243285835,-0.013571006617431904,4.88
-0.09334706606106663,-0.2305340053180375,9.892245727960841,0.01636109273629225,0.004733687250873686,0.0003300888294998904,4.89
0.05084070248650757,0.08802679408364496,9.966489561035141,0.0017694146824699976,0.0031806495911230405,0.0012618171058180598,4.9
-0.006176430061048692,-0.08937061705499863,9.813390805391682,-0.008784110619041908,0.005322123466962599,0.004378854598291115,4.91
-0.007358796733486446,0.0634820214323955,9.84222531925968,-0.00019558689733138705,0.002161359180542768,0.016548723833642236,4.92
0.049969408680884744,0.11389064172058844,9.788585315204154,0.012585862476596097,0.019761461172174515,-0.007170740480757754,4.93
0.0836863441734414,-0.10361264868443926,9.895663295876101,-0.003992094868921256,-0.00812272349103384,-0.023241979189534242,4.94
0.23937555832943308,-0.12410179393449797,9.932305625992353,-0.01494127962205712,-0.02308387555545504,0.011571126805531889,4.95
0.011713828423931982,-0.09832186420115495,9.586861612684542,-0.007262901372662538,0.015303193743326044,-0.0021485484192833105,4.96
-0.02858093346437414,0.0724356109097456,9.756701627008779,0.007946156674359854,-0.006726782377589727,-0.016992432465763596,4.97
0.05957719509195811,0.08627259507211309,10.053981175673565,-0.003873198299825903,-0.006321536851217175,0.0022581020730130024,4.98
0.10200036318342845,0.010876842949490952,9.91992933318253,0.0014187764703657033,0.011299853586679658,-0.009311119807007943,4.99
-0.10324662234645723,0.09640375615075436,9.693435127089147,0.0140174426981047,0.008865323534178056,-0.00037552879808395296,5.0
0.06298272693147243,0.024111552551830482,9.87484727838907,-0.0038705153450410658,7.184792317901906e-05,-0.02067835894373315,5.01
0.1871115801813561,0.018222390221167256,9.834028797041231,-0.013083541136182287,0.024630467480076707,-0.001599680404374827,5.0200000000000005
0.22819721764828782,0.028560185543822704,9.8480588654494,0.01092073559924087,-0.00417523286925648,-0.013569348835984929,5.03
-0.03578005527296841,-0.07456852503837999,9.832508141556753,-0.0038465001254857933,0.007293155356560522,0.004789769679909113,5.04
-0.09190961575759597,-0.04395903617915717,9.624831886874547,-0.00869711964302055,0.009740787938101141,-0.01852078279773518,5.05
0.11385355400220161,-0.0061758571716919826,9.722577923332697,-0.00555963008207233,-0.0007775543330280876,0.0004931045676139729,5.0600000000000005
0.11313918666504011,-0.017071220098296352,9.715018256220118,0.0059154946152054555,-0.004950550627767922,0.02419862676191831,5.07
-0.12153514586031132,-0.011569129964848377,9.841454897254643,-0.0015548364595833373,0.002694463649767111,0.010392249721396764,5.08
-0.14129925885562178,0.11281462271429038,9.810518148201552,0.009227210791295579,0.012007854717843786,0.002459448328219451,5.09
0.02989431982927961,-0.09247816937544319,9.822631939841914,-0.005654101652114608,0.015548395091026034,0.014249097044369668,5.1000000000000005
-0.16854659020290583,0.042456534626301536,9.791696153625852,-0.004480982031844336,0.006120980373307997,-0.020106645490386515,5.11
0.1432188949659966,-0.07168933879003674,9.802845161956252,0.004578470669319891,-0.0010826490820629465,-0.008743493695407058,5.12
0.05423222894524246,0.09865995587441045,9.858120344558408,-0.0038421531401917957,0.005585422790221097,-0.006622170363369132,5.13
-0.16631520173924177,0.0997352592008563,9.784529029341275,0.007906929019902777,-0.007111426777959198,-0.01353060670345872,5.14
0.031129062383225797,0.03141317168120971,9.79396256442983,-0.0022080766701398926,0.003301470419100352,0.00861218076518233,5.15
0.15695264261243913,-0.03248031058774258,9.702899808328393,-0.0033254446210830334,0.007834386674898114,0.003722318614457128,5.16
-0.07156781752206848,-0.00564782686915629,9.785419429136885,0.006000402679084922,-0.002661388666000233,0.00376369680760841,5.17
0.09722660376411535,-0.04481158824183762,9.656629167700977,-0.0036484111784770286,0.002528807045460269,0.019536091626859736,5.18
0.039450684162154505,0.11113376016417664,9.899672635706123,0.001615770875789635,-0.007049222189803492,-0.005520820680369236,5.19
0.006955640496604277,0.09377702312620842,9.727991133828468,-0.011381753666865764,-0.0019947658682239124,-0.01903080566058381,5.2
-0.08257606095972954,0.15393642066348712,9.816968344819115,-0.013183010999058022,0.004512053300368256,-0.011642075735107565,5.21
0.037758014784442795,0.015281899137666439,9.916572544374882,-0.00016751746688477883,-0.005266769303232133,-0.007354655652507796,5.22
0.21410404744266953,-0.0484373544670077,9.800917737939843,-0.0026763187738496103,-0.016759718198061505,-0.005161072574894259,5.23
-0.05639325408708114,-0.08272458879747055,9.76634657093606,0.012079122142519494,0.01672133541055372,0.005583478957083539,5.24
0.1859692901255811,0.005943936156842306,9.779027056568266,-0.009635426907971626,-0.0008676635559733797,0.003227969212099762,5.25
-0.06446286698055077,0.0005340990844786528,9.83163276256209,0.020827601171953196,-0.011750704880838415,-0.01725934485316007,5.26
0.05443956449886043,-0.012649450036357743,9.633820552857658,-0.01930102958823659,0.002649425281191257,0.0009985045390044917,5.2700000000000005
-0.024555026195777138,-0.11096910372735763,9.803024316696538,-0.010093741066987398,0.001924081832051759,-0.009831275159787585,5.28
0.0792007284217942,0.16707219184725575,9.700678698818592,-0.008688985109841799,-0.007150386167866506,0.008808629920583906,5.29
-0.1918716473621852,0.049657152500979955,9.871136343622013,0.013846159820000382,-0.0037019830513683135,-0.0021278469654316787,5.3
-0.02445811565338875,-0.22067407138321965,9.922988730966658,0.003386577412811301,0.0004091335269147095,0.008016095195451822,5.3100000000000005
-0.08204566308868749,-0.030432448212129072,9.805974898129623,-0.01187096644643932,-0.00311629561637002,-0.02125639505628491,5.32
0.11167892550467028,-0.03026737775100309,9.816085528875409,0.012706634038280255,0.007026907527657829,-0.00933466837453826,5.33
-0.038009041880779415,0.013612462745888766,9.756755373743795,-0.006079194754510129,0.00967712207218268,-0.008607354266770595,5.34
-0.05718501095619635,0.007498572418841065,9.878879694882041,0.003533033379422354,0.001484372623396132,0.011813748615528186,5.3500000000000005
0.10584581145705502,-0.16575644574177723,9.908600248930345,-0.0010545181151839515,-0.0029182810899195306,0.004217725844438063,5.36
0.13644584653318237,-0.008510057596201158,9.935401198812233,-0.018701457162961496,-0.006801001842350043,0.0014066532084191332,5.37
0.15546210400934446,-0.021120082103851127,9.84063680454727,0.006157104597398227,0.0009974736770646804,0.004450126173747351,5.38
-0.2844144105382295,-0.08670687506481681,9.71609985031366,-0.0054987568203243575,0.003693786721048959,-0.0034186013013214568,5.39
0.11149824295378077,-0.05103198243632944,9.822407908425454,-0.014346011944193132,0.0025695224462183737,0.016926917625596664,5.4
0.029430633548838042,-0.06834787568657583,9.732714154249525,0.003477936911539054,-0.008543635691631525,0.016023032983091316,5.41
0.0015061635158499554,0.04665703411877344,10.029263859445974,-0.01021278458645597,0.023340300398071105,0.013645427778390427,5.42
-0.04315067532466338,-0.05821498636240742,9.759068056983303,0.0016513198111861222,-0.0109898050472188,0.00928449590926495,5.43
-0.09604495552427098,0.018882256328920696,9.797991255940584,-0.0020436930261482577,0.0037601012428760835,-0.004417951168138029,5.44
0.1235884002848642,-0.04565815581274923,9.84750941520321,-0.013249668030512337,0.013676965985137042,-0.0026873215981024095,5.45
-0.03350641010435293,0.011061867870042973,9.776774564144553,0.010582804957215062,0.004660037732479298,0.0003569910397192504,5.46
-0.01888180655891259,0.06788077747627526,10.07108142322544,0.004673799741622213,0.0028375537899320647,-0.008804569475980309,5.47
-0.08031757166450351,-0.08309018176627951,9.951994780023055,0.012183387631775105,-0.0004867186127539064,0.009775443891004638,5.48
0.07516956427329721,0.020379278276398537,10.012004196922856,0.006964326860128667,0.008535978413811762,0.008997824648656809,5.49
0.026278696527306383,-0.02057736142054155,9.972507258231671,-0.005030557887883615,-0.01268056358841254,0.007461358379788492,5.5
-0.009927775305810127,0.09603616030284781,9.81308282848635,-0.012052412302340568,0.006584293231471991,-0.000170884603710018,5.51
-0.09402129642473403,0.008900358057048864,9.796871362206359,-0.008034846967623254,0.00530616544118752,-0.002269438576026333,5.5200000000000005
0.1535165041140164,-0.009880382362481746,9.803833320199734,-0.02217659428639567,-0.017275453853121105,-0.005455347176450302,5.53
-0.13836942842438496,0.08301508814371557,9.748731950679797,0.0017776570157810362,-0.010596291138505767,-0.0053762995435612535,5.54
-0.03993176419632204,-0.07400281141526366,9.802225819026464,0.0014610363046255158,-0.002263653382199845,-0.008168832718991362,5.55
0.05411195432150221,0.03077939229684816,9.956526920543116,0.004168849488145927,-0.0003782817608074853,0.004099237131688644,5.5600000000000005
-0.07107428471410995,0.14952054055449635,9.92642665938411,0.0127041322557484,-0.006009088619395729,0.005037784186575551,5.57
-0.09638259111474401,0.018239757953617416,9.614590734876334,-0.010607069053818401,0.0006165142033993092,-0.004005177529271137,5.58
0.09328473257766892,0.07062773594257232,9.844755032256833,0.008962936450900716,-0.0020230496538081225,0.0058909008140872335,5.59
0.012957608085885895,-0.06260264703272389,9.899371634522419,0.008134065838175036,0.011874478587673437,-0.006244890428778588,5.6000000000000005
0.18175587646397742,0.1043660320390641,9.743163369931706,0.007022698495756098,-0.006537837070681574,-0.009216065469860264,5.61
-0.012349231670132247,0.0784561327492845,9.905925311955906,0.0025841010946643962,0.008760293124409641,0.003942077381369814,5.62
0.058257144678226985,-0.08135703005203324,9.918058414092206,0.017717669216284145,0.009071114023021264,0.0062859410773233905,5.63
0.0989331446707874,-0.010674896202115786,9.700984262052172,0.006673735976332749,0.009684374283829305,-0.019488605589805887,5.64
0.09300071710666134,-0.06440120464961367,9.920032966373482,-0.008022924741085126,-0.0013954422178270162,-0.000967977526315024,5.65
-0.0391994627062909,0.04823567839927051,9.795323227074215,0.004592401186437029,-0.0016442785482603404,-0.0017005318485497306,5.66
0.0008298379447612433,-0.20372131418646494,9.851815195775696,-0.003120410509861803,-0.00923017375440688,0.005202991241261933,5.67
0.012099893809158853,-0.09928190156295763,9.737028258655446,3.923866784680383e-05,-0.0008920338809543178,0.002582489479296724,5.68
0.009499475339314254,-0.0053184653415053705,9.818318085441012,0.00934424584564939,-0.00563138927234037,-0.0014282867136283198,5.69
-0.05147669234074162,0.08806079944570377,9.830604403426179,-0.009821210272657373,0.011675633925002685,0.0070825023910003095,5.7
0.028211244378717956,0.033548526364546444,9.859219361632732,0.006717037345837459,0.005338181723311373,0.010348882679830838,5.71
0.15982990741911088,0.06131732200977619,9.563077441605277,0.007503443656503404,-0.015396702484310078,-0.005373423748272705,5.72
0.006282544776899822,-0.027524839141178342,9.916727970381999,0.01331601068241074,0.008260280721235743,0.007312852653133099,5.73
-0.08012345530829955,-0.03776716625426279,9.640102746897826,0.005907810656360131,0.012318645034077194,-0.00030014288447831875,5.74
-0.08823559637427379,-0.0817513357358717,9.823869441234379,0.01045563433469539,-0.006667427576632617,0.013970179847533903,5.75
0.08748451331245544,0.13225866377074158,9.795844824072967,-0.0036237188718210678,-0.005855339055204969,-0.0019789034800223593,5.76
0.08420934554046625,-0.0820872196537085,9.762811799803739,0.00712933902636328,0.018038894190187033,-0.00486250122915153,5.7700000000000005
0.005958320098053053,0.20315135893923586,9.55784231003664,0.0007538294154313271,-0.009314270889717093,-0.01504721699619189,5.78
-0.13590241003164547,0.0822037349475808,9.848930959967205,-0.0006917850736702418,0.016681981625191317,-0.0038943856287468556,5.79
-0.08670542242844805,-0.08615337888946178,9.808712275588876,-0.00028999330775163467,-0.006249067777784159,-0.017319761556764336,5.8
-0.002295809188056614,0.17398646680998775,9.903346020634853,0.015133419594890106,-0.01220808781561632,-0.0032517760511549683,5.8100000000000005
0.03034083511425405,0.002496158194816628,9.83746194644572,-0.0037286801847290943,0.007551555891696533,-0.005541936648911834,5.82
0.025676531333374844,-0.008631195573824718,9.754513091137198,0.012691561000726118,-0.021501680788145388,0.016965367536998892,5.83
-0.14346352209982768,-0.030786009092458072,9.815101945669834,-0.0030159635636925726,-0.004154681102168905,-0.0179048360305431,5.84
-0.21545627591342648,-0.11352190663020519,9.800323232562773,0.0025606600080886888,0.01665906251173107,0.016844180708901493,5.8500000000000005
0.09107845829113424,-0.1254189555665919,9.643744671916794,0.008833463439581508,-0.013681583047356765,0.00048604127343988254,5.86
-0.11752756265988468,0.09133381540229785,9.76597533156604,0.007362432346960655,-0.006380000309315506,-0.007845946408555718,5.87
-0.060856523187864,-0.015189342018335328,9.793210511074975,0.0033841263694092,-0.0023141804669429868,-0.005038751512004295,5.88
0.07832594201180586,0.03724072199514944,9.94919029231864,0.007196176046422075,0.010711832850032368,0.0016855173108591688,5.89
-0.017272109672035376,0.034561669388107195,9.861681382523205,-0.007653145767383635,0.0011251467155579326,-0.0034298082360701655,5.9
0.061472005465872226,0.03825308956770154,9.806323305188917,-0.006231175597421697,0.022244215659124572,0.004379900291127924,5.91
0.043341824135372374,-0.11078475645738076,9.58024589505775,0.011225565421657533,0.007051051970388509,-0.0014212455724190599,5.92
0.023137794929976696,0.2242159081605212,9.768962044153556,-0.009932674399039491,-0.023835282730777826,-0.008636196926702948,5.93
-0.10412636498285831,-0.2159440552990065,9.807398777167363,0.0066754977260110515,0.007536310221542485,-0.00029084854987972467,5.94
-0.05291732180975986,-0.017010252705146684,9.948256223936173,0.0003648245071312568,0.004192644252210477,-0.018390449758445667,5.95
-0.07236316156344018,-0.04593805328492072,9.674555445717042,-0.005002755269041232,-0.006458690389094371,-0.015074318908669605,5.96
-0.07950899562469385,0.10657463276819679,9.696423845111974,0.0006238017366850771,-0.00617939438688698,-0.00687936333483897,5.97
0.0640252263439026,-0.07430039741738526,9.745465845433644,-0.006804379358070643,0.01870916966284462,-0.0006160472280264689,5.98
-0.18132442026597476,0.1336083026681672,9.858282157413743,0.003566874064215251,0.0033549059115187047,0.005743532485517736,5.99
-0.028512263085429198,-0.08956800465582537,9.970745031718426,0.008357542167114335,-0.019043636965054914,-0.014186764977780491,6.0
-0.11389467423950024,0.11037053219800914,9.732252578667001,-0.009933842657994045,0.0010985711032214839,5.1802336548280844e-05,6.01
0.03915070754359653,-0.07269810237195126,9.83910683659005,0.01001259026498714,-0.01745325364168451,-0.00037453635991318727,6.0200000000000005
-0.01814520183825556,-0.0009444856092259279,9.688356824976795,-0.005334084871654675,-0.017873281624974254,-0.001192951739559279,6.03
-0.0639094659238991,0.10656779338068426,9.781470333403236,0.017670957185973554,-0.007254598205110216,-0.0047013360630064165,6.04
0.10666218065960764,0.07375789762626521,9.867480879915624,0.005628547581390627,-0.006419565327983349,0.003964094051536356,6.05
0.09522782563036797,0.030799029817769955,9.841173194285732,0.013706539049189231,-0.00019011736030193565,0.0005104548103860276,6.0600000000000005
0.12758286608567998,0.02867980821365612,9.86153787728644,0.006054165313160637,-0.00722941662814445,-0.009356849001815595,6.07
-0.04014119215975624,0.03483254224744162,9.844431356218763,0.0012594766041461372,0.007304273853187684,-0.0018009765283030603,6.08
0.0336906060097629,-0.006994218497605647,9.652374009710435,-0.004134940851543484,0.0013608091230199331,-0.009074830265379264,6.09
-0.031010319588522947,0.10816555747659258,9.894886335464149,-0.00794858222573588,0.005951825918484853,0.003538705404866572,6.1000000000000005
-0.0016119835634776346,-0.10759595619136947,9.806843140977698,-0.004861801925284346,0.011608533968086792,0.005223541326947383,6.11
-0.1265112373045577,-0.021262899096075646,9.7580833104177,0.010841584925718673,0.0036789684299124814,0.0007006561156954179,6.12
-0.018466022766978785,-0.15362521404742366,9.910828724851022,-0.004398854873188014,0.01090671937220522,0.0172241822134202,6.13
0.02281586605307735,0.044164728332594536,9.894019128545088,0.013508172747707181,0.0026117006167884877,0.013892140736643518,6.140000000000001
-0.08599256689583279,0.0418038742327727,9.838232036742593,-0.003237212104561229,0.014389225219659999,-0.008242346913296087,6.15
-0.0018352503434846653,-0.024293595044600328,9.677422977480957,0.011793319975097803,0.014074071730059786,0.012229935670862349,6.16
-0.2538618077538876,0.08537437312042706,9.784281305103221,0.00024761482419196094,0.008911571401151031,0.016009258964832858,6.17
-0.02573238030218601,0.1787388804096744,9.88125874282492,-0.01196698907099735,-0.0012769462635284206,-0.002324192982532728,6.18
-0.015352750592741687,-0.0880757613921393,9.782001039718645,-0.004049212849670453,-0.015066212796006938,0.0164046316330793,6.19
-0.034551137418210136,-0.13699176103992022,9.885907466849766,0.010971726562305288,-0.0033409778049353655,-0.004824198043678642,6.2
-0.10966951654903517,0.13348814086514565,9.92439892355695,0.0009121803952480955,-0.0010221593057793887,0.004654268056600189,6.21
-0.07419190482304197,-0.04117071885106982,9.589541925139113,0.004605805930090285,0.00904741583683388,0.010404654336747796,6.22
0.19716971735665612,0.03579141652762984,9.805238265343908,0.009398084532128157,0.006674961363853622,0.00626840688915018,6.23
-0.05652795254131765,0.0489621131214944,9.85480688245777,0.00010504916020186211,0.003712903329512106,0.0066965515719781135,6.24
0.07103645673758043,0.06327095111705963,9.92132513812845,-0.014720123512184442,0.007331628432942758,-0.0035627502544310075,6.25
0.13173142802501864,0.04156992633085483,9.629571216017089,0.007736831196643402,-0.004340616341258759,-0.012497327596124291,6.26
-0.048531024318232,0.08380761610143135,9.744168287123323,-0.006271466262390427,0.02331365630968624,0.004035887156697052,6.2700000000000005
-0.09964125841660788,-0.0569610569234726,9.73621825676397,-0.0021229574079527974,0.012095081465758759,-0.012073813933571851,6.28
-0.011178938221468593,-0.02455926518077477,9.849662733851549,-0.01188682793277119,-0.0017538285537597033,-0.0046973211768695025,6.29
0.043249961686476275,-0.07963063179826077,9.873371240088552,-0.010965707587726883,0.008892803284330158,-0.010215786536861556,6.3
0.1388549618856986,-0.007025698690445234,9.78547387570497,-0.013086503064794048,0.025088609968391302,-0.005781915961716868,6.3100000000000005
0.1458636146282792,0.03735111569616258,9.945618988271624,0.01188853655805712,-0.0028662625008435447,-0.0010311071820170452,6.32
-0.033376716706764585,-0.033062489854919205,9.880215620658861,-0.018351686840272777,-0.030466754011233277,-0.0014096474831695944,6.33
0.06216387658124617,0.0649475668743987,9.794063941505527,0.0017939092740111957,-0.012711077362351188,0.0032916899731407706,6.34
0.07587830960878555,0.039153250523297274,9.902530784450494,0.010571341064202742,0.01025027414024484,-0.0027688496645144217,6.3500000000000005
-0.06322535957366575,-0.004171212347700375,9.721376323196994,-0.0035134005027201106,0.003056590853492889,0.01624080028619482,6.36
0.06308515668710887,-0.11479838643325067,9.887661836374992,-0.0036612612700163217,0.002080089149268675,-0.007148061120944157,6.37
-0.106264472089247,0.13703514568240693,9.742466757525985,-0.005156113706688672,0.010549083013446646,-0.01077221066872411,6.38
-0.15630657299235906,-0.05370114745030931,9.824943375500547,0.005745135613552721,0.006678676405903891,0.016510748081345363,6.390000000000001
-0.02348484502982765,0.028213878496182912,9.812030428114415,-0.010621285210807904,0.005006035870510127,-0.0057674556506818265,6.4
-0.25953882075366197,-0.1714002565921312,9.673218229066055,-0.005531914930308837,0.010809516204928284,-0.016881962992652027,6.41
0.028474708419583095,0.1294548125712873,9.632696007912859,-0.009781988075295076,0.00018504393268333448,-0.01811778157911913,6.42
0.03984062313004541,-0.04691460886748505,9.893627983105583,-0.003738476473342834,-0.012006394286989715,-0.015421041407475163,6.43
-0.08590196384327616,0.1531707652405205,9.746232595729653,0.014307866303115258,-0.001086657211006711,-0.009778206017402593,6.44
-0.018849020352356614,-0.03699879401795977,9.794674234548792,-0.0022932932650691386,-0.013686712774236536,-0.013627683046363453,6.45
0.03392986875105581,-0.014707280069204227,9.789166269082342,-0.01523438569235976,0.007112888835327363,-0.010978769206910693,6.46
-0.09146291998678657,0.022205810504952118,9.86308222801078,-0.0048460873268561504,0.009874088663057948,-0.011682562973347054,6.47
-0.08312797462146668,0.0398245085345838,9.842796529682914,0.002051322246991921,-0.02132059070102709,0.010181486195347391,6.48
-0.029356969062137268,0.04971491930377626,9.833183682130436,0.024532048675957863,0.009881938833205862,0.00035794823251617604,6.49
-0.06918332297650012,-0.05057656848213463,9.715158301943589,-0.002289372535990527,0.0018596297548428749,0.002010579330628287,6.5
-0.05397980509328265,0.1117857072357108,9.691896141654393,-0.011194423421355156,0.0037811673002998204,-0.007024970595927,6.51
0.07436307886839842,0.043641084914163096,9.796971586699616,-0.005575405973779879,-0.007937588926439046,0.020139928246460576,6.5200000000000005
-0.020562650522774378,0.17172574864477125,9.808035838869163,0.02533617251508373,-0.0018479439852422204,-0.001482519376086227,6.53
-0.05101746406695473,-0.08703021148202625,9.809475209737556,-0.013316610738313292,-0.009024413380743125,-0.017717203631230288,6.54
-0.1427377967308539,-0.13175425669927504,9.77944786708707,0.00043169578950680423,0.003121153225899288,0.005046840707611834,6.55
0.184803398950076,-0.06564078544872286,9.792417217047076,-5.8633101356390965e-05,0.004565355508322537,-0.015069444735091937,6.5600000000000005
-0.1061767960061906,-0.18612535313571293,9.776590624864722,0.0077805057940881165,-0.0029759863379421854,-0.024888470703859158,6.57
0.016501454418781474,-0.07222516764453818,9.814768988649446,-0.0039124618411149475,0.017177686425843667,0.006448535632543621,6.58
0.08664566211490943,0.0013997021450638989,9.838363441626441,-0.008366226883708361,-0.009317829530717478,0.006009152248913776,6.59
-0.14210567277322877,-0.01567156444012301,9.897014726291033,0.008318852313376783,0.003979775787696086,-0.003075113145691185,6.6000000000000005
-0.02637164492921339,0.06297963684929712,9.673903668068009,0.007174066745559422,0.004032486469011691,0.013666026952139941,6.61
0.11862972393059788,0.013269143441461457,9.845509047852424,0.011585443383856925,0.0020914010779039083,0.00789754046524841,6.62
-0.0963521827808828,0.05783588453831824,9.790458285139957,0.007819165818158955,-0.013688514056715376,0.006610959601488826,6.63
-0.011060756975617737,-0.006455923354470421,9.75197226402846,-0.0008524380577131362,-0.00036032354122237433,-0.016429924888981925,6.640000000000001
-0.04978887519392751,-0.05665589682911864,9.665893343176887,-0.0002247515021801239,0.01803369782299223,-0.0022851304917778366,6.65
0.0148365074074931,-0.11339291253957613,9.667451570758818,-0.011135779434055722,-0.015022782795448553,0.018037817421011397,6.66
0.16778832624937176,0.07167391819046835,9.767139227775726,-0.0002659153793677282,0.0014009390598897276,0.004126043608072283,6.67
0.03273204494896417,0.023314577238286994,9.842587398901651,0.00034837764155721927,0.007627089168455557,0.0005886183582935967,6.68
0.009993098988903906,-0.0019163171907760049,9.84091139128804,0.005774845015824912,0.011527786683969064,-0.011925236697479467,6.69
-0.09393485909550708,0.17181236111719989,9.737410359319485,-0.00728253098470208,0.016120205218642606,-0.003585340897188319,6.7
0.027237722108534274,0.04855784442246942,10.074119985767929,0.0027485577134992753,0.024981922052124923,-0.015256953974016272,6.71
-0.020237769674091556,0.12703240640937788,9.941572092678042,0.003435027398045159,-0.00022608350171543845,-0.0003324988456971654,6.72
-0.1412024768645687,0.006713124770558868,9.738843443983356,-0.011525031627356531,-0.0007821001763609605,-0.007546197170839521,6.73
-0.04407180942257902,-0.11684161164205525,9.743990692542793,0.003561220618132788,0.0024406102262818723,0.0032415399659793615,6.74
-0.003865587413223504,-0.21500714431560272,9.744197882469942,-0.003694732774291682,0.008804053719006858,0.0017507367463592879,6.75
-0.01479749635253646,0.05966693490422245,9.96981409094156,-0.001113396509283858,0.00928319897699701,-0.008959897113539613,6.76
-0.11582096108576803,0.12974944465812424,9.811524925164099,-0.010057248218370902,-0.0001490184175277373,-0.015336542406511364,6.7700000000000005
-0.19171703127375495,0.08652328284411709,9.776105526567395,-0.00794225033810052,-0.011834607463014644,-0.008040087992484153,6.78
-0.011723221545032874,0.11083442536653805,9.821259175256825,-0.009715567502914866,-0.01058989795514048,0.017808279413934515,6.79
-0.14988363020081705,0.039342862462656364,9.726369811947478,0.009520264700751915,-0.002169339558215086,-0.007753224578998626,6.8
-0.0746641032496189,0.04829190630989158,10.070393597792227,-0.0022677164972892765,0.00792170595667142,0.010758928097523527,6.8100000000000005
0.004791664344188366,0.07264806638369611,9.741206953948183,-0.01790801098614454,0.006591408220510201,0.013466756485104727,6.82
-0.05973631521183155,-0.07704763521659955,9.804506563666425,-0.002193786770191933,-0.0038621974673957124,0.009262609809325,6.83
-0.04924538810549037,-0.0953424625324479,9.947999408905444,-0.008624595246661393,-0.008582529668945503,-0.006664572409586625,6.84
0.04450180493176109,-0.048036714298513805,9.825894055804955,-0.0004226998104731147,-0.0021471140536584925,-0.010486007825737947,6.8500000000000005
-0.2404719023748236,-0.03070004365041186,9.85024027934313,-0.007883628018687907,0.009163673240600722,-0.009446665013088525,6.86
0.059217250832990675,0.06544071840505754,9.496907172748212,0.012994966924548098,-0.017201959137955518,0.0004821224151106414,6.87
0.1682342194193309,-0.0035795375870049115,9.785083169350303,-0.018258378551513174,0.0023725685351203485,-0.0011272065933423067,6.88
-0.02343052937517368,-0.05810691790194117,9.871386620107245,0.001316832235285615,0.0023893970896295288,0.008344095582657756,6.890000000000001
0.013407248173650951,0.12974444560220186,9.719865911038546,0.004953213319181874,0.0006808928824096096,0.025307259984602072,6.9
-0.12595807114177926,0.013490020099397452,9.741237309293453,-0.010860649263209564,0.0009288010784976125,0.015880948720383616,6.91
0.028532842578354114,0.0579004367383644,9.730280201530608,-0.013876733365709396,0.013341425163186506,0.0030153307859063605,6.92
0.01396784604282511,-0.04077989119261426,9.983367116917304,0.010805774651827464,0.007168983863829783,-0.0017317322374548639,6.93
-0.1472539066468741,-0.09536974907367321,9.844662421833108,-0.007236579467989227,0.016870948883662362,-0.0018083355314692066,6.94
-0.16188683588684868,-0.048121410464772085,9.979246047245537,0.014017084663738943,0.004837612351035066,0.003475860194658532,6.95
0.06150768565925116,-0.005596025909185788,9.876095773579282,-0.01604506297747019,-0.004936180315980176,0.01794432199569748,6.96
-0.10316552435614523,-0.0642837084791396,9.922407996173083,0.004412366375822306,0.008270124400288178,-0.006114405596595572,6.97
-0.12291007467578255,0.07529567818302411,9.663079630286486,-0.018135755639861306,-0.0036849965887862423,0.004466043697286657,6.98
-0.0020989011260502594,0.054923878314192244,9.837153665648811,-0.0005304758781208001,-0.012262809638716426,-0.01251190415703019,6.99
0.10494501583178065,-0.12841359053070628,9.947715002499214,-0.003320443895509182,-0.013272159550806772,0.00927793911092478,7.0
-0.1741116218950302,0.0938218346565946,9.860321143545926,0.004776459867964827,-0.004361230908448763,0.0019418380623915992,7.01
0.08513114543126798,-0.05013042336333182,9.844357254408358,-0.00447521086458978,0.005529855718571361,0.0002506898842744704,7.0200000000000005
0.07014987243457664,-0.09223725712170219,9.891863572265779,-0.00024458920254374786,-0.014015004040238628,-0.018950846533568926,7.03
-0.01156747946612045,-0.049889972187768084,9.81624773478875,0.005923402405392022,0.008004226180200356,0.018095696922117738,7.04
0.01779308091123029,-0.057183824006577566,9.804674398528086,-0.022015206066100773,-0.003394856553057234,0.00593650079227062,7.05
0.056088657820014536,-0.03979101971139773,9.92529503088269,-0.0027772622052312235,-0.005019649839498954,-0.009500594036581728,7.0600000000000005
0.0528714194248503,0.05024403596634633,9.675439871071722,-0.008359931083810198,0.021590109482378685,-0.01012158242327392,7.07
-0.05780252983206427,-0.006011301079864396,9.742718147736397,-0.008761638606061,-0.010551375909430748,-0.0074564999485573396,7.08
-0.008752647969067464,0.07444198851419453,9.823632592725529,-0.0028264339741336307,0.0015921382405774695,-0.012618528090261994,7.09
-0.10733744458324011,0.08223901681915477,9.629719719587438,0.003948595014470989,-0.009019967165756837,0.004896446215591688,7.1000000000000005
-0.030837530647226774,0.09655406853029459,9.91234987016888,0.010005415831979862,-0.011521708103150632,0.005452393901114623,7.11
0.08490528262909391,-0.007951002420145285,9.971775247731669,-0.0010555105237451867,-0.006509786306972081,-0.006432552920728591,7.12
0.050271301912070465,-0.07991040966302382,9.770353989599522,-0.001986837884762282,-0.0012216044014290305,0.02631312786625956,7.13
-0.06943127747511561,0.15483240592213798,9.863434367782308,-0.012751724862505219,-0.007009733346367494,0.0006981464958824462,7.140000000000001
-0.010039858313071387,0.07304801122681641,9.922593028584416,0.013837413522278552,0.004793685243992359,-0.02580112265599166,7.15
-0.061781633301923,0.07501870806644984,9.954453087222706,-0.011774585088782732,-0.0021768311977364003,-0.004655526048096463,7.16
0.012117303464721616,-0.10496659359815833,9.86392947103122,-0.006466801943406081,-0.0003388391854146631,-0.02042133594453104,7.17
0.04787035186444387,-0.025908078776887274,9.993636756098327,0.0018966939121773045,-0.0008327815052387423,0.002876424108698564,7.18
-0.0553763324347221,0.06743420253051173,9.911793125801008,0.010320156060985566,0.007191956710629962,0.0013601943502833847,7.19
-0.14923691895018312,0.18856464174953522,9.64211338936569,-0.0006105494799408515,0.002683203804797953,0.002044826131461117,7.2
0.1376734094730305,0.11544835738218456,9.694689965388415,0.009044311942193801,-0.00121510855752724,0.0024397161722334464,7.21
0.033402914727558734,-0.02548077997112105,10.018357026707697,-0.005381216110851017,-0.009487126931938735,-0.010806768051914377,7.22
0.16235092796222333,0.09913636540990352,9.810336830880159,-0.00800833182546486,-0.01222584938643345,-0.01788357358847412,7.23
-0.14885616108073516,0.12522760093146534,9.634567306815898,-0.0011649204574284363,-0.020794503689460637,-0.0023497757698916362,7.24
0.2045996556292758,-0.06794859094763799,9.96854196883869,-0.005583452664252534,-0.005683288798472075,-0.0010986155110165059,7.25
0.01900466092674349,0.06167774088245795,9.753181047211957,0.0020135817980878185,0.002554609790474618,-0.008950405141388316,7.26
-0.07407126206597042,-0.05033632741445176,9.86588369652718,0.018034983786881478,-0.0045077697980316364,0.012247106614348541,7.2700000000000005
0.09714427221964889,0.029477350794510682,9.764635630603621,-0.004236923199522181,-0.0023412470417382607,0.003655315948037099,7.28
0.004698225600743797,-0.0794126263415888,9.934488067719736,0.008909854606353778,0.0028756184970254108,0.011544058778199787,7.29
0.07279920403042738,0.02845535962281853,9.732056744453438,-0.0007220332393927465,-0.0023554130829471203,0.0012114218093754801,7.3
-0.11106221296723667,0.016473649436043,9.823890904922848,-0.002238991897569161,-0.019437698837836265,-0.0038177131226863528,7.3100000000000005
-0.05882695484289008,0.035461974538523476,9.543021023375728,-0.01559566217484129,0.00859632152226904,-0.007669586887912143,7.32
0.1270174727063813,0.0916679366306288,9.83531032609888,-0.0005586112191684772,0.00012759843775578882,-0.005723519938764153,7.33
0.07258741741722599,-0.25162936689482124,9.749385363042524,0.016924342354186387,-0.017495019867416115,-0.011936231614480541,7.34
-0.1401962184502192,0.0228813722476187,9.84421850876404,-0.005920882341489925,0.006147844273048124,0.018087421016944563,7.3500000000000005
-0.074890319920887,0.05609917875336817,9.83718607949784,-0.007028207905760696,0.0010129342296848077,-0.0011199046233110984,7.36
0.043853120870639264,0.009461955604797345,9.874928038679352,0.008100011401136798,0.011888890853518607,-0.0009675810736079569,7.37
0.10691105843765905,0.07031073223949875,9.913844086035104,0.002781615474071893,-0.01477862407439408,0.0029246742157229377,7.38
0.13205980854583502,-0.10890830651308064,9.732445787427263,-0.01177347686381687,-0.0011584094165527155,-0.001569533810484153,7.390000000000001
-0.12572057601496994,-0.025506391870757678,9.924475333064297,0.024815303404604264,-0.009380561327201147,0.000790625060309206,7.4
0.16322637873123713,0.010148754329606432,9.834251960194043,-0.012487099000714624,-0.0028821585669794496,-0.018066008582832967,7.41
0.13814855305450421,0.14209375784461595,9.805403081024124,0.0005284051126915509,0.0051782909864630765,-0.0012018104360907252,7.42
-0.1596093522330131,-0.28524143027400906,9.877545423819551,-0.004730768121522198,0.0011667131522871807,-0.015586119499374655,7.43
-0.12836893778560302,0.023443330461716233,9.820745754888224,-0.005277296029165109,-0.004284292117201291,-0.001686142130869518,7.44
0.006940197209539949,0.03576772166719815,9.783071740325989,-0.009307212456414162,0.00430860404666788,0.01839736139717317,7.45
0.028265661347208815,-0.04329748611242283,9.864533359175876,0.012056231132926483,0.01062345128205104,0.004126493155203392,7.46
-0.01420352794577613,-0.0030831177726333286,9.874178682946699,0.016083549593002712,-0.013531331967530248,0.005395341852052778,7.47
0.03563266652793408,-0.09289460267628248,9.802803468811433,0.01330288766659139,-0.0014523508385120942,0.010673477759891959,7.48
-0.086826524575442,0.06902572534317582,9.97162728723502,0.00425848260266545,0.004198397043714906,-0.0006852649567787106,7.49
-0.15755722716511195,0.12789185290231805,9.640637382286375,-0.003999139486801555,0.009002684061199613,0.016823139403716426,7.5
0.2182688900404275,0.21853768422189976,9.796110803411125,0.010193905639214027,-0.0013944651126843594,0.001279737357277413,7.51
0.02413723500420732,0.011334636465800893,10.067097564708268,0.020333827884347427,-0.0003350821262511833,-0.004128942650395051,7.5200000000000005
0.050524040496946636,0.012279426140214433,9.756386176519126,-0.0018102025555498948,-0.0015630002977385516,-0.012511808200481714,7.53
0.1279161929985065,-0.10255224686633842,9.818734848409006,0.0024223064418434585,-0.0021392040206691283,0.013498857293393757,7.54
-0.05028688567182169,0.12422199520712018,9.829432692627071,-0.0012459007697845712,-0.009920365500779483,-0.014262928971142546,7.55
0.11898311036824222,0.003685200433653873,9.83410941123846,-0.011199733695655379,-0.002555208647742881,0.005068903809360945,7.5600000000000005
-0.13822159293645214,-0.08998006031354518,10.002798360009148,-0.011245534319255625,-0.003221521946295283,-0.005404091278461419,7.57
-0.13247839506277942,0.0961894850934424,9.912175391931518,-0.0035945937895439117,-0.0009521812588894192,-0.011612097768008046,7.58
-0.019302832595504693,0.06260309161812373,9.696768840942498,0.0028081757882036295,-0.020857272491750324,-0.005601416056946135,7.59
0.04188992433675203,0.13197765785129367,9.75630697002305,0.005615818833385404,0.0019343432186732757,-0.004032508801833361,7.6000000000000005
-0.017352302014564534,-0.17902132148208272,9.774021979413318,0.0018037830078268932,0.018370600507409515,0.006860460250660718,7.61
0.049644126541619954,0.011754203141865477,9.753333211900767,-0.0035182462313938867,0.0015226936298634681,-0.003447701775208026,7.62
-0.0578765202861696,0.009654634337976947,9.715160847112902,-0.008815504974479953,0.007626591574030168,-0.0062440991895363444,7.63
-0.10085059827771739,0.03404069231428324,9.942739863776701,-0.00812777159552427,0.010733652666724214,0.005594242810047202,7.640000000000001
0.012405954726890673,0.3235034526335336,9.835660389784374,-0.00010268824822133623,-0.0020002941972316747,-0.002679259141262036,7.65
-0.051322217187465824,-0.09161569491279276,9.857845530745793,0.0035058137132449253,0.012662320490392754,-0.006651902352763789,7.66
0.06247650651660341,0.1697858508939084,9.676831745744726,-0.013094938001982232,0.00947379809325449,-0.007220546825740063,7.67
0.034695889868314,-0.05000331844757331,9.900500222324155,0.009691869747763527,-0.008925855388120423,-0.011630635741178093,7.68
-0.0014667687348559047,-0.0871166753765215,9.828851468779948,-0.017688435153448718,0.00013674800454645285,-0.012863612532317843,7.69
0.016057909993549155,0.2096970826218633,9.722236008581316,0.001582011642781147,0.002361904046515051,-0.017511146690629465,7.7
0.05747920322450537,0.056738899712364003,9.859345082967023,0.01086830980690914,0.006564011318478708,0.0012632899947740681,7.71
-0.17113336731500933,-0.02608838920466183,9.738043018488327,-0.01235309412869672,-0.004397432712381118,0.0024984656808346496,7.72
0.12676652305206695,-0.03291788153972921,9.665420243558831,-0.007023962668105061,-0.010989107721114267,-0.0066475630056381085,7.73
0.00017525896135343804,0.03212291202286983,9.846403051418726,0.012055230229095732,0.01536763186556356,0.008809584880524152,7.74
0.03146077581048095,-0.002287069964717955,9.715617843788316,0.01814227198202792,-0.011705778214224798,0.013832034536317237,7.75
0.12454259248721891,0.1296530527625301,9.710107407343713,0.0065195873371313275,0.008910509301416207,0.004886326276494865,7.76
-0.059457789503701876,-0.035805110902528,9.686225113805367,-0.00705302156459893,0.001359294505789356,-0.0022819845478831186,7.7700000000000005
0.12502224494152894,0.07881335256086636,9.690585047727923,0.010708836412631944,-0.008465606820378785,0.0022660509994007795,7.78
0.09701533383253125,0.08289763190690705,9.801979132532253,0.00886541553018837,-5.121229996656904e-05,-0.003719232662246222,7.79
0.10716672409114447,-0.1152046592495931,9.700459411238725,-0.001006918454741074,-0.0014992547191376993,0.01881408156939021,7.8
-0.13485300236264408,0.07116167733179965,9.797868977694034,0.0017228224076854702,-0.01260525078798826,-0.005036339184866096,7.8100000000000005
-0.08992904507770372,-0.12151554456804628,9.735797068151488,0.002939974211509564,-0.0002732604808671818,-0.00950714228965701,7.82
0.09597336720554057,-0.03361565468655294,9.82025725490062,-0.002685693749205301,-0.008648326666651997,0.011956488418200942,7.83
-0.019052021964468903,-0.025434834791705427,9.72159684005164,0.007090685994225573,0.010326873083434553,-0.002641802400230676,7.84
-0.03939464469404677,-0.01750321493818503,9.727725656458961,0.003432642056292361,-0.0020029040053190926,0.014841141576968394,7.8500000000000005
-0.08189477700983927,-0.05962641465923407,9.887999887575042,-0.008924807563254103,0.002344282710150245,-0.0028293908444423943,7.86
0.04391614672863027,-0.08274490765002844,9.660811310271022,-0.012644436516808518,0.007180257971115008,0.005407740746535467,7.87
-0.07751751003033386,0.12147046404253903,9.76216067746856,-0.005431786290400709,-0.008098192059314871,-0.010148380811121441,7.88
-0.016647772757921047,-0.015615706836983942,9.741959583586972,0.007713395759109909,-0.0005926674518921695,0.007021087985319732,7.890000000000001
-0.07498645334031227,-0.021564739456536232,9.89516342974575,-0.013151904105724865,0.0022908170448090385,0.00908917726349175,7.9
-0.08698830341417212,0.10428778916223702,9.75374403977419,-0.0034289163954108032,0.01107386559085013,-0.013565965347514655,7.91
0.05808009998215519,-0.10946727665941675,9.7234202399501,-0.0056014195323372705,0.010240003692281301,0.004610883626924262,7.92
-0.06418339847257112,-0.04666722916237695,9.754635594444498,0.013779350012944122,0.0011228348378473022,-0.0061245965724833875,7.930000000000001
0.05445461168847204,0.10046210305215122,9.88731204260393,0.010335912418693636,-0.019345225865074672,0.0034055266124211545,7.94
0.12332976924476385,-0.06992096655238204,9.805737403280164,0.025784462592033472,0.0023656749897348513,0.0008626141238565364,7.95
0.08631903961694419,0.013055902960190184,9.976617160423714,-0.012128457708974714,0.005597996499887256,-0.005046153869515071,7.96
0.029763698807836532,0.1048612924899187,9.753888698387303,-0.015969097435233087,-0.003468898674947783,0.005729704993170444,7.97
0.08417340745174702,-0.04578787685492795,9.911860715202835,-0.020780292743956364,-0.0057469040647348795,-0.0006876571688711614,7.98
0.1012296873025475,-0.0009546127562705868,9.802812274794316,-0.00806682161239983,-0.010586754956003475,0.007628819670234872,7.99
-0.017994724746386245,-0.13155963794392236,10.044320791077565,0.005513650959874039,-0.011635848220728882,0.0048258057535586355,8.0
0.10054861795683044,-0.0017695978549022674,9.93278327324046,-0.00766225045644515,0.00932087909169942,0.00014437721785918965,8.01
0.008595118386387685,-0.07940524018412515,9.70968811254785,-0.007198401804238128,0.01653324216633758,-0.00015473329024377077,8.02
-0.07078992089080743,-0.15070234917017142,9.798121515941702,0.009118414297901804,0.012014492731285648,-0.006828510433541707,8.03
-0.0691753823744566,0.13046324943646143,9.945292750266207,-0.0035320145825546577,0.019035826879179228,0.012563762763324358,8.040000000000001
0.05500294163608341,-0.010064713667299368,9.893919268691475,0.008449913996348972,-0.02260411789060902,-0.015573962676682379,8.05
-0.01668165013823315,0.09689934876959766,9.661247630921723,0.0006896623152627923,-0.008860949183321077,-0.004220511836984087,8.06
-0.007735963140794601,-0.042717522088552506,9.715197327538132,-0.012404378452477239,0.0032957995041871307,-0.008135080980724898,8.07
-0.036529674170503214,-0.10450023150653037,9.642965073739882,-0.004538913398757512,0.0034245847205301673,0.011104046121085415,8.08
-0.19318616413169157,0.1899534963985998,9.986531647452201,0.013786414551621322,-0.0014444901801650043,-0.008238567898398688,8.09
-0.008792529749253646,0.1170193092866148,9.780621166746668,-0.016810089545287347,0.0027116841000045296,0.02086195851684831,8.1
-0.012945042649388139,0.06672081682977869,9.632755087542428,0.020573661286580544,0.028716252633548944,-0.012802927984751963,8.11
0.0007841332709490729,-0.049513381590411895,9.67057445561415,0.021222677284519122,-0.009943768116599052,0.007736516451261801,8.120000000000001
-0.03979731450699101,0.0883386149597208,9.916781841607497,0.003996456709453319,0.007075702974484958,0.006228279363704354,8.13
0.024312851875353828,0.11623382187578113,9.797098692572588,-1.6426653294529735e-05,0.020785875614419337,0.005284386957487552,8.14
0.07583182770542227,-0.0630197919732115,9.96332348905954,0.001027740051062467,-0.005033404752985663,0.0068495918870783,8.15
-0.018295603631425638,0.13097862375440794,9.753839258390489,0.006321671741825401,0.0010043156975176996,-0.0007193532565101503,8.16
-0.04420535388976352,-0.28471413359542075,9.778916527838776,0.0077489783126994905,0.004678673814712876,-0.0039709135830414185,8.17
-0.15259903693677257,-0.14983129041706023,9.819026449439063,0.011663339053983297,-0.0031354186638508277,0.0054713958287899,8.18
0.03636707069075295,-0.019319224470638496,9.745509700418852,-0.012054163852510737,-0.004237439066985287,-0.0022471224330691407,8.19
-0.04125027970231615,0.0935172919088935,9.742215444444362,-0.0054262907670252734,-0.00280782107958104,-0.0005056402000778849,8.2
0.067878215827323,0.1301971556075932,9.738929347589306,-0.00810957699594313,-0.0022226120263072187,0.0022841259556766686,8.21
0.10179119740745964,0.012694002447204495,9.935500119013337,0.007725162961422341,0.007432684330975424,0.02794504635879309,8.22
0.0005280249636992688,-0.2126489475066532,9.900457263801163,0.00025239441011264927,0.0019750823677804146,-0.007397185185079254,8.23
0.12131973224150294,-0.01921360876017642,9.648848402095584,-0.0007748460177964538,0.004832740227821233,-0.005070262398643244,8.24
-0.10527158866838256,-0.0002618223576983647,9.812171961571277,0.003932348719448238,-0.00786179576266478,0.007838335786849473,8.25
-0.02784901255283221,-0.10741709218885137,9.79433744213341,-0.002745218473295327,-0.008437475785709737,0.007023953987426175,8.26
0.06125023409153333,-0.07911928531146728,9.868103072589548,0.000570396459186668,0.018875078460371827,0.01687184188872219,8.27
0.11130973381292382,0.12488837193549836,9.797021494822324,0.023696639216584613,-0.007694175192124794,0.002510941753192415,8.28
-0.038492665791369535,-0.24300258512268713,9.821519525463934,0.011636090757241214,0.012899468055825982,-0.009483960568784788,8.290000000000001
-0.26109335454964977,0.24666845440678045,9.76713732572198,0.012171343563140867,0.0020798274266469303,-0.005067831989715333,8.3
-0.05782290185969477,-0.08076986072159834,9.693282164224469,0.005788992454472265,0.016230187313717045,0.008733669094043297,8.31
-0.05413721486261963,0.07520771800072454,9.80042727473512,0.0046644588217861,0.028720479682355988,-0.004508030653833151,8.32
0.013382810309479815,0.0519943916864197,9.725330056857775,0.0012564409216127678,-0.008119267773056271,-0.004464738458695989,8.33
0.0730926193830722,-0.03625856499560006,9.858980072124469,0.008085603159302462,0.0038159460563201514,0.001760778432709009,8.34
0.04924924593726426,0.10375767385701173,9.816196615723369,-0.006125932609024093,0.00012896422960134474,-0.006394695195697087,8.35
-0.09695178359432156,0.0005310578810081744,9.839213410029018,-0.0021997146844069844,-0.009585021899207026,-0.0056159748353323755,8.36
0.13128845747364035,-0.08546040036944468,9.657974262393791,0.0063641657250358835,0.01094943551900406,0.010047853670929528,8.370000000000001
0.03662272702427258,-0.07966103943538212,9.867185511217738,0.013867577744507155,-0.016158633237282515,-0.004617540309159534,8.38
-0.03989699876974585,-0.1479835493138351,9.850616262881898,-0.019829208978462607,0.004284160478959097,-0.0010171032651960367,8.39
-0.13011304526362408,-0.0030690954072671098,9.82838788487976,-0.010483545501633891,0.004391366664493634,-0.007576660911589662,8.4
0.035722924397032195,-0.06945956017275827,9.807266959157907,-0.005374619487301023,0.016813829272239515,-0.0005596478157453419,8.41
0.1268036149435607,0.03746150971480439,9.867555889055302,0.011403058643696467,-0.012970639213262585,-0.0025220757706239123,8.42
0.16121110592414606,-0.061122445352882894,9.898600090594083,0.01042404527229345,0.001977283779699515,0.013312998309128106,8.43
-0.0403005395250223,-0.03629377593610485,9.946527040154555,-0.012135012801874715,0.006702486502713715,-0.0008105987113120514,8.44
-0.02520242931350244,0.03769503304291795,9.99292262372503,-0.0008165320649519924,-0.0023947125890210717,-0.010885043858165277,8.45
-0.030157498198667268,-0.1214999896427331,9.626938546074014,-0.003470006064270867,0.024051469585846554,-0.01848480384857162,8.46
0.0802018621910548,-0.019023274436422044,9.80382210737751,-0.016177148531928233,0.0021192613111380245,0.01652238197951206,8.47
-0.0915304278804185,-0.10223191672423755,9.87378907104193,-0.026889561222792208,-0.004141822134038427,-0.0029723115050791626,8.48
0.15897896536382528,0.023806908577145333,9.757150399743585,0.0026478225650625286,-0.01039680578183552,0.0113749555007261,8.49
0.061911214987073505,-0.09614465165526435,9.866456380964369,0.0039596724168068495,0.008234705809880075,-0.013363665785048023,8.5
0.021113040635016737,0.020138818573661798,9.686027886771356,-0.008238068398994299,0.010904000545765435,0.009466658101465903,8.51
0.09117670632644576,-0.1007993277658223,9.8302307640722,-0.009435249872076381,-0.018089716140524154,0.0004353035937235036,8.52
-0.11169880084997229,0.06990577737881147,9.985013177269646,0.004216609935708748,-0.00023964018824301544,0.015237088176769971,8.53
0.005962764032136173,-0.18410600986678968,9.76747713723274,-0.010779384548478953,-0.005148858092007539,-0.006823401140422353,8.540000000000001
0.12184905500098749,0.19063037703710206,9.716532163667834,-0.010796959542098812,-0.013122006148805857,0.009405904621414342,8.55
-0.04658439154817275,-0.046070823162799854,9.987815088282964,0.009538780236242045,-0.018579205826946662,0.008761484402441124,8.56
0.00017176938294834697,-0.12485817575841532,9.740082549344079,0.007809004046801622,0.013769740876268791,0.00019901055844992571,8.57
0.06315103541444689,0.00044651942571756085,9.938311430993974,0.024310157466891146,0.015171065634199883,0.011179637409799768,8.58
0.10326162774154257,0.0037381490047129,9.696785338771845,0.0028511954156700994,0.018308754670103126,0.009667596791999349,8.59
-0.08456783089442352,-0.025739653497041055,9.891382287253748,-0.005590105253905968,-0.004451517051475722,0.008026371629987124,8.6
0.05120448516172965,0.08005422703082299,9.653217161481413,-0.020606074673215943,0.0006495095384461768,-0.009842100465284769,8.61
0.0031476831902901656,-0.0055259333679869614,9.824649361240441,-0.008976498280220954,-0.020551357651227464,0.0100710990031067,8.620000000000001
-0.02891372998716149,0.11169965224087997,9.718377147408654,0.021295774936468618,0.005537273183811488,0.010357392635053456,8.63
-0.03027570769213966,0.14798808975031055,9.779007981458506,-0.00821380255316438,-0.011439984630799342,-0.006285889025177215,8.64
-0.0062361240322632615,0.15912203158333305,9.705850575449185,8.928073016448404e-05,-0.009234847309123894,-0.010613663517317597,8.65
0.08617691158060567,-0.007806518965228876,9.810585544303825,0.0037416642350996195,-0.0006380639379245289,0.008363998733874143,8.66
-0.21191355651945082,0.024460939373420226,9.929618514545833,-0.005480912567894526,0.0067568925563565385,-0.006330319085056037,8.67
0.022661253151337133,0.09524521528583474,9.87508279224149,-0.00468561301453498,0.01003581453648897,-0.005000102983003423,8.68
-0.05519212866593525,0.05193805324601988,9.926949885950037,-0.006056343771208605,-0.008831653081671388,-0.000561677659578123,8.69
0.011281765115862413,-0.06417664355318246,9.921869442287992,0.0026138662993350176,0.0012023150079656555,-0.0020241033927592056,8.700000000000001
0.055720819892728125,0.2646834664030237,9.877379302109897,-0.013802622977236126,0.006832412160665213,0.0038767654482594407,8.71
0.07568644442022662,-0.15508448946663222,10.014331484213406,0.015968646680354942,-0.01924775023530259,-0.0013858497579460121,8.72
-0.022274996798089357,0.10272229281347922,9.70721819555286,0.00715119890588287,-0.010202276320014265,-0.010545634040452145,8.73
-0.15618579883920986,0.03127322171501561,9.742205290476097,-0.011725772917836025,0.0056899663390589115,0.006140884375954506,8.74
0.12721685387163237,0.011953554490229763,9.671079036410225,-0.0007504208561538677,-0.016004108767306978,-0.002242259051367493,8.75
-0.01264264348460559,0.08976391883653596,9.788551854475285,-0.0033914820025641107,-0.012307908540701384,-0.008071531768931904,8.76
-0.02558592566417115,0.03264014683772198,9.767432603350546,-0.001573126310982824,0.00031122948876911876,-0.001994523867723915,8.77
-0.022843964645739585,-0.17364200651742132,9.801438450408309,-8.870137744239913e-05,0.004944349785658054,0.00891712512682749,8.78
-0.10456583866663666,-0.24161387807514903,9.85078286787674,-0.016538179702911878,0.010334409920486858,0.003377270454919534,8.790000000000001
0.11568246779918656,0.01489582762652751,9.703168127149837,-0.004174143243258186,-0.016620815843963247,-0.004110953170739589,8.8
-0.22496165240536672,0.13278391423305735,9.872397677206903,-0.016183123695377624,-0.01254056286630644,-0.00960649425780628,8.81
-0.10854505288821964,-0.1549803988766554,10.022988214227414,0.01840778678359634,-0.0009146878061559175,0.013694934919708199,8.82
0.014002615801386623,0.050874036096675804,9.83448148727127,-0.006195035915565057,-0.004070043314928664,-0.010793343413160794,8.83
0.029948336104437374,-0.11806727798495809,9.851652954668753,-0.012580476918601034,-0.01124632554563895,-0.0012563139613801044,8.84
0.2200291593462143,-0.09135924244199894,9.784993347114442,0.006500739437422072,0.009866103673291474,0.0014544490779627695,8.85
0.06545813447265175,0.07438702888601344,9.8607109672604,0.006910663584831548,-0.011397504029066172,0.0014584917234896605,8.86
0.02621800977771609,0.009250731785587952,9.808427490628283,0.012118245806072226,0.020176465882667957,0.008328733267684138,8.870000000000001
-0.05018065499032146,-0.08279100653979526,9.827051378030664,0.012039223316362518,0.0021138489388027805,-0.013842971585594345,8.88
0.15780399806150144,0.06005243472034333,9.762864996741902,0.0007113123504796708,-0.0028922294631558267,-0.00819688874501742,8.89
0.015785972602435954,-0.10530620546111745,9.82924946209066,-0.008852159935970261,-0.005735130596808429,-0.0013180488323392124,8.9
0.03131610400890391,0.02337261488625234,9.72699495767289,0.0012253930333327341,-0.00026010759879526254,-0.002800467176865586,8.91
-0.0396317506058266,-0.03420985740388959,9.81280168134793,-0.0010239985836148153,-0.0004627291012984538,0.0007542424366095855,8.92
-0.11566924574207436,-0.10876211319668255,9.764595551799164,0.009546552527876747,0.014978393799906786,0.013352399981072231,8.93
0.037146196417356676,0.03894309661455159,9.82011466393227,-0.0008446863350498801,0.005627334102340474,-0.0015099786427948154,8.94
0.08294641840889068,0.10669122085596601,9.615601997157306,0.0005713944920624749,0.0022950522827890653,-0.01590857295439173,8.950000000000001
-0.019022455970032263,0.01895700272089655,9.788952522879137,0.01616403655482625,-0.0002507466707062867,-0.0024585434301273817,8.96
0.04834546389683142,-0.13949007740267336,9.846189318160942,0.001129291942858989,0.003939549900765351,0.0029685024664274184,8.97
-0.1113894742740773,-0.1566739942917084,9.88930639868535,0.010174844888286181,-0.0008737681891480082,-0.013894049962823672,8.98
-0.03992903994874401,0.007126875121512347,9.690223590165528,-0.003036173392981523,-0.0073880088504173205,-0.0017275498282884453,8.99
-0.1614578373277133,-0.1328319667746509,9.870568329056885,-0.007170755570112271,0.015809417445689592,0.0011766714865853217,9.0
-0.01608984744647809,0.13119779629643838,9.817312936995474,-0.018329142390280426,0.006733654774377293,-0.007179835688922077,9.01
0.09682002176971843,0.03731624178321243,9.761277108464068,0.008324395514584592,0.009407008345295854,-0.012781148738663064,9.02
-0.07323855221439354,0.012988165976642221,9.889428050279466,-0.014633787616327963,0.006896638754208748,0.005805220475577477,9.03
0.07092411120538038,-0.000423171099576959,9.915655009590962,0.005520627131038505,-0.004848537780362663,-0.000872510135527765,9.040000000000001
-0.07048113306247378,-0.0716906702552864,9.778773674518279,-0.012398879076540836,-0.004320683567570812,0.004826844011528319,9.05
0.06051439839550779,-0.21934297069689135,9.823629593728752,0.009639319198848077,0.02229784597407564,-0.0160143921187657,9.06
0.07452719367619778,0.2041604090211734,9.755440533558897,0.0045927620355439664,0.006154389983471658,-0.005155854084528819,9.07
-0.11029654274194632,-0.02017665857375163,9.900599343628018,-0.002156739742699168,0.006058877930743473,0.002825972925493878,9.08
0.0414553798796915,0.05194445000529279,9.886270723287968,0.007572320828832336,-0.005926546411943899,0.01656173116051756,9.09
0.0034461634565076463,-0.06772244709732098,9.750777981051415,-0.009585596388221615,0.0008053923042550274,-0.024281320234704064,9.1
-0.07614373373962874,-0.015663652087213237,9.925872403592486,0.012401989666195377,-0.003259938102509533,0.01583424176280368,9.11
0.03581130843652375,0.14693160599530192,9.857047452795452,0.020303054334477016,0.004634178376432726,0.005515515955178121,9.120000000000001
0.026922278924375206,0.10606647801443242,9.729353960322433,0.003949198580658428,0.015829607733431096,0.00876631691298472,9.13
-0.1215042976649456,0.1068631813694563,9.88394962760106,0.004566827232744282,-0.015251321791964817,0.004281009096244202,9.14
-0.03868345605413505,-0.06569997754920498,9.711832490486026,-0.0018952567348550099,-0.01066131159924064,-0.003496734733449073,9.15
-0.07479835671570277,-0.0901401510622432,9.9104503852052,0.0036222533595573697,0.011499387861003827,-0.0008022416489179367,9.16
