ax,ay,az,gx,gy,gz,timestamp
-0.04349556921590883,-0.07302197378485846,9.753809136648275,-0.02005657255324343,-0.0017088915408453205,0.007311692212757755,0.0
0.04052578659408219,0.1272038894428408,9.825638688940524,0.0075322171374290715,0.007799818799370201,-0.014791279297972477,0.01
-0.061263402082546825,0.029736170357987615,9.935865949768967,-0.017568805196840256,-0.0014255069923646863,0.008260890998370931,0.02
-0.03698330821471354,0.05672291474494084,9.722247426604346,0.005431121773475497,0.006409902224625571,-0.0024013520406090593,0.03
0.08575050068390022,-0.02256011800865161,9.867631745028739,-0.008521439099113301,0.0027713238848837037,0.00397884532743407,0.04
0.014853492508762813,0.012319272322877148,9.681273930513166,0.008653816326080192,-0.016910031927440086,-0.0029514747253797384,0.05
0.05203674661109375,-0.020095082202980633,9.80357667326389,0.0033595264765184686,-0.023266028692355514,-0.0031087884215720784,0.06
-0.009072036969942422,-0.02545191092371729,9.704810422083368,-0.005635008627364248,0.002776897988245718,0.01383737994254848,0.07
-0.011946458612447336,0.0038358216064175487,9.720201698156155,-0.005840175592048003,0.009922305726300975,-0.0027405841356963672,0.08
-0.10703208364385929,0.07845399282223506,9.764265577814388,-0.009858810021636931,0.011470062257004967,0.019281081005181572,0.09
0.020414838348238,0.019381724235546592,9.860322894372793,-0.01504386382353987,-0.0005706050371520597,-0.017720652821939332,0.1
0.11746468389594729,-0.023411247583499994,9.73458619949199,-0.0012716236329861016,-0.008477996901959835,-0.01331964382502829,0.11
0.06544526538320465,0.1023432684792403,9.768320443130206,-0.002567667980587492,-0.003481883490174198,0.008146090807687243,0.12
-0.13559749110077632,0.04826994125499261,9.79514098319355,-0.01474109867347774,-0.009806979315977576,0.006333041477728174,0.13
-0.0012082825081758816,-0.02337141942292485,9.684550200007731,-0.007487452290390438,0.0014314794223071984,-0.011666946447821893,0.14
-0.23997517834271442,-0.059939307197193925,9.938989249243926,0.008994043658269123,-0.0006342965215755538,0.00021442874239680163,0.15
-0.15849190862025497,-0.10624931461640469,9.946204232706119,0.0008679316633674579,0.007853559860643473,-0.010136382253035942,0.16
0.005342143514607109,-0.005293202335192611,9.89651071694381,-0.0011179532071229896,0.0171166798577688,-0.003932796592002422,0.17
-0.0009920799509023452,0.11428263123771709,9.937569336943179,-0.007734222567269423,-0.010607510622036978,0.025327725703075756,0.18
0.08384361895285397,-0.012338263960730449,9.712543421586416,0.003132000894267703,0.0031979828136493634,0.001558359174378267,0.19
-0.19062723613427146,0.010915488037297125,9.63652148385124,0.012040303335900145,0.009324156603813048,0.0061315615008345715,0.2
-0.097176214432586,-0.09161641449022112,9.884382793897068,0.01636703475850218,0.014471739061925684,0.0036711807681869854,0.21
0.03571971913116622,-0.052091130793262885,9.71539308427123,-0.0022738018656778833,-0.0029368942889617324,0.0016916621488586349,0.22
0.053673256242266446,-0.050154460027764726,9.882934220930233,0.007131331956788747,-0.008995237902908695,0.008656664431152731,0.23
-0.0011790321166918174,0.021917796127542768,9.637892151747918,-0.00658011606645613,0.015721946090169997,-0.0087453591963955,0.24
0.04117925724091234,0.032358414632093976,9.814542138102034,0.01125339653198683,-0.004568133565739172,-0.011457668918999322,0.25
-0.12683333481546785,0.02111312383481101,9.807467268549818,0.004258515611430946,-0.010934293590131698,0.005914587810209988,0.26
0.14375934679869182,-0.10353974365133774,9.91487922170955,0.008272855884391455,0.009545360566948932,-0.004963697979872567,0.27
-0.18512819086244295,0.15373771025129998,9.855795443971486,-0.006145572800588971,-0.004072012742283523,0.012577853196690478,0.28
-0.07249819416638029,0.08650196857976111,9.62766445267369,0.0037970246214634757,0.008762113514968365,-0.01987198045396998,0.29
-0.06890774161715318,-0.1112804206595077,9.99707897058263,-0.008500222307803116,0.007261350870269693,-0.008138224410054873,0.3
0.14035138200669706,0.10874590556118191,9.91236414003902,-0.02149409439309455,0.010065039621059311,0.010066744597625674,0.31
0.007298631020945127,0.0198043518399037,9.72408200793308,-0.01601851860384327,-0.008415222509347753,0.008372587180458175,0.32
-0.0469687798531428,0.06752978081114429,9.742943526018138,0.0003532812930354384,-0.006425910465398603,-0.02044126293802311,0.33
-0.13792776112130192,0.061767966998617,9.707965530257415,0.0061853159001597074,0.004541097258852696,-0.01088519179791993,0.34
0.14470149391323936,0.19798953104927844,9.847322675551906,-0.006407755222370887,0.011751966479466502,0.006322315480392962,0.35000000000000003
-0.06789641958289984,-0.11852620807139458,9.889153248399515,-0.021155337052058933,-0.0015428686299997511,-0.0010837261528690658,0.36
0.2946922389625437,0.027867747831541913,9.888769857199128,0.02574127786309921,0.01182400329161834,-0.0026504558847857606,0.37
0.05311753225157594,-0.12352770204891657,9.95626279845363,-0.013945983653314994,-0.006151641886632768,-0.02219748048029507,0.38
-0.04964754676467039,0.029517689299037798,9.94779735617164,0.007363124095681587,0.017556739844406418,0.005787045589721049,0.39
-0.0075948727249860295,-0.1296391709491644,9.637508553295994,0.0016378083555357904,0.0032643038220397185,-0.00021396789927766378,0.4
0.009326445840988016,0.015983098036353213,9.827606744553538,0.00028953788309389063,0.0050292206230502234,0.003364509216630685,0.41000000000000003
0.03054794746515497,-0.15235401856523753,9.831881994620408,0.01297803593705571,-0.008704502628224252,0.004039964742425367,0.42
0.20241774686170522,-0.03202276252977561,9.833447300361202,-0.005416572136502243,-0.00780718425980681,0.012015406608430977,0.43
0.024175013029810736,0.004603048972847432,9.775913648627355,0.0010373067761123365,-0.020653855622814507,0.0006800144872846596,0.44
-0.10649418756183777,-0.14294318905506423,9.88446220966854,-0.005077845565639529,0.008619092449223027,0.004562970922828103,0.45
0.08163215539633695,-0.09439283879991589,9.810334412246402,0.011611829298997357,0.013236469136026382,-0.0027089083360157585,0.46
0.02382410983718119,-0.07193414286949522,9.921659545527785,0.01072154110203301,-0.009954934735541456,0.012746164811877495,0.47000000000000003
-0.136141077770555,-0.024529071564292,9.708897312183506,0.02287586288530009,0.000762218889127812,-0.010209885398696808,0.48
-0.09577564654880752,0.005996854046675463,9.878345990117584,0.004643803720137287,0.004326030562797934,-0.0006130124047625598,0.49
0.06033285178321351,0.02068484915208775,9.797831592104938,0.0017894715158769993,0.006520492790837454,-0.00853390499588269,0.5
-0.08169156545151426,-0.04827367632547351,9.703844969666747,-0.009556843347864151,0.00790991090512695,0.005811137611399647,0.51
0.04751831018504004,0.038876465329373076,9.787157571536484,-0.005297942769401327,0.00968742459560821,6.73741337122061e-05,0.52
0.08196774429003255,0.06726786030175534,9.771473985172827,0.0025674231633955563,0.011187747703677765,-0.005393607342691095,0.53
-0.013464714756581737,-0.0671319557208916,9.856150033266427,0.004282502721890571,0.003080945252729987,0.015040174259881096,0.54
0.022525707387608198,-0.1683873547657269,9.567876710603752,0.014793837017288492,-0.012471736170806092,-0.00473102405296007,0.55
-0.006731680742440098,0.03324191445180847,9.70497661223565,0.011582790753505852,0.0017297201372429133,0.007417116700958986,0.56
-0.12996588146643517,-0.09728289218153108,9.980696858096971,0.006797363821993369,0.006244443903903219,-0.01107266794013481,0.5700000000000001
-0.04946115418178081,-0.03835186891182274,9.878143929675105,0.0016199215971771633,0.0005137473041033423,0.00812475812342892,0.58
0.08004152660688403,-0.05492412532996524,9.59153356071186,0.01149281183075226,-0.01755024270643519,0.021511774189452385,0.59
-0.12247571399754731,0.0006829385464417968,9.717097891767443,-0.013656231340767796,-0.005668007200450953,0.005825805836691167,0.6
-0.2419965511056521,-0.05821867190312374,9.68931555960459,0.001373565573959523,0.0043161173444896195,-0.008326275254144902,0.61
0.07024389714515426,-0.004376711766048607,9.878245276213512,-0.00829826228366309,0.0011812855401149571,-0.018528129812517703,0.62
0.07732331396718722,-0.11034554004075817,9.858876645710554,-0.0024123239973793628,-0.015460049688196116,0.0054621746020064536,0.63
0.20769116068291812,0.007854398967666229,9.820009652955049,0.006730446783715794,-0.010149781051950899,-0.0038180321985486682,0.64
0.025259670509525486,-0.11867912091470195,9.712467949656292,0.014724937453334992,-0.0068882924323065055,-0.004318864808369102,0.65
0.005428834085716801,-0.02303786831655477,9.660224972980247,0.006030091472430942,0.0026028909186462707,-0.005500441445001649,0.66
-0.05935012328314231,0.011305958801803961,9.892078447491382,-0.0013990291719156158,0.0007198426489258116,-0.0014176348229146174,0.67
0.21420747630110842,0.18258348545210512,9.671082821092023,-0.0006276245307128367,-0.0044997274997446695,-0.0013456296632222678,0.68
-0.09149559399640575,-0.18237880465469783,9.782718866157742,-0.01359910452064829,0.004437755489241736,0.015307473726304088,0.6900000000000001
0.07180951179718055,0.06239698242188685,9.761086690315484,0.005150781280850174,-0.007300208255971651,-0.0020434767987277743,0.7000000000000001
0.005640042587653034,0.02233674527425339,9.799266562988839,0.01353647729287232,0.013401724153923118,0.017904182937573728,0.71
-0.06916690984882938,0.012960047524690233,9.699805441863003,-0.004124670043205532,0.005108553243898849,-0.0019640857337516917,0.72
0.1974995403365906,-0.0498393505666233,9.793559593793411,-0.0006953063336445212,-0.0002006483110281868,-0.023617165001437197,0.73
0.03547930115685304,0.0024420430322753144,9.718959377406346,0.0007068230558524845,0.011856496068535529,-0.00195874734079648,0.74
0.09123646631528694,-0.03238381252504815,9.78326643043205,0.008250810907579273,-0.0004211554162275638,0.021099726644843417,0.75
0.05659032482116391,0.08866463549289555,9.614451484930665,-0.019928745155214776,-0.011512890539474048,0.016761960681138912,0.76
-0.060623156751944234,-0.09693581140929941,9.75342581358118,-0.0052280631008110165,0.005895514549665894,-0.011060755843455177,0.77
-0.002002178232679613,0.05780415897062338,9.554689559162465,0.009282245948746104,0.0071402600578670886,0.0019323592884663606,0.78
-0.008358770082233818,-0.11081084434100402,9.829512160196202,0.009059822082267492,-0.01786306651308531,0.007160344335751781,0.79
0.04762459947051481,0.04196233008526155,9.946345736399842,-0.01164734275213906,0.0029623240829074926,0.002638759199714662,0.8
0.09201985148848782,-0.11707485960348454,9.69872877366782,0.011761650008313147,0.01061979607809713,-0.015422612425205356,0.81
-0.18966506940651018,0.018969816757846706,9.903326435414089,0.004848442817375123,-0.01112231050379307,0.019151065036475505,0.8200000000000001
-0.14149492945618647,0.07315122295204914,9.76685086940191,-0.007381905597534594,0.014688485935788349,-0.007357690210936617,0.8300000000000001
0.10338515956330718,-0.04310442762988615,9.848215595524422,-0.016535151619455228,0.005683969448706487,0.002842267876887695,0.84
0.09311444505064093,-0.06865022813456322,9.718432500306369,-0.009049504271060278,0.010891748766422928,-0.008112986850495687,0.85
-0.05019685715922249,-0.10811502979524223,10.08465166238472,-0.0093224678034907,0.005372854462251829,0.010890000474250205,0.86
-0.09909440601575564,-0.14381208782985774,9.746102169097401,0.027602866159696548,-0.00951572281892058,0.01840984043957254,0.87
0.016232818936352266,0.017328350608712764,9.785237368369776,0.002317056356924543,-0.015350403416206818,-0.0001885489980959302,0.88
0.09143200087400938,0.09353484712197918,9.709050321162499,-0.006659905347619676,0.0024853133958437842,0.010347913190105222,0.89
-0.012619294270425397,-0.05365695198928604,9.761558054321355,-0.005713257897459689,0.015450525626094603,0.008921125915809788,0.9
-0.048571736336754816,-0.24151162438305548,9.767242363699904,-0.009395371737358684,-0.004881119695507201,-0.019946776971455544,0.91
-0.11314095886751906,-0.09899604815944603,9.901291646931467,-0.008428011401203974,-0.010877347528033725,0.0042315885673125464,0.92
0.06942906005864928,0.09748084804211415,9.783720763740204,-0.0025244828905006916,0.00808360071544586,0.005228149418556633,0.93
0.03632887499527795,-0.17456602965141937,9.654063290803501,0.0002842006353840789,0.006516332721969264,0.003527715847955292,0.9400000000000001
0.12173817724396796,-0.04930967178936128,9.820424310722487,-0.003161360471706513,0.0012645703819556143,0.006494022112261598,0.9500000000000001
-0.08548844515642628,0.0647815720856066,9.859983667203675,-0.0052601504265352,-0.006936987294875515,-0.00037743415977564514,0.96
0.06372485196243562,0.09539006870526504,9.715646029160308,0.0009209745775684717,-0.007006208481774415,-0.0026913216249793734,0.97
0.028928179374475366,0.0458744492906879,9.746296699285624,-0.009631964484055507,-0.008324411645733939,0.004707570040753125,0.98
-0.04507319335360524,-0.12537539027269126,9.917384773347358,0.005067716293375436,0.0019015166430726772,0.010026350609539783,0.99
-0.13208167699289883,0.03372998015911538,9.781512349169464,0.007938091116480604,0.008932221765766694,-0.00913943093554439,1.0
0.08197640116136705,0.029589873764931232,9.691995189287235,-0.00021371800965588642,0.0036267350503238695,0.017104693580842704,1.01
0.08699769327159382,0.0023676034759542042,9.9472389935293,0.0015225679388198206,0.016335596279174025,-0.009610707125236996,1.02
-0.025504912707515925,0.02677771153196991,9.938427841056514,0.0008468409994994379,-0.0019905803202732698,-0.018558791797558934,1.03
0.06088867176098951,-0.02361968588943167,9.791516830195151,-0.000998219616314386,-0.0029274513439179624,-0.0010737884486451564,1.04
-0.03170613823425304,-0.05932990559804038,9.694491569979817,-0.012020261056737347,-0.00042951089318905324,0.013013911559056906,1.05
0.03255451853130224,-0.15715399898173585,9.923966452296353,-0.008900845969993423,-0.002264882435921709,0.007041598424944625,1.06
0.015072760482135359,0.08169411116053726,9.98957622387101,0.018976235028711125,0.004322559823103229,-0.005439426527526408,1.07
0.026622953388780055,-0.004034005016332899,10.076210560035703,0.005783734784565531,0.001037268272291641,0.0053201952001155055,1.08
0.03832130728989791,0.03732238433800863,9.91421455891044,0.02474480484199614,0.007688728307759729,0.0014558253181621958,1.09
0.03295978376077762,0.05736117414296239,9.836664655177577,-0.007927821874533602,-0.0031625038556092433,-0.003985326797986319,1.1
0.0823044088881984,0.0018907005179538243,9.771030476323142,-0.013348699455963927,-0.00380074298971475,-0.006570598722101686,1.11
-0.01800736149850478,0.11017927265931718,9.779896339384967,-0.003958604777066158,-0.00679680750190497,0.013003029934433618,1.12
-0.057958220380267184,-0.029051281222686368,9.80724098236337,0.010893246859553183,-0.0017536267064383613,-0.0023099913661410757,1.1300000000000001
0.09907942949315836,0.13316603330630195,9.985341711867436,-0.014841941813278713,-0.004687571022355215,-0.013394195113920775,1.1400000000000001
-0.07048260978136944,0.009092686302769862,9.727929539101368,-0.012977486887539254,0.016425473436484043,0.011410635877258664,1.1500000000000001
-0.05065059124877504,-0.1521250878815127,9.719920220357341,0.007518909497433278,-0.006536445593425698,0.0020719668075890522,1.16
-0.08755801000416107,0.14912073326292968,9.775924749097731,0.006951818577904765,-0.008293385451553012,-0.0007269967544699415,1.17
0.13631281049380786,-0.09253971774614073,9.920742818724142,-0.0075652046720858035,-0.014911346572568991,0.015524915261250273,1.18
-0.0011164696310813572,0.07311269020431506,9.80434876128656,0.014109054523686418,-0.009036183904475033,-0.011771554420495106,1.19
-0.11908614706513315,-0.007562263947959152,9.836523083167238,0.002633744465701455,-0.019256003417978933,0.0003602250648119527,1.2
-0.24552624691028058,-0.05242322426069401,10.005492040782745,-0.005004098542612754,-0.004582946680366102,-0.007314885844688772,1.21
-0.028119045240850023,0.027504201213042402,10.000085063350427,0.0067337080979089,-0.01191649836938064,-0.004998055992128963,1.22
-0.1565868013306183,0.148570192916123,9.943718758777555,0.0015770755568520276,-0.012833960292989778,-0.011230422810580107,1.23
0.0013239238496466701,-0.27128925873277565,9.82390951543914,0.0011642096991183485,-0.011327850940746566,0.005435604543952216,1.24
0.0325400638780022,-0.11939734776547387,9.90070216548558,-0.011511261161361088,-7.888578811545338e-05,-0.0064228638941186056,1.25
0.009812785678243063,0.04740101838846966,9.876066080055967,-1.5397309471126048e-05,0.006029182118617825,0.007844507558097078,1.26
-0.07296070523001488,-0.06278966196441384,9.83771698442174,0.005511777890760081,-0.0116224522481978,-0.00017268270138581026,1.27
0.06917027852751549,-0.1895842710852798,9.753648990070982,0.014919720007164985,0.004469054121723509,0.002397511384892663,1.28
0.08368125147540172,-0.0391524425658765,9.891397591299155,-0.0013537186709306104,0.011247043047487595,0.0046653055604709125,1.29
-0.06040715138039321,0.01991531027253915,9.864260952782242,-0.015075278804071852,0.009584855985277266,-0.012461991335676643,1.3
-0.11487548104374484,0.11396921923704902,9.921013895122078,-0.00013963516119459398,0.00067617576939303,-0.00825559192029495,1.31
-0.1290361357292601,-0.0859308645555304,9.86299163121804,0.006049470579776461,-0.011345966109294406,0.008912286869676631,1.32
0.08263608170875453,0.06620794149072012,9.927202886299021,0.003146213406683538,0.004342200351716177,-0.0175271362570679,1.33
0.00384707499477856,-0.09777441646472113,9.852217850943045,0.015467029309444873,0.013930897031037894,0.0012903245373258026,1.34
0.002928283377910859,-0.13125520698304144,9.633206823416097,-0.010206341228816716,-0.00929095693091982,-0.01921669234299057,1.35
0.08836969098669163,0.025807184522875715,9.895412651930863,-0.00029635185435238694,-0.018454570550459994,0.0126522360386392,1.36
-0.03789451434690733,0.022807355208877216,9.927774589523327,0.002368808203503833,-0.01364058592034913,0.004107107335837997,1.37
-0.1582937395993922,0.10396697188178948,9.840877729322347,0.022002551547269874,-0.009389605732441337,-0.006781102048864291,1.3800000000000001
-0.09646013869601872,-0.04066474595640088,9.808905919352613,0.0024988786064764307,-0.015343124928158964,0.001379331718276093,1.3900000000000001
0.01538359122479848,0.14138620728841708,9.63925686964467,0.004078187495264175,0.00427593657349982,-0.009368477449027135,1.4000000000000001
0.025405704706982064,0.011063163685040197,9.693236755390862,-0.009632554784843355,-0.025762642586009913,-0.009932805859522392,1.41
-0.05592616396186528,0.07146340734520544,9.965414738983327,-0.004933480181097249,0.008492992488232366,-0.018372441154652783,1.42
0.08788987059699793,0.07086055277202348,9.804420747391,-0.0022422031788401787,0.011686091922939361,0.005077110666765029,1.43
0.02379304668000355,0.013569924225660805,9.809001190911665,0.0015093723529397748,0.01331547227970489,-0.010344961335641487,1.44
-0.022636270929115788,0.09778030117676736,9.800920637324221,0.013635170762242082,-0.015738921564768086,0.0047222883976292965,1.45
-0.03744278558265214,-0.11825025616043792,9.863896083695868,0.006979267071644599,0.007361615446569226,0.01392674346852686,1.46
0.0931586610242649,0.04892174642209153,9.849083531342904,-0.007040918129612882,0.004506253097186309,-0.022323029121229677,1.47
0.11324501491398387,0.26989861139288024,9.944451936722462,0.004677333443858105,0.014734147940236472,-0.00730946257924309,1.48
-0.0915744899824574,0.13049304608606624,9.69290175597994,-0.007432789558182418,-0.013412938463676853,-0.016987279224836744,1.49
0.010757095503318914,0.0503927566967177,9.682674953175225,0.00031663253602478295,-0.01416683385462995,0.0028404755891334515,1.5
-0.008394781284679121,0.12784278685595366,9.797620629612354,-0.0034185253373877527,-0.007371533258827892,0.00581173180313987,1.51
0.1062938785812797,-0.10968914855191676,9.745506380923539,-0.0007884554552406676,0.01603197400365426,-0.009228336003863616,1.52
0.06141266799213651,0.17390670921584414,9.813743729051552,-3.5856891414354234e-05,0.010625844597185272,0.0019499880370980544,1.53
-0.055534765532688796,-0.08828158815382024,9.807070130322868,0.010215029474613942,-0.008519306174482818,0.021669015403553225,1.54
-0.3154595679120843,0.060161379891529955,9.877615671416534,-0.003553093167100646,-0.009074796954598055,0.01842528334011,1.55
0.03357133163873454,0.012167301095665523,9.7360372622241,-0.0022691287864742937,0.005330907615150724,0.0034005677859286067,1.56
-0.0536519040811284,-0.16495649420264413,9.780629444429918,-0.009042220886534322,-0.021212117956347327,0.01086820671911652,1.57
0.08236676845971679,0.07608788424160481,9.720281264418192,0.007878548098366505,0.008348269181041519,0.021601945952760597,1.58
-0.11528937425700969,-0.10046649419029706,9.8499105248272,-0.006670897150591131,-0.028135979551353763,-0.016345045538655616,1.59
0.07279706564441508,-0.09447259815084641,9.772267013599883,0.00656837317004462,-0.0002229139234208338,-0.0048842526460137125,1.6
-0.04210679573660391,0.06412025442538323,9.867032023589589,-0.00811764234006884,-0.015770110474553036,0.007862015947108444,1.61
-0.10342494295766587,-0.029448346089837776,9.79757568877319,0.0037244161151681046,-0.012960283740264646,0.002285737589944759,1.62
-0.09291857809555547,-0.05662169713436169,9.765747083083538,0.012090664353426048,-0.0022341460027621427,-0.006735350131375177,1.6300000000000001
-0.015620679691260518,-0.06354311419315595,9.884917587799963,-0.01409592645151192,-0.0052978021101221595,-0.006107814184481757,1.6400000000000001
-0.1861725194889149,-0.028436651419719502,9.87594933298013,0.004591740624251418,-0.00033827133728502046,0.0025806800584695527,1.6500000000000001
0.07880810805395168,0.027662350773047507,9.86771999644667,0.0163548793486236,-0.003561634088974332,-0.0008822894026103789,1.6600000000000001
0.14206439808379975,-0.0881653388751062,9.947090264480737,-0.00569576283278912,0.0068981160526003435,0.01036091926466219,1.67
-0.04653028773393295,0.05807922857898106,9.986515119927496,-0.010300783408311389,-0.012091727033314174,-0.016758234464151932,1.68
0.09699439117912118,-0.04446591684636053,9.75987092593159,-0.008073943574350628,0.000634441727990701,-0.0004643316918563946,1.69
-0.012677375627003357,0.04536047168064755,9.639338127777071,-0.00477694207892781,0.020321440653032347,0.010223437492849844,1.7
-0.05944877748823857,-0.048127782649502106,9.822080222244987,-0.0005711803719809903,0.004405878005146414,-0.0034855607781117026,1.71
-0.12491234003320284,-0.0013316816242402748,9.91089264179837,-0.008651978563140322,-0.0003196256817934306,-0.008047160570307141,1.72
-0.16116797222328688,0.02780563013770341,9.966483918429518,-0.004828653606998217,-0.009769000834440152,-0.010714877951788911,1.73
-0.0660638793423735,0.06101681620038163,9.599144217385861,0.0036541893950243452,0.004948528147169785,0.01043733027943631,1.74
-0.05152723242437606,-0.08079441598410833,9.958589426270521,-0.004836005631304022,0.011753044240943186,-0.012108099436806912,1.75
-0.12956414517897757,0.0016658705501362268,9.716516797668023,-0.0020234248728490008,0.013289553683526146,-0.0022693066723991294,1.76
0.03841731790186492,0.021353000632566906,9.924142343027935,-0.0003832779900947035,-0.009362383190204819,-0.0015246764906921254,1.77
-0.0016400443764729889,-0.016007805718810064,9.7472349370376,-0.03139299199218622,0.015551328992805575,0.007499340178889764,1.78
0.12750574616683585,0.01798310428293826,9.804675597577196,-0.0038923348985848874,0.014994375394634041,0.004086065867440835,1.79
-0.0006519359370719042,-0.009372748683899782,9.76397337941177,0.002086309378785046,-0.007762488310519748,0.00809003838917772,1.8
0.07077070754790526,-0.019589291165801968,9.84683629331195,-0.007704337041153193,0.0006791227401318435,-0.005655908230789578,1.81
0.07891331114038969,0.11888807378924648,9.777042214120437,0.00382643508698053,0.0172931692675739,0.008986220103218936,1.82
0.05784157162898085,0.0752322495283231,9.748673913745076,0.008166043167559332,0.006696875816368207,-0.01245016607007513,1.83
0.04367772223160023,0.04035874331309753,9.962909851432505,0.007625049611731835,-0.019822900243701196,0.0037422890158222036,1.84
0.26057286679194985,0.046745046162273624,9.831159548770135,-0.010058069215075302,0.0025146268755052333,0.0010725073286944088,1.85
0.014884496614880323,-0.0356727745286694,9.809739591911468,0.00016589341507450585,0.004191770806563774,0.013000544245588906,1.86
-0.026694647907679853,0.049194899354018315,9.936897152195856,-0.008129213067001605,-0.007934202310571044,0.0017004540634328882,1.87
0.17699679548272954,-0.022700108117427606,9.724447748611162,-0.0009587819345600725,-0.0032615301734663267,-0.004265755194449673,1.8800000000000001
0.17260131877113816,-0.27901581264509817,9.88828004235656,0.008644441290893262,0.004060232781069364,0.0010696447120021185,1.8900000000000001
-0.10113036888284706,-0.0014103494965200178,9.767615814517981,-0.006963379937082775,0.000246413480206458,0.0053747414359363015,1.9000000000000001
0.029589576951625687,-0.034200461239051724,9.713787486963167,0.006077508545171893,-0.003338325317609517,0.0059853657762810545,1.9100000000000001
0.09294019223218691,0.14649856099866554,9.936430930097139,-0.003339560809083812,-0.0038369128891691134,-0.005388992944426475,1.92
-0.11952506649179198,0.03887279255848244,9.786640523438514,0.0001930477350236164,0.009154683155104728,-0.0026070969502631244,1.93
-0.1040810916281415,-0.03257431643617258,10.010248866952683,0.004367894526033447,0.014890053603138484,0.015072663336195226,1.94
-0.0033930212550161913,-0.04338109140196178,9.874064452864607,0.004985010553963363,0.012118073630057034,0.0005557790166631391,1.95
0.18963340324281472,-0.017981111839301258,9.727185223720555,0.0038980988026605626,0.03079593706055758,0.0020284485248616407,1.96
-0.16901663337950087,-0.21001452849670446,10.039675741498362,-0.01761059929656734,0.009384278395718112,0.0019016571053653343,1.97
0.057255414384151604,-0.05784656495011066,9.723321843633212,0.013321543433161387,0.006877036884886697,0.009382083244414963,1.98
0.13486930645628403,0.07183904717618197,9.827670483569618,-0.015036654871123396,-0.0006094887969117703,0.0026922070738788417,1.99
0.09124808152947406,-0.0927669929221057,9.870905157743938,-0.00923920400698127,0.008015112594616647,0.011934286770908145,2.0
0.04721334559157716,0.030035026262082126,9.783251230043366,0.001967198714833749,-0.009758818935172737,0.002701601404552998,2.0100000000000002
-0.12811944680849194,-0.09487345714957404,9.75354236984083,0.0030702468735402666,-0.012782843004641706,0.007015307413322453,2.02
0.14455865456203024,0.0027213850184123587,9.738166563161142,-0.0010847089895171765,-0.01754554354388387,0.0013659954101598757,2.0300000000000002
0.06774884220178243,-0.11589791402175027,10.022925447379986,0.005299970479053901,-0.007798325623264241,-0.007381091255346499,2.04
0.10785331659220905,0.20997716365194008,9.862296578523928,-0.01570607427351856,0.008336383620299197,-0.02429893124345566,2.05
-0.01158460432694446,0.03586454428275498,9.726098781957678,-0.004439085116746093,-0.02233634026231707,0.0006784124254252365,2.06
-0.024403089529243416,0.13797179198349155,9.91796045864785,0.009487754083593624,0.00028757511983321126,-0.013884903768484658,2.07
0.033835183830957176,-0.01776163692069307,9.751355851387821,-0.003643575109208999,0.00020585975236810043,-0.005869301633682362,2.08
-0.01777677503274991,-0.025323265859366253,9.654806157903055,-0.008538916818428008,-0.0012343448026235322,-0.01969995619105611,2.09
-0.03691987742723189,0.07439955792378039,9.67799457017921,-0.011706544944263195,-0.011713066546500391,-0.0007691224677914242,2.1
0.04783579846329292,0.02743776552905138,9.895656596282356,-0.026594683186547202,-0.005850078216677578,0.0064670693646080865,2.11
0.20916033545406815,-0.006650395577720185,9.81145427455296,0.003362014327811906,0.005853421471332913,0.0059563594651743015,2.12
0.09077030625708281,0.04698722997909016,9.730849470119143,0.016676364105675908,0.006376634073706199,0.006244372571384421,2.13
0.1029968102697151,0.037811941609890015,9.718991289602414,-0.003230246090348722,0.011206549804208384,-0.003191367325886954,2.14
0.01739270896196776,0.02334561945186556,9.678860719977237,-0.026059116875361416,-0.017399598653291312,-0.004544046762418268,2.15
0.04485784514546388,0.02523706489226756,9.783194176151484,0.00451665903107172,-0.007687970745525712,-0.005881815271180884,2.16
0.1937816485907217,-0.09726623676913795,9.9342743551486,0.012815328410084448,0.017010245943417407,-0.0019457931785719046,2.17
-0.06625418886838068,-0.08900586984293146,10.048831032984086,-0.025422602102980512,0.00593515258168504,0.0026072601771738525,2.18
-0.03663579314514685,-0.02054931942290404,9.750247535197444,0.005725558499702639,0.0024589245647603586,-0.017545852586436355,2.19
-0.11627232238785126,0.06011471127234334,9.867678877638298,-0.0007775177433201345,-0.020120344918559692,-0.007500278290531411,2.2
-0.0065785826590025066,0.053910727133354125,9.753850450735703,0.012777401509681865,-0.02005844910859608,0.00927571684676866,2.21
-0.10231464721041972,-0.07297804399032191,9.681284736264393,0.004128147815225805,-0.0004101654493828474,0.008558348029825826,2.22
-0.06581362013826159,-0.1230193048080459,9.717261453291945,0.02158246797464476,-0.008556352677251777,-0.012491683959545847,2.23
0.155503887920019,0.11624181354940284,9.9909833540042,0.009154784215553567,-0.007820915604907705,-0.00010983669695383762,2.24
-0.051427793077523265,-0.010498041778728524,9.656946541000373,-0.009265879876302197,0.005940143896529363,-0.0016519428776404297,2.25
-0.012002456092114101,0.07204613900363144,9.673011055455298,-0.01258923772658625,-0.018116800119596634,0.017007996835924834,2.2600000000000002
0.09067741858238694,-0.011776918546931334,9.801699215172437,-0.003020203077910038,0.018044027294046864,-0.0070310744012470104,2.27
-0.09235078760731326,0.044658456234061575,9.923444138600896,0.006686614059059578,0.0004912398304992736,-0.004749167372511561,2.2800000000000002
-0.0561133262835171,-0.07253909081219644,9.809932647348237,-0.009083551496603755,0.0010683429387895907,-0.005872461004316292,2.29
0.20010295860149507,-0.1334698718192031,9.896775954661322,0.015982524283039895,0.00197583338318465,-0.012513775958369664,2.3000000000000003
-0.0850501305160156,-0.17572225275528638,9.72608485598375,-0.005200234959233952,0.011457726771627043,0.004852286357293143,2.31
-0.04657162512301459,-0.08752898902733518,9.931852990160332,-0.010356262586997653,0.001751256561177601,-0.001628854880551926,2.32
0.13062671204871198,0.2832721504986287,9.803818504046415,0.0013896379858583168,-0.0067924086261202865,-0.0035356458860210174,2.33
-0.2335354690963005,0.08907380063118178,9.896796222547238,-0.029311116877282856,0.005035828664005286,-0.0090559458197597,2.34
0.08038792917501661,0.11250021782043901,9.870442994686822,0.004384292004218378,0.004403307807798314,0.0017826460659710087,2.35
-0.05178522468197673,0.037665049858089376,9.905341236677666,0.012240545675313587,0.003650351639021624,-0.0036082242127550967,2.36
0.047331034954325515,0.015864033796103346,9.881597015681445,-0.009819267646532957,0.000423913980615827,-0.005675398472360251,2.37
-0.039963327815862704,-0.03243408489916717,9.811101912886334,-0.015903522697060822,0.002543864261021982,0.005884209269392933,2.38
-0.021494835362729142,-0.02089451467642629,9.789783452850097,0.006064657384334229,-0.003193029194685483,0.012505344221762795,2.39
0.03186032376756306,-0.06918366176655356,9.882730710683864,0.014823891043659276,0.008589935675983667,-0.012187435035425385,2.4
-0.04080589058250178,0.049553959639177046,9.917040123274894,0.004000263416876928,-0.01161607319966984,-0.01435940094238259,2.41
0.12224544244902112,-0.06538571312577283,9.845539873661636,0.02008935473008391,-0.00027998885072609943,0.0032540454547974143,2.42
0.01511107849166735,0.028439155775967853,9.741178246445152,-0.007141311387804438,0.01251772720798329,0.0014662344881180324,2.43
-0.01633252983349408,0.09345029798661686,9.74527278779187,0.006493504645529766,-0.001149249965179627,0.01520867953266095,2.44
-0.016757238962144972,0.08052348647828697,9.740452439615174,-0.007715828622942649,0.009849228471709513,0.009765349852086347,2.45
0.0918002841298753,0.0009300153038465539,9.863028184570737,0.015247683302059094,-0.01182389309417346,0.006791047982599707,2.46
0.051177140556057946,0.05653650042335423,9.987075717728528,-0.003410174677000917,0.0085863585929264,0.0017380090588931547,2.47
0.04389881461348984,-0.0468230362462975,9.710850154248526,0.0035157103234683467,0.005912073053044781,0.006250465449952581,2.48
0.14550948617117618,-0.096547962540809,9.730781296516454,-0.010259724257488365,0.009291423064756664,-0.0019434486736657989,2.49
0.05411045976449347,-0.26966162957060896,9.824883910699109,0.0009564837411427031,-0.001749986357576276,-0.007712175732120511,2.5
0.07161774520494722,0.025957253973134604,9.981604065404571,0.0019829814239053435,0.025631946678052412,-0.016337412527517435,2.5100000000000002
-0.011054488839720477,0.14182834285526047,9.64847434299509,-0.005635071037252408,-0.012144689714738888,0.0006355246186469598,2.52
-0.13085849399098,-0.03749925873220338,9.67878362718471,0.0015163596287931936,-0.006099058063782789,-0.004709514277448605,2.5300000000000002
-0.07744965360934848,-0.00011235314035541345,10.062545479296372,-0.010592437920447033,-0.011350202952619537,-0.00975727889176716,2.54
-0.08796369279193725,0.05388816017003439,9.778883444097227,0.007233575421722525,0.0025850051965541484,-0.016311513999044666,2.5500000000000003
-0.0014559918742212555,-0.15993462269781145,9.685689536337351,0.013382156402079038,0.01343609289330204,0.01489754527673478,2.56
-0.005138899596481547,-0.09389697301809147,9.856120531030523,-0.011085556902088161,-0.0022179741035120494,0.0008969996733052863,2.57
-0.17772123360075567,0.12498574150265734,9.663999150450094,0.004903828118773629,0.009767669812233865,-0.002467692794986594,2.58
-0.12235148427737519,-0.1362121581239327,9.709844727638004,-0.0008806334690695478,0.0023471484700739783,-0.00355755159977812,2.59
-0.017449707715576915,0.10310974027312102,9.818077878369099,-0.0012377711900156438,0.014174470335483478,-0.0072295319745057755,2.6
0.15236119601154507,-0.18497813028538604,9.740753677813492,-0.0039540996667851,-0.010567764526152698,0.007491810675161682,2.61
-0.10712728159029761,-0.048953452950305454,9.701919371423042,-0.018713457433805702,0.008450471752070905,0.00803662641997149,2.62
-0.050119172463963906,-0.10557431251385335,9.852355234538791,0.016346353818906305,0.007141462100619808,0.025712210800105297,2.63
0.10694422820030691,-0.07051113382130766,9.95437598117208,0.00036619168512617105,0.01400185796952961,-0.007996638159829886,2.64
-0.05967830322117401,-0.020475371093715125,9.741774401553547,0.00015055455180133635,0.010831462844053605,0.01502138097252531,2.65
-0.08046813382738183,-0.09843357425480834,9.867532236083733,-0.00285107937077802,0.001728032677321002,-0.007235978495914857,2.66
-0.06833298044496607,0.03115519377958704,9.90357801602459,-0.013980559723266228,0.0016334271350815358,0.011178631273321495,2.67
-0.02997373321887783,-0.021969968236155782,9.849901680356522,-0.013722066883039816,-0.01687322052648142,-0.005091231589875547,2.68
-0.1097391149243092,0.06421400316118875,9.955047241760742,0.0031967673613187,0.01390363628089607,0.0018082556548095522,2.69
-0.04368422864401292,-0.10872773927847681,9.839712601858857,-0.003810536644162048,-0.008862522388195482,-0.014644938052371671,2.7
0.15443243745485633,-0.0355743907646433,9.800423539870339,-0.00602785266930782,0.008910019386743705,0.009400419001987896,2.71
0.09211100135145442,-0.03742606340871393,9.74957680306855,0.002650554395645288,-0.015490809988117301,-0.0042109251854655205,2.72
0.08239336419570442,-0.08368101608279023,9.659992548842094,0.010690603469383357,0.0015505143535513297,0.002899656989589765,2.73
0.09570884643305407,0.03424581151229912,9.613459733030279,-0.023766804437125432,-0.008566062539570764,0.0023857806180632886,2.74
0.006191321139154224,-0.1076533162592268,9.612792208437892,0.011913012647831955,-0.000973216364399159,0.002317277881391574,2.75
-0.0896981281075751,-0.052554671214931716,9.762374448235716,-0.0008125206544489053,-0.009141105712904446,-0.007676990946095037,2.7600000000000002
0.1968061448328295,0.0430598719002337,9.697615928931686,0.0012882118889980918,-0.004612347360944474,0.00769506779341402,2.77
-0.10339940890890759,0.0850305703640082,9.900014648194,-0.002365139780037679,-0.003528552675414597,-0.0084435660042029,2.7800000000000002
0.07285831369218436,-0.006252761866393775,9.891646537226812,-0.005289469115929283,0.010980900057918444,0.015405362952612843,2.79
0.17338712893592667,-0.04981859341741332,9.66982605822934,0.005842405328684233,0.003191424643395012,0.014415378990885493,2.8000000000000003
-0.025563960157417673,0.04747562301261227,9.755608398685315,-0.015142876386686814,0.007319597326184556,0.008893429618919367,2.81
-0.08036808073729466,-0.2348723919658752,10.03749165156715,-0.011824699699027346,-0.0053742335030580604,-0.005669206525423726,2.82
-0.1261063167123016,0.05609133035109548,9.829071760852656,-0.012206528661673866,0.020127471148827878,0.002261061587754517,2.83
-0.0007424520687226563,-0.10104035707438273,9.796187152964562,-0.0130639452383142,0.006584388596236453,-0.0053235944046202965,2.84
-0.03355185680396868,-0.04066570621792502,9.920131666821504,0.005459905559995141,-0.005854182903584295,0.006016446112197589,2.85
0.06476455746291719,-0.021593991327209964,9.907145862711767,0.015250451479315266,0.0032533888832569358,-0.009523367198614817,2.86
0.013670838482119325,-0.1593304238383281,9.806933615308346,0.015572858302650436,-0.0016380234252619517,-0.030284981709705703,2.87
-0.06371892587310964,0.06717871475118695,9.711985935830759,-0.00990946316148585,-0.014211804553752413,0.002481521450508244,2.88
-0.15229901444538485,-0.010548182124701051,9.745116886624327,-0.010283039935562678,-0.007878183523340796,0.0031599777520188188,2.89
-0.02266052229833848,-0.09113282136762742,9.804228795078778,0.02620818597501519,0.016670610234892726,0.00033650756418612896,2.9
-0.014097398718105746,0.029602115220615066,9.936916258607685,0.01532723956646875,0.011678915405049693,0.004164029867346703,2.91
-0.059463566688041626,0.008701986973907127,9.903412072844757,0.011391840495613216,0.0031505107347978784,-2.376919455716304e-05,2.92
0.14318591679443526,-0.05409703603425536,9.820834716708612,-0.0007569343163417847,0.004065317696638207,0.00728668723761386,2.93
0.2697132403766546,0.1200007097159127,9.794728929865594,-8.720907089293552e-05,-0.0019987527943048774,0.006634037735650384,2.94
0.09538392619319427,-0.16236621627541475,9.802848277639589,0.006573113212045748,0.010276359852523061,0.008862513141509348,2.95
0.024788528666949125,-0.04240741575789794,9.806443916559548,-0.0009734880873495243,-0.012830289702695927,0.021578055010446975,2.96
-0.1291594011729919,-0.012881277347384784,9.606658413894117,0.005270998645933856,0.003713626023543245,0.005921066825151902,2.97
0.0663315294262891,-0.03334101756294582,9.558837208397112,0.013061190082980947,-0.004257511140380314,-0.0032559166314413373,2.98
0.07857783881840286,0.20058888355543747,9.97163540442314,-0.005312163243388561,-0.01256878472009222,0.009184694511581243,2.99
0.1244551342959335,0.01997893787373435,9.609039114676143,0.010225875521405019,-0.0007033619803950584,0.013640665480953088,3.0
0.07985850637444664,-0.01501028874548196,9.784420863841317,-0.011543727003495733,0.010383196385394205,0.0077577517729057735,3.0100000000000002
-0.11218776185036705,0.1102733728786183,9.86176491250422,0.016322538232773617,0.008413664691837078,-0.009165367271437139,3.02
-0.05416265486337707,-0.06728419383253668,9.79358944052674,0.003942175933743377,-0.01594400647824793,0.02191991632245362,3.0300000000000002
-0.0053773041410561774,0.08515981516222025,9.83882707263781,0.013006011070315793,-0.01436391614165403,-0.0031799533857790885,3.04
0.02746197844041033,0.0008201151605661838,9.976469196756637,-0.0021758036790216857,-0.011203716107975156,0.005677967299601143,3.0500000000000003
0.02561451660785464,0.0443992434654118,9.718049315389946,-0.008436651912042889,0.014747719622147182,0.0022434862811199848,3.06
0.08624450778708773,0.14308194796769352,9.77879249192697,0.003644987906136889,0.00308130649834229,-0.00746741492725861,3.0700000000000003
0.10780818662932659,-0.11341891233542001,9.85895944468269,0.0026253466799064607,0.004887532446213107,-0.02152126345039719,3.08
0.09210335624280909,-0.11256262410347795,9.923887163203146,0.0047346204804033995,0.027182982961282597,-0.002782785631948654,3.09
-0.13994498066180483,0.02999625093793104,9.726298433468186,-0.02424031164398884,-0.018336408980352194,0.01615131972904151,3.1
0.016685087608427927,0.09301318079724104,9.824978927965013,0.0011638340975395768,0.0020592075725379294,0.01900231343801641,3.11
0.051695347290630723,-0.05642283219964185,9.805843723429374,0.012983972392786243,0.004115251877810138,-0.0027253916668706865,3.12
0.12503378072880733,0.05219028784554566,9.93750167278961,-0.022218514369137417,0.005047170967816713,-0.0005268070673032598,3.13
-0.08457516822714911,-0.019982188134968024,9.684877269278822,-0.017381902454082547,-0.007815648449316783,-0.027624284196400905,3.14
-0.09842060750890096,-0.05148096726759136,9.57594148621915,-0.0004774251859903366,-0.00016745443833478493,0.0004482294450132267,3.15
-0.00956851849960635,-0.11603003495589484,9.770295780443858,0.01086381291329788,-0.0008924348910306746,0.0014167253423707552,3.16
-0.002954396180633434,-0.012029987257561152,9.740392447730699,0.0037093296622613195,-0.0025978518359656678,0.0015147446690513342,3.17
-0.02813873080490506,-0.0870458189352189,9.758711064582359,0.009125535302387825,0.006587343218386087,0.005789772377690658,3.18
-0.027975351184203176,0.0735860127840281,9.853671039587963,0.0012978416323876827,0.001453491985817645,-0.009914682788661259,3.19
-0.1223218547916692,0.055884605981984706,9.791986742795492,0.013104638159577648,0.0024979460784781307,-0.003512440158513252,3.2
-0.060519672128312565,-0.15805181898834308,9.781574300508021,-0.004712851249457652,0.007209216220012352,-0.005694058831333411,3.21
-0.04490485927325267,-0.1475787866474215,9.834588839556378,-0.0076874336443453865,-0.01602782965706004,-0.004543215938873604,3.22
-0.11299123887662287,-0.18207174772975268,9.762582075158406,-0.0025457070118652487,-0.00811440943055395,0.005754887784034448,3.23
-0.1503907074154781,0.07586535320916007,9.941420335747571,-0.017987367492940373,-0.0022108650847006053,0.006946826128170922,3.24
-0.0027265228367603952,0.07213299504556347,9.704815337537722,-0.0003543752146423138,-0.010919548153260824,-0.013935127358840265,3.25
0.012912104594858687,0.002639966195986249,9.860328556736578,0.0053787531121488935,0.0025464782219924214,-0.0006902745923205866,3.2600000000000002
0.1390566733586727,0.05024571500550088,9.782780947091771,0.0005334953132744189,0.01787054403728465,0.002290897609677789,3.27
-0.13266665131698524,-0.029567000242961418,9.754263020445213,0.0017656033723488208,-0.020026592303882526,-0.005387995941097217,3.2800000000000002
0.011789647638302194,0.07211022699924764,9.983753391458182,0.01567942749054248,0.008221173323268468,-0.014901265998880784,3.29
0.19970963002884198,0.016210616644097647,9.899851988397664,-0.0027285884457627268,-0.0005904112779325856,-0.005910492773836703,3.3000000000000003
-0.1749814795905151,0.16971842248875402,9.793737876390384,0.00023902050064237006,0.006061889555326097,-0.0002595823194850263,3.31
0.0116230937152986,-0.007980456321514222,9.799823069268033,-0.01222364864970801,-0.002685743766195296,0.008431298473280788,3.3200000000000003
-0.05568932769030961,-0.08940523116804974,9.789778492289974,-0.000868719856857242,-0.005837810554112314,-0.0074911923784387125,3.33
0.10529515874450884,-0.11941134538578323,9.898859723467883,-0.0021134365963340154,0.006418233852470409,0.002255737076099126,3.34
-0.14512928675512154,0.15371729687546876,9.962612034671038,0.0024387257560863295,-0.0045041076445401515,0.006491887811803629,3.35
-0.019827196336362853,0.04552385232927843,9.775198462816265,0.006068045470261654,0.015132733819088195,0.005877784003144449,3.36
-0.016556485530059013,0.1518281400859837,9.806002407201964,-0.004225611335688087,0.00890669128959746,-0.0009129389545432598,3.37
0.021319920945278497,-0.07935793314153934,9.819222762810117,0.007130509958855792,-0.00487410270370661,0.0004384525048590117,3.38
-0.04901130872301229,-0.12949806657664273,9.935012621198998,-0.024496670717355427,-0.0024111358271918723,-0.005453235975665552,3.39
0.026883966049305725,0.017800680771648338,9.7347047978657,-0.018689086852932184,0.01585664425900779,-0.008061627860094064,3.4
-0.14347139969079556,-0.04873692766498019,9.992143111091242,0.006977902982117295,9.171330730482013e-05,0.000841187657959092,3.41
0.11701974933728493,-0.06679790956732945,9.77320143777815,0.012874681765781151,0.006335593038249718,-0.02394628697993876,3.42
0.08716629762434752,0.06167032019078466,9.813661712948813,-0.0032756162909371943,-0.00532438938750247,-0.0021318833206583915,3.43
-0.06588680509755312,-0.05302590350809727,9.642054371761239,-0.01795291798881118,0.002011066571934374,-0.017423228147318157,3.44
-0.1559168879816682,0.09346397119720497,9.60322272554132,-0.014563258419274763,0.005052881757518592,0.0002293444458432552,3.45
0.09125545792450451,-0.1236902068142414,9.772641657428455,0.007871263363102527,0.0008114569650797905,0.0017473153224111982,3.46
-0.010921145703607051,0.0783781218660489,9.926859839950204,-0.004648171312602675,0.00935332217261565,0.03279715222041199,3.47
-0.011290469733185048,0.03197033101442888,9.803451645486465,0.009797187710047638,-0.02527894965310621,-0.00026329596369883745,3.48
-0.028994306814311102,-0.0015224823750227883,9.906577989614389,-0.004893513491466622,-0.010680507089912604,-0.007988367435557333,3.49
-0.07146975410140853,-0.03306704175173744,9.814548584267294,-0.0012628889788069005,0.007198465424992286,0.004846243611818524,3.5
0.056662855707759946,0.06429183019310951,9.959533789148834,0.0006381767368367365,0.0022559898840022654,-0.009021696689642174,3.5100000000000002
-0.052512780829488806,-0.027450206928259824,9.632215608027352,0.013060600249924914,-0.0018022099907360676,-0.0016750383364570536,3.52
-0.0966713847778792,-0.02954062394461974,9.80884887203021,-0.011902738212198474,0.00788639848613933,-0.003136253339315261,3.5300000000000002
0.02310241342312912,0.07515002856236555,9.874915622434632,-0.009239720705373341,-0.004261139264482587,-0.0032332542918657213,3.54
-0.031571372516162766,0.11362750360402306,9.943506455466865,-0.0007737538064326254,0.008943348972024468,-0.008027888771824681,3.5500000000000003
-0.07100950844966082,-0.036093326452154816,9.665045722804905,-0.005485962054980365,0.016279298719417152,-0.0009994783944763052,3.56
0.04989838371209029,-0.13508847805346272,9.806132342771496,0.004927664182775333,0.008712965357966838,-0.004521628004408994,3.5700000000000003
-0.04683839301714364,0.13977797903436384,9.953715184989544,-0.0012781959411565633,-0.005850643513672231,0.005593035355199039,3.58
0.04095080286396989,0.02671809778016824,9.90743636348258,-0.0009888011545222462,0.008966372697392363,0.004521171578677465,3.59
-0.013219456078118386,-0.14458454211132732,9.741760705431041,-0.014078305205251164,0.00794178188435816,-0.004672899370381126,3.6
0.21874954105943167,-0.01848304119721799,9.648835779833698,-8.323163790639771e-05,-0.023429047136159852,0.004167438848092699,3.61
-0.08741747372296152,0.09477540281117462,9.868047141009438,0.005334137608845451,0.012296959872535458,4.1375624282437095e-05,3.62
0.08955457419946666,-0.18841375984135822,9.886784654955157,0.0011694001997347144,-0.0017525930635592755,-0.0016731254104843738,3.63
0.171679428372582,-0.09006789162182216,9.800573502862019,0.0016503068928675675,0.0070216990505499064,0.021217625211405643,3.64
0.06892201489463365,0.0515383804622132,9.878379519208707,-0.0054778509956823086,0.005924134648785327,-0.015925611076951205,3.65
-0.022434905473605365,-0.025848116001585403,9.737046004600007,0.010161108089548421,-0.01302583687640679,0.0035683283325492615,3.66
0.12447274107851843,0.021810509282930157,9.973593112486252,-0.006472416676754253,-0.007449946456169901,0.002771286058092453,3.67
0.04925304075486203,-0.2616493212140631,9.821812951589276,0.0030972035316351454,0.013553111516528991,-0.006518442391064812,3.68
0.10409447091580369,-0.08265063150045282,9.91535638199098,0.009703095117031898,-0.010054534775541605,-0.0013026168360748519,3.69
0.009968628100999355,-0.008383146555895398,9.855952068234242,-0.0069279698914921205,0.0006008073264940774,-0.006314097513062107,3.7
0.01236865668431116,-0.06881608334753758,9.874981983472411,0.011098013480384854,-0.0012188902014413383,0.0008004286837793656,3.71
0.03990065182224597,0.03899526412518071,9.751976263915106,0.00041563582711095354,0.014387951877397583,0.009478331296472874,3.72
-0.11869328875795163,-0.06749412065092747,9.788865358350986,-0.0059935499661567734,0.00869754296558589,0.011965974602793581,3.73
0.14765102461952845,0.09643076869279299,9.813733106652336,0.004537087291836054,-0.0008024953753786465,0.011284077638257848,3.74
0.017962468825709496,-0.20117652560557847,9.854795325908512,-0.005038627362298066,0.010621206354429216,0.0003830357088687477,3.75
-0.01554110034426795,0.12505544488010606,9.741674020008833,-0.008439740386353495,0.0037108971029813885,0.01702115764537948,3.7600000000000002
0.10306596569186699,-0.025524586800774275,9.863880300440847,0.018904362349970324,0.009766722402536546,0.0027421716407163947,3.77
0.0693070782915316,0.008529632411906267,9.922437824456681,0.009613192790376148,0.015692617247007466,0.006865532159730485,3.7800000000000002
-0.06289036718924063,0.11554157062326448,9.694995844464291,0.008177968870444032,0.01511449980527863,-0.0212208808874113,3.79
0.11443462500401183,0.06902689751130581,9.950421811055545,-0.01786846065339808,0.009006064154498344,-0.006663874054997585,3.8000000000000003
-0.08755233335353484,-0.020492223356627072,9.841063523304904,-0.011053543447458899,0.013937041759939393,-0.010415502115109528,3.81
-0.06027670431768356,-0.06784225003755688,9.840204256270281,-0.01121141218117018,-0.00543048124059568,-0.007130114307218438,3.8200000000000003
-0.04424493698636554,-0.01851986499917598,9.795565723136326,0.0033579564539779295,0.016131278869004746,-0.0031101371146290573,3.83
-0.029094366745472933,-0.06410602508385707,9.771998300811186,-0.00362177814052686,0.005789038700828374,0.010947095636728606,3.84
-0.028010096128273338,-0.11939847303948395,9.863547459761856,0.0035371695984377713,-0.018622521900005608,0.004737750137123083,3.85
0.031241342827238096,0.13010937689595714,9.878443644008977,0.004439538593816398,0.010513770198990299,0.00939120134442596,3.86
-0.1119058188902281,0.0361290383492665,9.781847972000577,-0.006338337549024642,0.007672069871276958,0.005926190836118691,3.87
-0.01659695164437101,-0.03799451861307926,9.928146165390725,0.010045979487652464,0.0013703388185206415,0.005934233188658591,3.88
-0.002676363514914206,-0.0900446443988312,9.777264254170538,-0.005288586336552619,-0.008999523572595609,0.00044851007242534534,3.89
0.11046788271798125,-0.08809124628460109,9.769539576590438,0.010122794856403352,-0.0032919643300529417,-0.003793256204731699,3.9
0.0650454757152097,0.16178573428544615,9.87772555552998,-0.007354581539461901,-0.0014867672121507134,-0.004638766287804548,3.91
-0.2119895193502165,0.04825421354073562,9.825726039749634,-0.0005052776300334107,-0.0191678850268406,-0.01318813470433387,3.92
0.19016444452003878,-0.05441987438128279,9.712721221302946,-0.007508187294032211,0.008745429469597445,-0.014792009358604044,3.93
0.108323479880154,0.007246618464327977,9.771851085256742,-0.0030240301309596243,0.006235610699440453,0.018633257615107805,3.94
0.035898106598353935,-0.14028978120708135,9.733362490741333,-0.019831677174487625,-0.011283611653746993,-0.0012856697782253424,3.95
0.011876697084309528,-0.03663581684147279,9.942703296366314,0.002878927568919387,0.002162965896209526,-0.012992945837368739,3.96
-0.133482842341296,0.0640342543430037,9.825078911019242,0.012298125130882328,-0.014976309507141898,0.015056868375525254,3.97
0.03509411182816586,-0.08273590778295829,9.670546029749387,-0.014582611048853736,0.005944603153960627,0.007190734760276957,3.98
0.1311154876965482,-0.1092672312767154,9.869979118076056,-0.011550933465557897,-0.011950383209081872,0.020136670828237765,3.99
-0.16982399801879267,0.011183669536251786,9.858694937201408,-1.616723465379644e-05,0.017388754540973335,-0.013564622154640098,4.0
-0.013557342009679063,-0.1817121144891633,9.896982264945294,-0.0099103691325505,0.0061246468385122614,0.0060297888906673735,4.01
0.02576481788376946,0.010700511294630037,9.858847664375958,-0.0004648064943356735,0.019865903341510834,-0.02342699438168924,4.0200000000000005
0.1422840298935403,0.15941725228115636,9.731350021368375,0.008509445139228567,-0.0025889877295874383,0.001172525556488081,4.03
0.0757660060823983,0.07345174201520363,9.60155654779228,-0.01584845131388129,0.0042189143415397885,0.0175579610905946,4.04
0.09135999167035293,0.05252766174552324,9.890934758535122,0.007867209873987034,0.000766836163783399,0.02015809090390316,4.05
0.029937489376844387,0.14823741589359724,9.783862889700586,0.01715303777703492,0.011017595876041853,0.013085337744776158,4.0600000000000005
0.11078546314103908,-0.039668550857978976,9.883385125065299,-0.005841480575335224,-0.0118553642490331,0.009792336543681182,4.07
0.0330959824268111,-0.10997429004349349,9.694789638473205,0.0063297368546395266,-0.006047793302346581,-0.005733353202611217,4.08
-0.08202858951619874,-0.02624791114837946,9.664061083910745,-0.00633858290635417,0.03244298756499407,-9.308383180873424e-05,4.09
-0.11868094025647358,-0.0062991324813834295,9.759803872754773,-0.00668271063772393,0.005603750302815319,0.0014573509119426783,4.1
0.07159350319353822,0.2447656159972582,9.819261680853105,0.015571226921397183,0.011406208727503295,0.005379681848578125,4.11
0.12806856780370215,-0.08649552067664207,9.947296828580951,-0.014883135304837454,0.0033049226673703847,0.009535811308450756,4.12
-0.05892919355086182,-0.026283062734174575,9.716151558161622,-0.013930497810573933,-0.006324352518307028,-0.007026408470504706,4.13
0.08473994134428285,-0.052751979388763554,9.717813035782008,-0.01525749306928255,0.004693183307496598,-0.010790429520845359,4.14
-0.018728363045085506,-0.130521076604975,9.811587515977372,-0.00038495896592697954,-0.0008844167490447638,0.008086402418520367,4.15
0.09026945322030847,-0.00870884208918326,9.854799054813054,-0.010178264927258486,0.0032284738077781334,0.013352221642039561,4.16
-0.09070187121615142,-0.03393092095367325,9.867148156803436,0.01177402413061047,-0.007372433196074371,-0.002691130374783789,4.17
0.11038097306537241,0.061994401363958784,9.68064225573249,0.004815261593741838,0.0016309424780427734,0.003337142894422141,4.18
0.0021642961028250952,-0.010591475433276433,9.765103404073837,-0.01323211017845608,-0.008874263315735249,-0.006877426039127541,4.19
-0.22686566290024426,0.11020332539108531,9.878245405005037,0.017482614847304144,-0.003361523320170169,0.01150130034301869,4.2
0.05377879792681134,0.12743852570279496,9.89420987965154,-0.008111605811524815,0.006872699968522283,0.0026785382688964995,4.21
0.10934418299627952,-0.042573092100408313,9.806746250432981,-0.00014852437152807632,0.009025702179188935,-0.020894335753819496,4.22
-0.16738106711129996,-0.03500577803921643,10.043421057176253,0.010350795935667886,-0.005486237290142082,0.005850443146720618,4.23
-0.03211330240340466,0.012417313225705471,9.795934901806971,-0.0069338700442592785,-0.009399038220938854,-0.0027111634817603343,4.24
-0.06119485939657864,-0.03858545313589072,9.949285418954219,-0.010939200572184926,0.0019411713557986319,-0.007794544854023034,4.25
-0.06758830314906109,0.038060449090795756,9.673847490099385,-0.008802101788845875,-0.004072634696447618,0.005138534591749785,4.26
-0.08414760787136447,0.0532437851063476,9.821463007961759,0.012458194670421023,-0.0011605514810381968,0.005517617216251837,4.2700000000000005
0.1290120115941079,-0.16087354693338807,9.68523242237983,-0.008984354759466857,0.008519679132788213,-0.00289948064387716,4.28
0.07299580988952442,-0.03434111734417927,9.749474677043095,0.0014886351627847942,-0.010007383766117643,0.004000687198508243,4.29
0.12294217405808046,0.019604597024152293,9.820062307422901,-0.00013186043343534353,-0.00345632887086899,0.008820907556606583,4.3
-0.053405746914210656,-0.08112158190721064,10.021424369451722,0.017351848000780448,0.005978632192990556,0.011584110104992214,4.3100000000000005
0.11679346707366796,0.03887219075508275,9.870361104224754,-0.014623886269034696,-0.0032473456634324895,0.005305933353151829,4.32
0.017909760909108875,-0.0890941319568961,9.826922958928984,0.008615438771295942,-0.0030002236424207956,-0.015266841962429374,4.33
0.21328107318631503,-0.04366311108110344,9.718110514570201,-0.0078076626154635655,-0.006976840046586842,-0.00983360683815902,4.34
0.05788107256066449,0.057212583375242355,9.886058596229388,0.00760061115370943,-0.007306504232831214,-0.0017903479951351662,4.3500000000000005
-0.15142503796634674,0.042199929859378205,9.799136414986776,-0.0050148192757223965,-0.0026003233959878747,0.00348207286304403,4.36
0.08030494326096321,0.005160248019891456,9.852211197872531,-0.004545518887302639,-0.0019078155840781224,-0.0004941133075003866,4.37
-0.130393382076097,0.024028727686966893,9.821247034241592,0.004404152335272971,0.007491350677983752,-0.015386953963681171,4.38
0.022288664369298244,-0.03381238703018285,9.75946646813528,0.00590439405972493,0.010140520102459694,-0.004396689811844253,4.39
-0.2588006316674694,-0.04454406410823919,9.87160201479265,0.006095343341469031,-0.0032753992485981386,0.01103410785556721,4.4
-0.01552268385538937,0.0388474271548334,9.751014378996137,-0.005006707134192992,-0.01625622413125709,0.00243530056892591,4.41
-0.07502265785117017,-0.09770873155382398,9.930700889667092,-0.0036105254914596,-0.010081520951780063,-0.021356941959023698,4.42
0.045629017998762504,-0.12596956210448576,9.871625260472937,0.0016829597301060632,0.0010818605773941009,0.0007856917576679333,4.43
0.08627113489961137,-0.03996582611104555,9.935205201499425,-0.00934458499593717,-0.001948809647619068,-0.020705849994679545,4.44
0.1440036609497383,0.14604828614794793,9.847415126959355,-0.028447413732581663,-0.018475842863052098,-0.005228939748094386,4.45
-0.001428600062480795,-0.02274904354111147,9.783055653161437,0.007041612633089854,-0.0009367140494524315,-0.012934624494860714,4.46
0.23258802530343053,-0.024512811374395708,9.766073174088683,0.005895190355353476,-0.005427907431867897,-0.015370733791906078,4.47
-0.12615054367410708,0.0736117467566275,9.83021604810172,-0.008932467888978304,0.01779447788023598,0.006822934539436522,4.48
-0.10000895290459239,-0.04012599774990718,9.67158883368083,-0.021126226526466393,-5.592692189529991e-05,-0.01222008107014157,4.49
0.21574764063352833,-0.06731941117487238,9.807647086385625,-0.00256441643350655,0.0010452654407871469,-0.006785023763980545,4.5
0.02194917291450238,-0.10978014595236674,9.85302325134372,-0.0008826836702755881,-0.00258026889554314,-0.008570975291891648,4.51
0.03592576115315304,-0.1254618437061645,9.892681092577378,-0.010436586410710155,-0.006131413208274795,0.00024179199925974067,4.5200000000000005
0.06894410996684623,-0.10383556193882643,9.81969798769082,0.01246015743341225,-0.013726019982195173,-0.00822511855649805,4.53
-0.039408769457061205,-0.031018900433333427,9.804738557966932,-0.0014779647762525646,-0.00886795194127504,-0.0003171776572641491,4.54
0.04304410692977356,-0.10078729436397918,9.936305681352792,0.0023806335658017245,-0.00609263887715111,0.003602678048691456,4.55
-0.05047439196422718,0.08704937895051622,9.811212617020411,-0.00734144977629395,-0.004530651320613258,0.015593398675033721,4.5600000000000005
0.006706808033435995,0.12112576547603514,9.847233487267358,0.01457118239971496,0.0047446274846768485,0.009732266719191883,4.57
-0.0068411020107560895,0.06112932892670693,9.878845178851,-0.015591054385345443,0.009283858445498611,0.0010929697204543028,4.58
0.06521143068627047,0.24760511532943213,9.817076675524595,-0.016047658074418124,-0.01376813164496185,0.02250597865710267,4.59
-0.08763651782820488,-0.09758744331838583,9.811368678249483,-0.009854853615009212,-0.0008772549766281864,-0.0044426702399932875,4.6000000000000005
0.07065685572168562,0.22198292338357747,9.783967961058645,0.0004430824925700182,-0.0037978180712466294,-0.004331516468488564,4.61
0.17665504895362916,-0.09773210997757552,9.76114585707882,0.006933320213769553,-0.008126567648074467,-0.005185771810202514,4.62
-0.0930380704787846,-0.03175448300744498,9.8068985721311,-0.004856034862109299,0.0003551311773671273,-0.0021563241143944733,4.63
0.04116815550550044,-0.02031323556305284,9.726388963162275,-0.00048593021886511053,0.002787894198934899,0.0029890070428554407,4.64
0.07935140187777834,0.0824384855815311,9.790377039475288,0.003866783458138443,0.003872594684444595,-0.000305580473234507,4.65
-0.012482754144140388,-0.016093799425694076,9.72466925681675,0.02357929233967829,-0.0018746033920332154,0.0022301744942296313,4.66
0.09112454709224763,-0.01000852009718627,9.771079618671605,0.013419623104491948,0.019409313944395747,0.0027287358332135077,4.67
-0.035253270769012746,-0.05481151135394674,9.80661569184363,-0.007099906768083315,-0.003937015977982806,0.003683673671532058,4.68
-0.051255324879502455,0.06157197871321882,9.832068604279083,-0.003901449868053567,0.011860628800117607,-0.00488427788559998,4.69
0.10290279297675309,-0.05808978582643886,9.7888236422213,-0.022441260381430107,0.0003341997331723404,-0.007034869419546824,4.7
0.01752988353337793,-0.16111847318558026,10.00344515401747,-0.00784896526949011,-0.0068310763974215125,-0.021864947298675635,4.71
-0.11650847695793476,0.054078979720471626,9.760315647059683,-0.019264156157760722,-0.00972147088770615,0.0005589609208462919,4.72
0.0935149033969922,-0.04639414342260622,9.780738555374214,-0.008088895379706277,0.0017863675430206196,-0.0018042447535110545,4.73
0.12827771495216309,-0.07803910686006915,9.935361024876789,-0.004919790938693648,0.0014210486779248333,-0.008570851677631792,4.74
0.2580434967139679,0.004801128259928485,9.804790534242052,0.0011069990070399613,0.00762486111960815,-0.011842595600549262,4.75
-0.08277053407116704,0.019065111223597764,9.838350568622674,0.020517323115967816,-0.008066137736054359,-0.0198854050308092,4.76
0.06295741329427149,-0.008801281063716788,9.817395691228059,-0.008379590965805529,-0.002887022345401516,0.003973306733343693,4.7700000000000005
-0.02822639304225498,-0.01867047162844118,9.826104999769006,-0.0008516740681454972,0.0020027210304569202,0.008358842599764405,4.78
-0.027844835172147333,0.013241998484381743,9.837574729066032,0.022363938847845124,0.004927890238459708,-0.006906244023166573,4.79
0.04706849128628803,0.11553072787416795,9.855841688851328,-0.00922738766475436,-0.004232209629254234,0.0018559211887477765,4.8
-0.11473271310485256,0.09296628737989794,9.699591163215944,-0.002483918929840864,0.017378381616905313,-0.02402529336239741,4.8100000000000005
-0.26598997371011635,0.10368849076455122,9.800380436745291,0.0068949721287900455,0.0034971032943941507,-0.012420570631043315,4.82
-0.1018117041949117,-0.08801651335080884,9.705105513780401,-0.006986761248447738,0.004476193596603054,0.0053279810801522024,4.83
0.11573366167908175,0.061251290342218316,9.700468737678138,0.005285633117329769,-0.001781195411280894,-0.009510424426135,4.84
-0.08982221997889722,0.00231804670085319,9.88543441861314,-0.008487201835785023,-0.007730191743932741,0.006432034057210639,4.8500000000000005
-0.16967095418778091,-0.06853692516293204,9.847243624743264,-0.011356209783919846,0.004562417235265888,0.007989282096986088,4.86
0.056391453737459935,-0.05026228006949529,9.789773819924456,0.00624604116083615,-0.007583062426734295,-0.003562341542362348,4.87
0.057574137008089214,-0.0009248648149079402,9.783614973268682,-0.003349084286266534,0.013378294081264473,0.016943338529405213,4.88
-0.05510358224504896,0.014843013316235687,9.699926809417843,0.003101397463989691,-0.016208604680239578,0.005615864947722745,4.89
0.10900034602787252,-0.0855904155824082,9.770285003928834,0.014258282450878635,0.002541664851906363,0.01563731131008699,4.9
0.03118027746840679,-0.02073833976772239,9.770020562928131,-0.015277879577386577,-0.004065188419937304,2.7598761017359463e-05,4.91
-0.1834995255890642,-0.0781157763202798,9.818599326006996,-0.005364542380188609,-0.0034672348197367572,0.007258125310328809,4.92
-0.23076674560707652,0.0029313731295352303,9.723541382936627,-0.006119343921547803,-0.0024038977435388124,0.0031326197645981826,4.93
-0.15481558173386623,-0.10511862814741386,10.001023152410689,0.013492928001134006,-0.013285111635119582,0.008734199832761082,4.94
-0.03892624081238408,0.12023579070148441,9.838658363461025,0.017483663458409255,0.0056459737058433416,-0.009695915371845115,4.95
0.07376600147099266,0.01751969143831414,9.805176437617792,-0.008644606567528128,-0.004943257337198705,-0.0025644802462454755,4.96
0.019998226342108252,0.16370223628186878,9.968984508582343,0.005236278766335124,-0.0007315830384969093,0.00406705905112825,4.97
-0.05774818586384083,-0.06995886065621386,10.085219496214767,-0.00044892702800856076,-0.019668415711574017,0.017152580254382443,4.98
0.1172546795667273,0.1372398055208353,9.758246605159494,0.0016055159803498142,-0.006520530062429795,-0.015670757243742096,4.99
0.08008933576636589,-0.047736159813851466,9.509101879055551,-0.004098860123710651,-0.018535558453267393,0.0020042440218838633,5.0
0.05967484451913494,-0.11230004579532114,9.776551672382482,-0.004758415337297774,0.0018960002234164666,-0.004802273020084436,5.01
0.08219602876323849,0.15327427241493102,9.836822658805861,-0.01768382133279367,-0.015201954273620288,-0.000848700381850184,5.0200000000000005
0.023802629846131337,-0.16226363213233475,9.690435203068315,-0.006092675777992676,-0.007656798883462607,-0.020520356549478144,5.03
-0.18023735655630535,-0.054695202925445253,9.939586321316218,-0.020627921292953006,-0.0039787270431248765,0.019685346388899065,5.04
0.17163519819584994,-0.1547873744181234,9.709469545857655,0.007583816902271056,-0.004154520222248319,0.010334993106600859,5.05
0.03419889913998549,0.004617224872230983,9.75562436511406,-0.015737458774689534,0.015121398440356926,-0.007309245749251244,5.0600000000000005
-0.009281258501779343,0.12114368871405706,9.995016176603471,-0.0006511766287741103,-0.006753072702491612,0.0025274008418680917,5.07
0.08852354530296003,0.09738713429169939,9.76948910785317,0.0002949424471840788,-0.0003648432451657539,0.01319195576537354,5.08
-0.028322698961474536,0.1402579623315412,9.833755148356888,-0.0028434097325580904,0.005825489456184885,-0.002591570963296847,5.09
0.021802790111854858,-0.09363276469024337,9.819722982737119,-0.003210891285848606,-0.01524681084422896,-0.0025511284996231624,5.1000000000000005
0.06556474744253236,-0.12842505085723985,9.740410434944481,0.001008183420350452,-0.015156595139023059,0.014201658939537749,5.11
-0.04041345572394528,0.05398425851947747,10.061154075256166,0.004148482395102535,0.018372325966160587,-0.005673555632823695,5.12
-0.09190217519519828,0.1715651396303104,9.794933977528807,-0.0023337233201010965,0.006200522449501803,0.01217400092141178,5.13
-0.036905285783873025,0.016225919308095013,9.76608014012588,-0.004327509281816524,-0.01764713831369714,0.006038862698242167,5.14
0.1538467588300967,0.05696241647859657,9.821246327927819,0.0013017293327553098,-0.01370385853182461,0.0035288581765736634,5.15
0.11114832858336493,-0.11420024787839161,9.814001736840275,-0.02049161221231074,0.0016380836254581994,0.009079186140125607,5.16
-0.03001876043769583,-0.006818408926459691,9.925523232129953,0.0013792474956122232,-0.013110585267067027,-0.006500379614270491,5.17
0.1424188505447859,-0.14960632502353907,9.70745098198731,0.0070578048184255565,-0.008801921765220669,-0.006444953164571594,5.18
-0.04393510773471561,-0.14623122548467024,9.857917829586555,0.015273217420424848,-0.013722636107351539,0.0017624932498268772,5.19
-0.03242828890769527,0.02389640358638992,9.808179127222674,-0.0156215683013464,0.021069329258676706,0.0034821256014957876,5.2
0.0439721725844702,-0.03916802287396619,9.895777973692407,0.004129430027703851,-0.020171167552924096,0.011212739892861956,5.21
0.06431404319604336,0.03425854541634676,9.83833518454341,-0.014026692344895899,6.552776043224702e-06,-0.001213159048730535,5.22
-0.03967103368040027,-0.026929683825068124,9.875252033558308,-0.006825314172044142,-0.002832421432441669,0.005618627772819739,5.23
-0.006765808879590177,-0.027724961393322145,9.908838700198803,-0.024288606874308925,-0.012253353264447344,-0.007037355643222086,5.24
-0.21908801641579878,-0.2141066604853953,9.81614484238829,0.010447964055331964,0.002476004572528832,-0.006202078189659862,5.25
-0.07499112021342025,-0.02921691400645616,9.850084478342671,-0.0013437691659348365,0.0075215116347644205,0.006600038521127735,5.26
-0.04005986206872556,0.1035025065956413,9.788292998435375,-0.0011553272399850263,-0.007408511617320613,0.008073976635673937,5.2700000000000005
0.13865387797389658,-0.04785409227873213,9.916688678646043,0.01042625454489883,-0.00020642083800874526,-0.0014034689953835455,5.28
0.14058338496506795,0.08921658150459431,9.900288807444978,0.001678439536425963,0.003829075823671112,0.00026911027412354675,5.29
0.04994398892366132,-0.03164682895706051,9.607963825532394,-0.0059247743351037,-0.011938068219770556,-0.0007073553634336847,5.3
-0.09717774608215742,0.01771352885403137,9.83157302000563,0.006125015149871177,-0.006646458615210448,-0.020577628575713127,5.3100000000000005
0.17349365888523288,0.03597196370963037,9.901577858956884,0.0035290331008344983,0.012283696057335747,0.001974720803692733,5.32
-0.058900813186779435,0.07534176713637851,9.959364064555402,0.010349112626474364,-0.004754368570088457,0.0015371779892285403,5.33
-0.0885182948583771,-0.01021580875649366,9.674653472694507,-0.0033137248188791603,0.006079011213033194,-0.017170194141680358,5.34
0.09531870810147092,0.024412445107537227,9.576710755286891,0.018704786915399278,0.002473989661059661,-0.008035571870656628,5.3500000000000005
-0.1128253270833096,0.01114919720649827,9.688362308739244,0.005438264458188839,0.005658331374971763,-0.00825805955060965,5.36
-0.24079279905125134,0.06779572013647266,9.732817731846001,-0.0016514492994810024,0.0025961529204964425,0.00704082529622257,5.37
0.07070756102131075,-0.02508866848527845,9.954559333770487,0.0029713886223910703,-0.01877823600535095,0.00032772905144259874,5.38
0.09154354474116651,-0.0717710408086652,9.791403163959476,0.006723361366328995,-0.0019445653401007907,-0.005402897902408842,5.39
0.05468993897652165,0.13944596383060107,9.84410154823178,-0.02225166048107108,-0.008854897054261355,0.023097894334909864,5.4
-0.12277391342701548,0.011996532151060115,10.002829775250387,0.013035905190229157,-0.004089828312021447,0.005717879570448594,5.41
-0.17859765279816794,-0.016497533818719542,10.197015988597501,0.01456146127576365,0.019819981797691264,0.016075744735627343,5.42
0.08608700228777033,0.12848829868529602,9.790396413381874,0.004218648911368586,0.020099879370975283,-0.004243715971571131,5.43
0.06560638339471417,0.0032306562266693852,9.793214644080102,-0.008004771709816026,-0.0016357205656104719,-0.002178007731353921,5.44
0.07724706306623799,-0.13602572850329925,9.99134523362511,0.0011460503431942545,0.016464697203794152,-0.009754343594739492,5.45
-0.039235816612565116,-0.11181972836727333,9.828490709542967,-0.010435598489648859,-0.026486651362224195,-0.003991082871492068,5.46
0.03250186064654711,-0.0035623486904491014,9.642827674490864,-0.017572061333581645,0.008051056795072785,0.010792317637060513,5.47
0.025169271495382724,-0.04140035567060931,9.923155788485456,0.010632222044138905,-0.0006427756604736234,-0.005125026892907795,5.48
-0.11621503838768062,0.002198959424411236,9.668537743828091,-0.006376738479252642,0.006263733044845553,0.004823981367366017,5.49
-0.10326040889094919,-0.06249285248078587,9.926393858682038,0.013063085150001033,-0.0002492848858871249,-0.019878645633089356,5.5
0.04340594591572791,-0.0005538775075057166,9.77658736048877,-0.009728867994064493,-0.0017803347514599342,-0.0060266437947488,5.51
-0.04489157986228031,0.08483663232534461,9.750380894905518,0.0029725575366174877,-0.006433795571940405,-0.003941364875201078,5.5200000000000005
-0.13432657595932923,-0.02691434267556969,9.790168552672592,0.013152794387601465,-0.009653974773040681,-0.005251599129315388,5.53
0.019395213223825813,0.013498943025728072,9.774955523286424,0.0006115616937976234,0.0011278309267085714,0.0020810852942779933,5.54
-0.06444941653612456,-0.057382593548569054,9.934350518037936,0.004789603845657308,0.008816707426716938,-0.00045557086466447335,5.55
0.055400958038915905,-0.024577582410634784,9.72744060795294,0.0164748710841,0.0020699378675487464,0.000560664896015389,5.5600000000000005
-0.0028002456064457797,-0.016337017528013777,9.800712668886803,-0.00490529790833787,-0.00015617523623650815,7.95676252806034e-05,5.57
-0.0785078459809943,0.04948907227401362,9.797474685452135,-0.004191204006114816,-0.010842254391715036,0.002088795227333964,5.58
0.1353088400881157,-0.06401213615438493,9.953402240968614,-0.0015898131781700844,0.0006741403983840263,0.0013065760005753107,5.59
0.1490104798755074,-0.14466563399844193,9.926278252559259,-0.00011484870244189032,-0.002720475818475771,0.014420492610525427,5.6000000000000005
0.18417427833259906,0.010688661155721948,9.81992306718362,-0.009673218108650728,0.01190139444278028,-0.004707115426739956,5.61
0.09966333315178892,-0.18048884179237573,9.911503830521822,0.014823115942458005,-0.010905420421678634,-0.0055425148631754444,5.62
0.19358049334170482,0.011166700064843021,9.802581483078596,-0.019216953039303004,0.013707096603076988,0.006776755788167043,5.63
-0.07896898702116585,0.028123677587690157,9.742275712884929,0.013852280595519482,-0.009238431776794356,-0.011144510910402992,5.64
0.049000964599382184,-0.06910669554560428,9.827144365649712,-0.008499786959396958,0.01116960789668586,-0.011719389150135403,5.65
0.07011125371684919,0.09355753674425149,9.724023472655963,0.00653777971139479,-0.009196685980047541,-0.005717005054129591,5.66
-0.0625332748682054,0.0527353783766662,9.750731127620242,-0.0004723748485164306,-0.013893661627722802,0.0066079172959623836,5.67
0.15674681561973505,-0.17154925581965635,9.766348640471437,-0.006869896154619295,0.012181658249616539,-0.015347364403919418,5.68
0.20690055565658808,0.04668659398793649,9.810934684113173,-0.007462249212325394,7.946441817180156e-05,-0.003644232311182093,5.69
-0.04336507872217049,-0.11043841276429645,9.785295854416438,-0.003928845316027187,-0.00414853225295721,0.014223755614129743,5.7
-0.11608588542630892,0.16354697824162734,9.823013075227863,-0.014778670552937039,0.006014402383342983,-0.004601153196925853,5.71
0.2022940754469628,-0.10265468769810067,9.88447326199474,-0.021665566290285203,0.010271216140937416,-0.0030435348007342464,5.72
-0.029847634983068833,-0.19969131397625964,9.748754328141414,-0.0013628387357493457,-0.002356907729918743,-0.00901989795327737,5.73
-0.0333030399346722,-0.03680612498282514,9.806087994434543,0.007282725761526818,-2.9666535063352457e-05,-0.004491044261154053,5.74
0.01920124493585819,-0.10678358680671943,9.820631846230524,0.011531250254289718,0.010449544797003751,0.011454310169410563,5.75
-0.05526444137691207,-0.02984590176047171,9.769208388336954,-0.01710507384623636,-0.011522171035683799,-2.2301563066244548e-05,5.76
-0.1722129531755335,-0.14195177249411783,9.804631107804884,0.011938021370128366,-0.002400690938624824,0.00041428189578012386,5.7700000000000005
0.109382451071236,0.10420124825449684,9.831154428652567,-0.014827403979932027,0.0032464715135964955,-0.005920010112902114,5.78
-0.15008611528975985,0.04658848532366731,9.807154147308681,0.0015436557844635598,0.004295125466167597,-0.007060679599612728,5.79
-0.059415739450032784,0.06528811904988822,10.002472414810185,0.001059135420258083,-0.001559825055188421,-0.008482008559977813,5.8
-0.11594999348276068,-0.09529575536975653,9.867205456482695,0.017023351273578142,0.0037822944023583483,-0.009008269761518327,5.8100000000000005
-0.20026033548632555,-0.03844043528760256,9.77755101432002,0.014960565503595029,0.000983035281816032,0.0004973971447360324,5.82
0.023236837765292034,-0.021841808143673404,9.826404398232114,-0.00011392451620070786,-0.0009075417850572118,0.005125284810695439,5.83
0.10225143937012711,0.01742707317321505,9.769322323632476,0.014485011491172631,-0.016278984460220292,-0.0055646402694830436,5.84
0.010346966182563208,0.06303573482931348,9.855187696103338,0.0007955378803563184,0.0020171855751046257,-0.0025960998587599465,5.8500000000000005
0.07680690822427604,-0.07203993101134408,9.77802342436013,0.012414630951332004,-0.026720823325215984,-0.00576811993177152,5.86
0.09548761346011939,-0.07851546379329973,9.852959887297606,0.0010352484206147211,0.007853167365789787,-0.011188712111162303,5.87
0.16916389255908823,0.18631860830007518,9.91725065843604,-0.004655186621365888,6.436140572782473e-05,-0.004370713509557091,5.88
0.07458265355754816,-0.08371848510252472,9.656799335520033,-0.008581011758860523,-0.006035744972317193,0.0027278563134076044,5.89
-0.1003399198090353,-0.08559901904890095,9.774738216817338,-0.004007000342529825,0.01314889354825067,-0.00047273387005070447,5.9
0.06884277000334836,-0.04849113837822401,9.86202488581231,0.0023233755958656814,0.0033737943631699458,-0.01213066908756833,5.91
-0.006543769594539825,-0.006351567532254691,9.802900585485183,-0.008932682422984008,0.0098988302566441,0.0056038246257323725,5.92
-0.06016704256725999,0.07086832445228296,9.94714758074296,0.0072646172129497075,0.012437604500000934,-0.0064407455132928825,5.93
0.07663293864754522,-0.23216847699472742,9.884862913609732,-0.013726203089367634,-0.008839449266268586,0.006380699036689897,5.94
0.00950271129944017,0.06929672887172454,9.934725595999083,0.010240092801852766,-0.01460721504336577,-0.006321166059679278,5.95
0.040878006078970235,-0.13083606052825045,9.799917839315777,-0.009260094467670595,-0.003005500066556355,0.0036184549261457106,5.96
0.15482234749130477,-0.0036246401667774488,9.903342408302548,-0.01140407895780914,0.018789280620833303,-0.006794939637354627,5.97
0.04284542233807137,0.10956860394647393,9.91842208714519,0.004338498386209736,-0.00030295832867092667,-0.0006962107445725957,5.98
0.14413818039311455,-0.08804196675787498,9.779042254033843,0.022114389185086153,-0.014939750193061636,0.012668567161564701,5.99
0.052634966887096526,0.08547551975272402,9.856362691367917,-0.006299892760809877,0.0036687393224429828,0.016667384091518626,6.0
-0.02233137009612859,0.12417129956205053,9.853143888097431,-0.005858681855364762,-0.013010515353163452,0.006644562586721582,6.01
-0.023539074017547235,0.05299812517456989,9.886258299132582,0.0018900451785970355,0.005069310447950261,-0.01952807740723433,6.0200000000000005
-0.029872718728323505,-0.12718805156290142,9.832416924348959,-0.013421382578054575,-0.008000554250814463,0.008454738994922256,6.03
-0.1078228119260044,-0.13298195452086684,9.886527183962693,0.010295293519389277,0.017965805934564455,0.020135550904123885,6.04
-0.05610106346012216,0.0947519571733156,9.958849588779602,-0.02220718277533176,0.012955316224409983,0.005343991727106628,6.05
-0.06952872987544308,0.06758964773740393,9.958847639596438,-0.0010637030459740109,-0.00027943353685349226,0.006993232832611333,6.0600000000000005
0.04287359774954391,0.14875343497022905,9.875453808698488,0.003811750346691441,0.008681675719892937,0.012729096652091034,6.07
-0.10246385288683989,-0.04907501924257685,9.803225882407293,0.006223403235640824,-0.010203879940063379,0.01267472894966294,6.08
-0.20715920498677629,-0.05199730370771954,9.765658320643038,-0.006982083305005228,-0.005081843288047441,0.033111232167972994,6.09
-0.20164573267270974,-0.06892659828781204,9.75344481531027,-0.006601993427640483,0.0109243893796462,0.01820623040923332,6.1000000000000005
0.16338231676947193,0.04883907103284102,9.699430222591264,-0.009861442348742849,-0.021231062143943016,-0.0024662060721272546,6.11
0.12107399990667533,-0.09689447747571533,9.854331330826895,4.5340094266511985e-05,0.001833701727263638,-0.0034203436100945428,6.12
0.018479199473082294,-0.0032283233904014646,9.93093119072286,-0.009625920326133248,0.0006644374041196587,0.0029643406212217747,6.13
0.039515999369123256,-0.0819186503152978,9.79837427704316,-0.006586216857265892,-0.00907180755652254,-0.01746382521447289,6.140000000000001
-0.06574289238692889,-0.05254163646843301,9.868273977299333,0.012589126169112381,0.01848916719953713,-0.003146151376742504,6.15
0.06624133051207769,0.007851924232333543,9.744248608670878,0.004132822659595817,-0.007408464904583375,0.009952960253514775,6.16
0.09715197942634214,-0.038890777605248394,9.818222340643436,-0.0038325869488028135,-0.005176547072770171,0.007682516469964602,6.17
-0.028449676664273418,-0.17054265405725022,9.939713389095402,-0.0190552240293413,0.0069418076600361,-0.023146855782779058,6.18
0.011625019152985075,-0.018063988623441152,9.889541891451133,-0.0033160743480794663,0.0007934704626831416,0.01379212573818626,6.19
0.08252513997948406,0.047186857892058814,9.733598054451422,-0.014239818624376217,0.0006826383211650361,-0.007689237818771232,6.2
0.12298813944460657,-0.031298381389208534,9.824501265364662,0.0004692023584882845,0.002047679608697545,0.015845360420006133,6.21
-0.07197096251803102,-0.07641529747884956,9.940876121605536,0.00474125110172438,0.008306824987317716,-0.005827305137035147,6.22
-0.17800503040001434,0.012175251700010901,9.891850640247796,0.017922991804441755,0.011684296547328249,-0.0032189101013537997,6.23
-0.004193088204816617,0.042461640813561116,10.113167579535201,0.0024914909138820497,-0.002883398023120005,0.01702664741631344,6.24
0.034426517682362566,0.01865966467746503,9.780856695451945,-0.005327152203059729,0.006706825075560731,-0.015021115453882301,6.25
0.1256109441613657,-0.0315378627272751,9.688031212471476,0.0049897291483586214,-0.015188519956818991,-0.0026028610646203977,6.26
-0.18102237856299075,0.11325510260057446,9.852377687415483,-0.014128949097292539,0.004503915506829632,0.005509911223521857,6.2700000000000005
-0.06897839722854185,-0.07595054703140813,9.645666443004503,-0.004375894682426918,0.011783615812159405,-0.004852061824920351,6.28
-0.05425156842815885,0.15947068980124704,9.852144972491313,-0.0012659519368200605,-0.010545883707563871,0.01136606668533199,6.29
-0.005814099938259012,0.27868718898543715,9.865106280881411,-0.004426282425001564,-0.005560887745034252,-0.007903242892521051,6.3
0.08342599096731212,-0.05819391282553267,9.964343239670374,0.004347040250045981,0.0030638731203100475,0.005781009984353122,6.3100000000000005
0.027337605284802936,0.028102929457248366,9.732238008191977,-0.012944533120979172,0.006816696634071237,-0.00669394149854758,6.32
0.08349435034858887,0.025712370168464994,9.97511839459152,-0.011149287880888347,-0.01884287610608032,-0.020864486728156575,6.33
0.15407074190464998,-0.1448103578928893,9.879207106354063,0.0046884708087803,-0.003534110890484034,-0.004111116822169213,6.34
0.008540860250418352,-0.005765826468503706,9.939127868698078,0.004386419115614692,0.0027260452403615153,0.0014080166578467296,6.3500000000000005
-0.10923432052237148,0.2208889785490262,9.861156657148854,-0.008129914490767911,-0.009364913268836301,-0.005313700806481079,6.36
-0.021374990805179742,0.014512863573015148,9.796681664507787,0.0031808176603375605,0.001214543005851146,-0.0009266033113005185,6.37
0.024660532666504878,-0.16274570187585197,9.724042097011314,-0.007744581272988465,0.0033007265057696652,0.0010901442360855965,6.38
0.07870118472917889,-0.015411917602080159,9.64482312476718,0.004984944543027342,-0.00011609429237488072,0.0015643451208102006,6.390000000000001
0.14685447043809208,-0.02548764818720072,9.717400347477442,-0.0009808896974208932,-0.021324107293605395,0.009942514716799876,6.4
-0.013989254282582068,-0.02152026189822545,9.880847345384694,-0.010676232740050664,-0.0035535473073525347,0.0036445658965445615,6.41
0.005724713974597596,-0.018228530120523542,9.915811452199714,-0.002056138358221523,0.005357312955946091,0.00968958829673215,6.42
-0.04961035980432538,0.07625594631561458,9.903521206969712,-0.007026011295018297,-0.004850830247944942,0.00860661408005561,6.43
-0.09415934720253732,-0.040329255407671294,9.77765048399779,-0.01571274952908135,-0.003423075115603741,-0.0015907530579752174,6.44
-0.10808122280336344,0.007923150839578596,9.58278030686165,0.015252862561675096,-0.0004809882784144851,-0.01748655012184409,6.45
-0.03361164060016014,-0.042899492876571084,9.862474599628756,0.004304929330743171,0.01063707368237298,0.0010390279354729943,6.46
0.15299609654845284,-0.09919198327293867,9.641471036762258,-0.011137493536212318,-0.009989203959559382,0.016690353770279356,6.47
-0.12810409992701297,0.16149038464808144,9.764594930708338,0.0036406558238489123,0.016311656831292324,-0.01037918809287477,6.48
-0.2117158438025006,0.07009104174192163,9.785739699537874,0.010643825930946434,0.0013097842735302883,0.012635780756345905,6.49
0.1953814428175027,0.008242488245346265,9.805093070366194,0.007964690069003329,-0.010177941789567197,-0.006173950812897295,6.5
0.016875128626000276,-0.18055598786932664,9.684883024988274,0.0154563453008059,0.006765943326581531,-0.0050864683392214,6.51
0.02314387093559922,0.07554751893756306,9.691258712093592,0.015506312962600067,0.005185409325045144,-0.005626923594095805,6.5200000000000005
-0.025248085417473167,-0.05143239358204913,9.78117662931801,0.006678780686421534,-0.0020564110658754667,0.0101582373582211,6.53
0.01426559747871775,-0.01923524481605498,9.708565805704804,-0.0006932604351446663,-0.006097234918888043,-0.011745631039345322,6.54
-0.12262866990727904,0.11466209586350065,9.798687314053112,0.006649334069547468,-0.006338265264081159,-0.0019021473464259802,6.55
-0.008053920412527844,0.006764465044877953,9.7583988978056,0.01009785586075411,-0.019254704940225197,-0.015589649982534941,6.5600000000000005
0.15458019979831739,0.18082712837718792,9.892852206768943,-0.009533436569801252,-0.011862547882410993,0.01645172807342384,6.57
-0.08195963450089724,0.03522808446763794,9.653229573741742,-0.011665663920085216,-0.014391353656341086,0.005084815261821292,6.58
0.16359085106455212,-0.008722349017938169,9.969287880382304,0.0043803767115717885,-0.010758363070841333,0.01323243622809424,6.59
0.05633544615918054,-0.006366442124397777,9.682025173947586,0.0019693370884378094,0.0043388459846602076,-0.0014487609027991227,6.6000000000000005
0.0009503653832027255,0.1576033594787301,9.9529776330487,0.0032786182280430134,0.013653676676281009,0.0024907584286297173,6.61
-0.10059266295901066,0.06004861687053489,9.798133763775173,0.0001993640022810076,0.0005599806085566171,-0.005144525079202462,6.62
0.17558734920434088,0.08687656261884308,9.715397044945984,-0.004459111615161621,-0.01879627199236958,-0.00737478844499121,6.63
0.0032702394198033296,0.07544416752001872,9.865795909556784,-0.0021100816804911805,0.0006081778681713731,-0.003986270843277273,6.640000000000001
0.06756953482507408,-0.07063698356240881,9.754241938724084,0.008476449811661957,0.009958858320186335,-0.004093519179980436,6.65
0.1060328066460407,-0.14218547237203868,9.67684467907837,-0.0018646873383417642,0.005320646976565745,0.0058812153822222395,6.66
0.06931955447767142,-0.023811434102664064,9.722599306587087,0.0035144057501427374,0.007685669253416107,0.009851110421510175,6.67
0.10226828471092282,-0.1336821787384603,9.797188814788605,0.010586844772887585,-0.004928949433688677,-0.010918872903076686,6.68
-0.034918068486824036,-0.158266922356185,9.690089946468849,0.014398031980570696,0.007891938304698818,0.03231493121506813,6.69
-0.028941315967581246,-0.03722419797253284,10.042169644032848,-0.006565031106514616,-0.00272876706704453,-0.007507942606971518,6.7
-0.11771567750262775,0.009825648146676743,9.825787040105276,-0.001362380882602054,0.016011706689716933,0.004807537843808418,6.71
0.039415176974197524,0.02554501405653701,9.856075406034412,-0.008972851729238535,0.0018952989930415783,0.003573273194021957,6.72
0.0008756837828394515,-0.09535764940430957,9.740735665071323,0.007199117821519869,-0.008362642968942126,0.016352540258731032,6.73
0.09946599273505045,-0.10626810774506312,9.854343020882967,0.01650332779945191,0.004038626048846536,-0.0069718729902937095,6.74
-0.0876172665196028,-0.10123789866511933,9.829725069595307,-0.007923987624398188,0.016151402411833108,0.009494439240684884,6.75
0.11075744079020666,0.062325787518302526,9.76128147130502,-0.011335845968367002,0.0021079370668965433,0.0023570562330104483,6.76
-0.04132441469574434,0.024875748054212457,9.810376658850638,-0.009753486725734443,-0.0007119754047019927,0.010740752094854502,6.7700000000000005
0.0033268551980688253,-0.04120928065855051,10.026588993240898,0.023107263881317338,-0.015576829522194958,0.008614340023957633,6.78
-0.07386575169905216,0.05133757327422095,10.020505328262928,0.010697790700885688,-0.0015878585377817698,0.0019880998128797168,6.79
0.11408879032977617,-0.07751880428115275,9.962712168021856,-0.0029165053732639707,-0.00479166017251941,-0.017618670312437565,6.8
-0.05800174280827197,-0.02193835183645325,9.64162851459867,-0.008980757753490618,0.0031020649453425628,-0.001106310659389118,6.8100000000000005
-0.023458781537781512,-0.009898825765003871,9.827956176948307,0.01777116810145494,0.01602859874598859,-0.0032624099276579964,6.82
-0.028465087727131924,-0.07991828606145422,9.824952319959532,-0.02041741021131025,-0.00458090104370717,0.008215820587978043,6.83
-0.0056185656225338975,0.1308429686600394,9.86763873792416,0.00960001351271533,-0.018289991522806765,0.004091924019952485,6.84
0.03520654582859844,0.14540058295475358,9.732343846829917,0.009457752817804152,0.008931861018796587,-0.0033544232538035117,6.8500000000000005
0.08624793504156597,-0.10728189411233009,9.817823786330807,-0.008183175513618763,0.006655702919812172,0.0008995018215104054,6.86
0.25163044281468977,-0.010512385012442681,9.733069960888882,0.0005940364360074034,0.003266520155554033,0.023592869180032748,6.87
-0.1084918596556016,-0.020927996863931705,9.93278762100275,-0.0009788309449850143,0.002837338418324045,0.0016067227555912097,6.88
-0.039289635597068884,0.015366145737689027,9.72187974726124,0.006410408241259812,-0.0012468398238012902,0.006653648526177711,6.890000000000001
-0.01385160309986058,-0.11632492372007885,9.685208804100798,0.0014997151894294656,-0.003484209522144537,0.006456895497628135,6.9
0.14784764107435988,0.15458324373602825,9.832823804836279,0.0003998792671575354,-0.009393334097640028,0.008378123179828402,6.91
0.08746583436650576,0.11535366208206431,9.849508387575874,0.02059277808135218,0.0066283075883484446,0.012824820583728158,6.92
-0.23233082339806188,0.09456815694889241,9.717058376738091,0.010882407953052424,0.0015232422697586511,0.010484467063543081,6.93
-0.11755317171086099,0.11029850914052114,9.857829886452919,-0.015404698627909878,-0.003174917420114185,0.00814251815519612,6.94
-0.03616106876723919,0.17762263109244772,9.824421161034621,0.024493561673489938,0.00454300347216615,0.009482847048376795,6.95
0.046813104278425666,0.01595863451247858,9.919149555032833,0.0042569182541226614,0.003772990710293139,-0.00698456540346877,6.96
-0.03602591035876401,0.18552923604895144,9.635003359126918,0.00033581382607362624,0.002170311484949184,0.006176830711359319,6.97
-0.06118229120845739,-0.026956504212209843,9.773790677691924,0.011308900235793085,0.005900235299395187,0.009085517086907783,6.98
0.07127215888152608,-0.11970972706913406,9.827819422248634,0.011866029929017028,0.009162226296965429,-0.0075218486344607325,6.99
-0.032299864023648185,-0.02783075078574993,9.81373576211869,-0.002592126939098842,0.0037297490954730124,0.01652542193768626,7.0
-0.11116781219528449,-0.019531625155187526,9.86382178129184,0.006409009332205609,-0.002664053561299754,-0.006934214904597787,7.01
0.08250069056113982,0.05224618256453482,9.667284532180773,-0.01020328758453215,0.002647902566713998,-0.012922423232790834,7.0200000000000005
-0.09394101914745462,0.14592464583750464,9.731270573490315,-0.0036549489044495624,0.00631696209182441,0.015949396405052274,7.03
0.1243261071746882,-0.048890162667178494,9.827755626884587,0.003346056517385264,-0.014223358302567407,0.014777474666442098,7.04
-0.01770878286478407,0.126119748729263,9.679593432112188,0.0057538375697046215,0.00690239281348598,0.007190937171601309,7.05
-0.0014467713662499305,-0.054752601698833586,9.840859398856768,-0.018795825657815332,-0.002552489138531398,0.0006706124358969342,7.0600000000000005
0.011885185386322298,0.1514385909958782,9.730041079818577,0.011330645130339616,-0.0081161332034435,0.006053943146299711,7.07
-0.060572180808198345,0.11110309055164716,9.931035476812939,-0.0125514481998736,0.006788425961368785,-0.020057901514866357,7.08
0.03490172460108704,-0.04838461397628276,9.798516629409473,0.02140073431366038,0.022652940875816152,0.024631383595211855,7.09
-0.11714579590076324,0.1379073317930147,9.89276606260126,0.0019618691218364036,0.007741809059304943,-0.011801625292123537,7.1000000000000005
-0.05283827681664837,0.04428055938302933,9.803566572551636,0.011402244519589315,-0.011063479832352025,0.00530803779282207,7.11
-0.009707188493617076,-0.02765238385885471,9.862451400049544,0.018604293281418296,0.016679535754855285,0.008166055042038016,7.12
0.02218030303457617,0.026480309457868154,9.841769634695753,0.0021015596447736254,0.00383506748058129,0.009301371146895087,7.13
-0.009749318772480715,0.025873762124929964,9.866433089003356,0.0013249702351046495,-0.005272322388200468,0.013443898137690105,7.140000000000001
-0.06280103624748394,-0.01803601640954026,9.843802453249792,0.007827529072245442,-0.0006088624651114944,0.007120505328156147,7.15
-0.20832897202616177,0.1937502466967395,9.653307320803002,-0.006505470935850663,-0.01570896495389919,0.007129621903906811,7.16
-0.04284296942804681,-0.0315156226366251,9.802861749426837,-0.0031395263081255478,-0.0020893192294630415,0.0012444973492579583,7.17
-0.014902539595045061,0.03271925965048779,9.856889365627735,0.0019121940093283455,-0.015117797010094476,0.006008925040246333,7.18
-0.05741076169502615,0.07120490544219636,9.754266003730258,0.005490726569657022,-0.01108318844740512,0.006055132594803649,7.19
0.0030451369722659266,0.020127518175600902,9.903168943457723,0.007422700391104739,0.0018620003265582667,0.006482088759442686,7.2
0.1588703644236802,0.06526060742298737,9.725357459789375,0.008122400635370322,-0.010334447774191551,0.005818759135908923,7.21
-0.06906050640860752,-0.05812403462605398,9.901949687127441,-0.0011320198555373109,-0.0056290094485656385,-0.0002445398899040296,7.22
0.004405654397265159,-0.05098015926583227,9.749611697319502,0.0040098263155856585,-0.0011214994113229067,0.0036433819656272576,7.23
-0.062445622746056285,-0.046843474209793866,10.06227796918402,-0.0010325453160312166,-0.01578760691608389,-0.003493575452671722,7.24
0.029788897752063833,0.08041440214804324,9.870751501845591,0.006094568883418979,-0.004917087150230552,0.004538627031981672,7.25
-0.0920685125971532,0.14399978060071847,9.73567251505509,-0.004228104225007508,-0.009339272649116062,0.01681750567757272,7.26
0.06938791755876222,0.11568935559633838,9.962663043487437,-0.008720823481416501,-0.011074113036991948,0.010279052567921759,7.2700000000000005
-0.09834193903348909,0.003789694150096857,9.861286379411535,-0.001223069884845871,-0.005342505253166502,-0.012061839374228053,7.28
0.07598355042315526,0.10744277875441346,9.843190080076194,-0.017057147443273097,-0.009715539184047257,-0.003027433742161522,7.29
0.03088019604583893,-0.07749523592859636,9.686417496988376,0.008760416725327342,0.006262242548208678,0.012189775070934071,7.3
0.206253149590126,0.04557436772293885,9.766309171247201,0.012392555343392581,0.0037608464647422997,0.005896247158086334,7.3100000000000005
0.0076949353428396195,-0.13784141653232573,9.864873925470675,-0.0057604048919017645,0.004814857667893421,-0.0010511973493763072,7.32
0.1059020163240979,-0.006910417383391334,9.84377528064367,0.019771736942563994,-0.0004222068626481299,0.00035336432188220383,7.33
0.09855807432762928,-0.03611826444170489,9.828727422079842,-0.0019138975839747916,-0.005415775149882919,-0.007035846454074894,7.34
-0.06843280475885849,-0.08685184461608397,9.867076773747334,-0.013862460353691028,-0.005166721075725884,-0.005982799497409096,7.3500000000000005
-0.0643025568684812,-0.12553979975931295,9.959975172527662,0.006947091731139134,-0.004489296495748762,-0.004553126110378484,7.36
-0.09069936280846098,0.16360118412425084,9.88083737661191,-0.012122760652483423,0.010688032279127308,0.003221309857807231,7.37
-0.2868386615953229,-0.0708549938992759,9.842886360843679,-0.009893989372850702,-0.007013065362733456,0.00843144729376727,7.38
0.017430378273931877,0.0637438767872017,9.811009644313794,8.44753225505458e-06,-0.014385398224264637,0.010100402303774769,7.390000000000001
-0.0676005232157037,0.003188294197437536,9.852391717518517,0.005343859383511602,0.007652968370540215,0.020322380879791067,7.4
-0.017464188570282185,0.1375311116607567,9.706020654281398,0.0009363120570574426,0.0009411631935669068,-0.0022022185357668546,7.41
-0.06635330864112693,0.018446653480627594,9.856493295972125,0.006946489824488041,-0.003609608128869554,-0.007059891013553536,7.42
0.021140188027778423,-0.005082786624078089,9.985533538132655,0.00913217820449199,-0.0016102903958883329,0.011199717995348156,7.43
0.14140308567394969,0.07058416258800931,9.65264629008693,0.012539655241665136,0.009227868836023062,-0.0027429767430021353,7.44
-0.07266784811841549,0.05683266633658947,9.660605780614114,0.011478278704267016,-0.007415670759094394,-0.002979807589876286,7.45
-0.011271485520897621,0.0004925317373460162,9.924147902851953,0.006358052810096926,-0.008799444745498736,-0.004591463870870551,7.46
-0.17229173498811468,-0.016172261608031518,10.066418945409692,0.011523850080548076,0.008672254523355231,-0.0006353171831803512,7.47
-0.1527692171974541,-0.026729038117297356,9.986631209967317,0.003912452876623626,0.014735968500197615,0.013168911631339184,7.48
0.013913142943422422,0.1707799452296891,9.795780132265937,0.009781041042185527,0.01396741159628817,-0.001954135105472019,7.49
0.05052782684077023,-0.04676697720742512,9.852984885357815,0.0002958281273044609,-0.0032040939629181136,0.0007473661597376521,7.5
-0.0877154743678486,-0.007427656873571617,9.864093335739721,0.003950216348002813,-0.013567768931613149,-0.011788168503682292,7.51
0.029342042789950687,-0.01932134515955112,9.916222069218527,-0.00017296781622968285,0.012656462008305919,-0.00908834449630377,7.5200000000000005
0.16836923786794,-0.027052319112244122,9.800863468207462,0.014538879346277366,-0.0002761430251129663,0.004746498056842823,7.53
0.1983324425343529,0.03615021310602385,9.733581722959222,0.012812785612907905,0.019170237613706842,-0.008829017888415773,7.54
-0.04316239230732745,-0.05232939081760349,9.952179325054919,-0.0032509274694629176,0.0005089119281676229,-0.0210656150497008,7.55
0.07312406082516103,-0.02244524020257965,9.901123639276543,0.010931340383032782,-0.00039024294445485905,-0.01029601859926483,7.5600000000000005
0.054363425500351496,-0.02034401868830375,9.932956572260679,-0.015158459555169304,-0.005444060446379506,0.015170263172782184,7.57
0.20047981088638728,-0.13361570440297982,9.69642284726887,0.016669917922039583,-0.008237343604537668,0.002470850226867295,7.58
0.05718553894270632,0.036001893476729184,9.801523105515415,0.004243256802981143,-0.006086299541900465,0.004277882514571141,7.59
0.024850772276847122,0.024720722307741666,9.867253945904292,0.015335155527833315,-0.004551461105097949,0.01966434675170114,7.6000000000000005
-0.20237766964458026,0.00034740534964604244,9.807843827767659,0.011699569649101679,0.007829586012745377,-0.004172548899610163,7.61
0.04125202809102024,0.13597780493042447,9.711567520941445,-0.006720415521775898,-0.006786651394816633,-0.017802385174593958,7.62
0.13670640573487214,0.0276030447091165,9.960671196611488,-0.006324153381089833,-0.003698969109607954,-0.007977590117165635,7.63
0.188650221290688,-0.018341469989022016,9.812005068468961,0.0012787118222554264,-0.0016375560322566408,-0.0021283083754981232,7.640000000000001
0.20674327463044248,-0.09007378079616435,9.95623246636174,0.00387683332466735,-0.002716916597762435,0.010152810111025921,7.65
-0.07171211983825193,0.16343457262761057,9.937487518559653,0.01490431531074238,0.001176399753455111,0.012715204257420343,7.66
-0.01031971895870185,0.09215091023962817,9.784606515922935,0.009825162903102811,-0.014141544356734021,0.005979727379432984,7.67
-0.0453641940746761,-0.05707223470213218,9.794030501219074,0.001325230340056909,-0.02621996146887119,0.003628651433378999,7.68
0.07611556871293583,-0.08086802915981672,9.768424105492072,0.010120793721112312,0.005448110984606952,0.01160552683624202,7.69
-0.06436133039641885,-0.07806711364102539,9.945805179164838,0.0024670925484232757,0.006655935459512647,0.002142852030970014,7.7
-0.028850020596980747,0.06512557375802853,9.710706693294204,0.009351944742846448,-0.005237243342078841,0.002204502825397486,7.71
0.025027589467549696,-0.04491489102020304,9.980411752897295,0.009612812387263813,-0.010767733153784044,-0.012835190222511436,7.72
0.1779535703678634,0.23223178187111237,9.859808569805779,-0.014728656989663613,0.01079833651647271,0.010358731823096146,7.73
-0.08270707362109857,0.0354531401779363,9.884542631067612,0.0021629539009815108,0.014537096424119846,0.0015131608302982919,7.74
-0.04899743365752954,0.04818912644192472,9.81243568476295,-0.016344394478548633,0.004816678596686806,-0.017333951973622353,7.75
0.031193626460451197,0.0013339771553655946,9.887689021924148,-0.0105754581952171,0.006374966390052673,0.021241454252310398,7.76
-0.20906127208082395,0.02541014370596542,9.830531104883605,0.0039040112342149107,0.01419980103326043,3.227105483033899e-05,7.7700000000000005
0.0931713304425177,0.0342150032848647,9.722560584551811,-0.0028523812701948866,-0.005697328899566098,-0.0059714115945071955,7.78
-0.28438074988317347,-0.08683680648852686,9.890859426106283,0.017562291835515963,0.019677054001708154,-0.022610396652123714,7.79
0.11904958896655995,-0.09035955201142698,9.723864567680195,-0.0036195373663165916,-0.0008860793594755633,0.012364331287432037,7.8
-0.03230859618121153,0.07690707858414844,9.892955366318041,-0.008743859373939376,-0.01040410678427496,0.0029573225716824597,7.8100000000000005
-0.03406560835310167,-0.012114772789678117,9.881437084132568,-0.009632540521336495,0.006154491967785719,-0.0079252571029732,7.82
-0.19063904583846017,-0.05472402141205929,9.703232771124027,0.005934426970386361,-0.015177011169368648,0.01672818220863565,7.83
-0.09659267627226624,-0.012511175396885642,9.96507151949907,-0.016252921832722585,-0.0003829593099028607,-0.012179532307112667,7.84
-0.062248945302947646,0.07253949856835196,9.721942071959782,-0.011363023018425011,-0.00967019088357249,-0.0185542506786031,7.8500000000000005
0.0865913293803322,-0.04418153298638365,9.775159294752495,-0.005208325711818157,-0.0037484087072508472,0.008116375456864982,7.86
0.1776292952774532,-0.03131134404352325,9.690527629100771,0.01413763008916172,0.004722814893761129,-0.00450795922539685,7.87
-0.07077645639591305,0.07930579189562657,9.948156027080737,-0.0008959152566855335,0.01184848473102708,-0.011458390460244813,7.88
0.11489838662908419,0.12521295228382617,9.786359756721337,0.006444710825099718,-0.0032830426205109095,0.0006764779706390767,7.890000000000001
-0.12499237162791066,-0.06882927176435633,9.847828161157226,0.011022484068449212,-0.0004306685147760839,-0.012353928115662431,7.9
-0.13660712653592286,-0.054651207165899135,9.848396573517746,-0.014643346614015595,0.002793891994224248,0.01212247271643301,7.91
0.07290380296144369,-0.08050894996658638,9.869868267747243,0.00022943884021771395,-0.0035256270528166932,0.010506844237282785,7.92
0.09647942225550664,-0.18689516831476635,9.691147886541506,-0.012046292706203039,-0.002474945605380397,-0.00618916441391242,7.930000000000001
0.007249065647242654,0.07066798731188795,9.909316173645822,-0.005961291574938199,0.00048759335462803563,-0.0033161814954593173,7.94
-0.053866532224836054,0.07909995940457987,9.91122463732851,-0.006161992578152217,0.012024262648381032,-0.01022862703737337,7.95
0.2123047767605507,-0.036644234290058024,9.735920399551516,0.003373876743831686,0.001007317652417263,0.008328581883913893,7.96
0.039273101107596624,0.07992233217194054,10.112828743709732,-0.016984416838769823,0.010134345386776981,0.004961379447700788,7.97
-0.07081588124171688,0.05244972644568927,9.882515051884786,-0.0019947491727455345,0.001150540210987245,-0.006673893847309506,7.98
0.08216100611820962,-0.16013660830755883,9.694437572740242,0.014155631093909712,0.004842683962048383,-0.006695632014518298,7.99
-0.03189622294349368,0.022503065601505726,9.666343755113482,-0.010596564615638895,-0.018071309771836033,0.0007711638527325895,8.0
0.009889121652467033,-0.06511665233516777,9.810717335369567,0.0007005493607365295,0.0009061785242844314,-0.01291414564487952,8.01
-0.03323811556647641,-0.03675210116891601,9.740644199094072,0.0016498120576803655,0.005391678588391078,-0.012768085194485532,8.02
0.029960443891227973,-0.14032890487293828,9.940957036485521,-0.011599051238784651,-0.0020270948297730685,0.006934293507967169,8.03
0.09448015757077444,-0.24461213705352508,9.821653028834488,0.01304481631994124,-0.012182478518828215,0.0024368913894446754,8.040000000000001
-0.0010308244655328287,-0.05889006487768959,9.92802517504233,-0.0016107643139499422,0.009462501238890857,0.0028964044915479126,8.05
0.08277159908762176,0.023204250367229482,9.851944373903724,-0.011214516705157563,-0.0031530364686243044,-0.0016625933548664736,8.06
-0.013369443355069214,-0.0660102559794258,9.814224313359636,-0.008747405286461748,-0.001759288200336196,0.005483707797509705,8.07
-0.024579304822837416,0.1725913761796661,9.906267316050833,-0.010874255920759999,0.0010410141387964859,-0.010137848766412898,8.08
-0.1569869251019923,-0.028403894978158824,9.813996742992806,0.004368442363164506,0.023245783565051928,0.01648724099193678,8.09
-0.03047269049318282,-0.14934242096007785,9.766251802648293,0.003676547142874364,-0.0008021885614477569,-0.02975775427831194,8.1
0.09188358238719008,0.10437211957078092,9.80074499563227,-0.021395241979635524,0.006208851297609203,0.016334584688577996,8.11
0.04493076571898525,-0.08080899839810496,9.583484833869605,0.0005656415269282865,0.00124007666980371,-0.020029548682325825,8.120000000000001
-0.10325810167601296,-0.08579389353105263,9.836683665084395,-0.005473711728538861,0.005618977015766405,0.00270108462875875,8.13
0.038935019180343006,0.15787391481026103,9.910138900607253,0.03599623010886021,0.01959304911760424,0.0026575202120660522,8.14
0.19896051973296935,-0.009628695368424908,9.953827331248421,0.005810107489642621,-0.008259430508192752,-0.007316971455764761,8.15
-0.07249380778775659,-0.026916553880887557,9.71688422626097,-0.011732190934877054,-0.015785201500378588,0.002616430345136771,8.16
-0.04368775943389878,0.031766296977979225,9.992632639656708,-0.00035527471245586827,0.00675089433208124,0.008857204121306929,8.17
-0.11761457682817289,0.02138376831389063,9.889659849331997,0.008538429866855967,-0.003303449757895496,-0.00420803146670328,8.18
-0.16560687688243542,0.04105858133530642,10.098948050226793,0.014035372266609154,0.007860483844621102,-0.0027297326655274803,8.19
0.10076994801831174,-0.0809705479331788,9.824476064644369,-0.0024723668823455037,0.0038299381576228225,-0.0202473592487156,8.2
0.05567926429165503,-0.0902084828325815,9.878647517698978,-0.027860727626182497,-0.02334894564266103,0.007970883098920047,8.21
0.13275031719376837,0.035817719023784965,9.879912074529,0.018704980032344533,-0.006777149015985472,-0.0018929460598403763,8.22
-0.11438581885587334,-0.09519768825178716,9.896459522476855,0.0002303203305086133,0.017591963486396543,0.0048130729409316,8.23
-0.13694609722881498,-0.05130497769901202,9.953917724509013,0.01089727558559995,-0.023432362310139482,-0.017642417155962608,8.24
0.04364545660844562,-0.11819000481319,9.659929708309043,-0.005663786065200836,0.022300842935448668,0.018992462594080783,8.25
0.03115069863820269,0.28295095551325206,9.953030130590518,0.01075785128212025,-0.006774865350314311,0.00914581424617368,8.26
0.17787583961664735,-0.1803707307939524,9.806633897268988,0.006643139042916933,-0.0038891033172748514,0.0003711592620628259,8.27
0.18882046919793968,-0.06343054873707812,9.629731059066982,-0.01393100437933144,0.01536411011597476,-0.005993908123282873,8.28
0.021257493329330877,-0.10891005530931928,9.799494362542728,0.005682707270002299,0.012426969408868624,0.0034175973138543037,8.290000000000001
-0.07411153872482339,-0.19510191646128566,9.941353876718216,0.016491305014301908,0.009803172539149054,-0.01872363736617825,8.3
-0.24968828257083797,-0.15016843301248956,9.71054153086372,-0.0008343615913536719,0.00894898515784527,0.0011879731215213637,8.31
-0.018588614514410257,-0.02707991616626808,9.906542616701017,-0.009105569281650272,-0.013346590656338251,-0.006703356675624338,8.32
-0.10367713303028968,-0.011920818954983411,9.86048469518326,-0.010184831432543347,0.011325719803964757,0.01627523586996956,8.33
0.050336310486536896,0.030959041278138928,9.70158221584906,0.0015343354679328472,0.019940070321920817,-0.019577255468264915,8.34
-0.142761412007649,0.054756334679324004,9.934880288464633,-0.010407920655767122,0.0077815093510252365,-0.008958508343564257,8.35
0.09765642612561548,0.021072052824086824,9.84019703738202,0.015339403424215612,0.008402585611332551,-0.020789646082914028,8.36
-0.04339282444394743,-0.025449051752085908,9.749824748652914,0.006277819127476518,-0.012811334027871293,-0.016390884468776207,8.370000000000001
-0.10964387832519934,-0.09955374573815542,9.705827788506806,-0.0008232258455918227,-0.0007370372547961959,-0.0074252392167949155,8.38
0.04516954334524075,0.23124269812462794,9.749068443137649,-0.00019248273001792868,-0.003538186792149347,-0.0074889924410003455,8.39
-0.05969679188683446,0.014834178714693343,9.796347511217563,0.016717440597291182,0.005987637668477593,0.005229185982013956,8.4
-0.061507495059566424,-0.12492283467845529,9.730308956905715,-0.004142141106929627,-0.00979190891777613,0.011623322367661308,8.41
0.055926958668032246,0.00011400371280431397,9.815580512329884,0.004170456304539734,-0.019817039494347013,0.0017303832806902237,8.42
-0.17519856590096913,-0.026416713707046027,9.671522840047695,0.015849520495312304,0.0022973105872188494,-0.014446611420275932,8.43
-0.005096199637801805,0.025861222885579866,9.843382189310127,0.0026030082837273693,0.013268103119487005,-0.00940624852132108,8.44
-0.12945046880477698,0.06001835038098159,9.787054994453127,0.022117134572975074,0.004526036429112103,0.008035629930370923,8.45
0.09697880904527395,-0.2066381388586006,9.93347699256994,-0.0028177009664810304,0.0010298835161659061,-0.003771328765808213,8.46
-0.062203489267566116,-0.05994670761878577,9.825921450841363,-0.022582255381977636,0.0015365568264357314,-0.011277451617084306,8.47
0.008830589057843442,0.14817233492135942,9.714660597865635,0.002475921324686408,-0.00032510842970254,-0.010203439413297918,8.48
0.07353681757836927,0.02964292019558944,9.652274747062094,0.01561336290076349,-0.006248263543747209,-0.015350251951085787,8.49
0.038307453827595,-0.11687212725414342,9.763054866768885,0.01251537049945543,0.018455638910694714,-0.016804099268600298,8.5
-0.11402017902180542,0.05525687072990462,9.776397291967848,-0.007704672723119539,0.006581307616717006,-0.013678752630835369,8.51
-0.06710141267150727,-0.04293087988652489,9.919462701651407,-0.007138050963398209,-0.004895676645197552,0.004394297146443803,8.52
0.031194547079253857,-0.05608279553714873,9.734166675582774,-0.005120652695616223,-0.004222174339291918,-0.009704117278186295,8.53
0.10623658820199572,-0.026090253770482894,9.809324688251738,0.003000533800159008,-0.011964621618993176,-0.010960287667755822,8.540000000000001
0.014545237682243119,0.02798144445052199,9.698434313182654,0.00993344307706273,-0.01846044489790023,0.0036436350052587462,8.55
-0.12275550641766064,0.051155471760267246,9.690429838969731,0.004632940942388174,-0.01643346328751831,-0.0037331646759024427,8.56
-0.058605375398283394,-0.07273039309841779,9.879596206893044,0.009604311422778997,-0.0033367517276618325,-0.0011477739598695876,8.57
0.032246651474580106,-0.04394288421349468,9.662571124957239,-0.010842630918842926,0.002379966220081549,-0.004057265419621092,8.58
-0.11637018880506998,-0.09610181334025691,9.882912508099963,0.001226910770113387,-0.003717403267418239,0.002370508188602254,8.59
-0.04377053790238499,-0.22442021731296455,9.602895271805448,0.006410155289362375,0.009675907609784677,-0.005984510689455767,8.6
-0.024193815985994727,0.06396001377428497,9.657574996472576,0.02987697767045793,0.0035427633462993746,-0.008257059104980747,8.61
-0.008127899922915063,0.15174324638232262,9.791761151518372,-0.003622506596004229,-0.0028559284753146264,-0.006248647848270411,8.620000000000001
0.17783508952447025,0.020277001212637126,9.766456306922345,0.014642692503873594,-0.015993984064612006,-0.004341443288785025,8.63
-0.012179079360074601,0.020058134781134145,9.805883018240841,0.013345339002215257,-0.016105223221880995,-0.0068462630832593265,8.64
-0.05688941284512278,0.0008204945692604726,9.768999510823129,-0.018610558659212705,-0.00838784375401472,-0.002251584254635437,8.65
0.039697378448091625,0.07778153194175813,9.638407315153266,-0.0019109133533536952,-0.0021548987462351723,-0.002945316106294227,8.66
0.04420757122760261,0.19161133879657646,9.858025777645851,-0.0009644110756449797,0.006606672298581029,0.0014632213658864798,8.67
-0.09109895754986203,-0.07743313124225068,9.900497043452546,-0.015419202964249774,-0.004128446970245819,-0.016258569759318817,8.68
-0.05810494971928162,-0.18436007128111886,9.815816712526765,0.0014456646173301372,-0.01699034964832474,0.002043377047888302,8.69
0.058808217812684443,-0.15936356828661158,9.868183726395124,0.013185496683833032,-0.012200574492856638,-0.004735057352224043,8.700000000000001
0.15510586324798972,-8.25725372431756e-05,9.750303824044662,-0.011764541306425414,-0.0039839107859115765,0.0021963825105954095,8.71
-0.01412937353681895,0.026318548013745696,9.893232129393263,0.0054710190167550285,-0.007648351903708075,-0.009895769682432023,8.72
-0.005874642340148727,-0.11216054555921318,9.792478694405341,0.007265981258905397,-0.008451348510652289,0.012169272741823953,8.73
-0.06782829648966825,0.08963327951141502,9.617742896037772,-0.0017662135819406406,0.01885979526926155,-0.009732985010224751,8.74
-0.09042811356523558,-0.018746344230512562,9.795890494983428,0.008347912808090692,-0.0023217565371112226,-0.004662750924630061,8.75
-0.1631879603921769,-0.0836159218313699,9.69116594483858,0.003793403612462269,-0.012624645274890154,-0.0042426862288733585,8.76
0.02105370844466791,0.20030242723413916,9.786198179138145,-0.0014328069491406,0.010573568680651829,-0.015639766757599045,8.77
0.12779975648272104,0.025418293798132315,9.90740268339123,-0.012989125763835476,0.00196488786113591,0.0007351557554180146,8.78
-0.18256212371020086,-0.10221957501181143,9.669766402442276,-0.014674366855357151,-0.0022975354975236575,-0.001522631144228698,8.790000000000001
-0.012969806988831923,0.11218451765495051,9.770741169519098,0.003223773605049561,-0.0017628364657378132,-0.006705533278213393,8.8
0.1049585869613281,0.11462952298094897,9.769454138818293,-0.0037621966467985524,0.018169400599515658,0.003276003271882563,8.81
-0.02736983099126938,0.05567580866228699,9.882669497689825,0.02230445770880302,0.007222422157680385,0.003345934919825169,8.82
0.03416689005536023,0.17374656086003903,9.82634846752533,6.785705147312117e-05,0.006575629596411312,0.009489750358136302,8.83
0.06372407069890132,0.11620020786571693,9.9400211672112,-0.008371352824669435,-0.009423498920342971,0.0022081006997058993,8.84
0.05974246250557015,0.05180974459123379,9.810219588435006,0.013347867879463047,-0.0008911729808227381,0.013581890010217828,8.85
-0.08505572517318567,-0.08512588651953609,9.828527987145,-0.0018288350202808898,0.016850706603656423,-0.008510607829221013,8.86
0.10172842251166941,0.011478997844998298,9.803834253989127,0.005190454794639154,0.008068421188905179,-0.009654633073696859,8.870000000000001
0.17448917904358127,0.08176155263840247,9.572084147072784,-0.013040799815190863,0.00115083498748374,0.012146775356951084,8.88
-0.15670228782019896,-0.10538861408469645,9.832882039950627,0.000563416544625683,0.010942854415240788,0.010905827934209893,8.89
0.03465411287501179,0.08513708982873412,9.886758963801446,-0.010429949805141303,-0.0022510835551400425,0.01103466718955985,8.9
0.08876936000260355,-0.11194837263878002,9.774443880921694,-0.004504751283078332,0.017945554697972207,-0.012978868771160371,8.91
0.1139655991711837,0.09230710064521665,9.953757195967949,0.004783416172326448,0.01066778121146592,-0.011185895615126862,8.92
-0.07724768541760577,-0.0913707608035115,9.89460933094907,-0.005770449324181223,-0.01079053534986101,-0.004564012350322082,8.93
-0.1314963786979011,-0.14110525102470003,9.785223338217596,-0.009768278268685258,-0.009162831972652706,-0.01055206997155162,8.94
0.039674808962957185,-0.05634572837606379,9.88688552926387,0.007259202802741223,-0.0069694311930203244,-0.006334696783930014,8.950000000000001
0.07061413810187937,-0.10870073316590029,9.815848137485064,-0.0038498242585381383,-0.0028636292033310373,0.0027753005692331668,8.96
-0.018850631814662965,0.041628833451396875,9.829401344808373,-0.013713835374011408,0.004033060337509621,0.004891043851678203,8.97
0.07668222081783421,-0.009786845530511916,9.905462581631483,0.009628000099044624,0.009953478889893806,-0.0014564127965271709,8.98
0.06517105737576488,0.04524001477867647,9.496821105582672,0.00012136105093864628,0.0025050655867600593,-0.01001549596470258,8.99
0.1401936196841181,-0.011393756731759026,9.956417498990406,-0.0003421192485047526,0.005575196692725702,-0.005231081965496134,9.0
0.028147472808792342,-0.09815472730309335,9.932412009615632,0.008270898444553278,0.0024057453841400283,0.004550366688020874,9.01
0.05575101205396249,-0.031861542859373725,9.902945962945873,0.009441122842597419,-0.007551598201399149,-0.00491617436307989,9.02
0.09280331375099017,0.3596379454804459,9.861049755253399,0.0029368056520370374,0.01250457986917018,0.015980870119077072,9.03
0.06807956294556833,-0.11430931988002253,9.823765269414459,0.0001992369365785396,0.018889008553743952,-0.0007618361197027862,9.040000000000001
-0.11381127610636191,0.0017791348649435865,10.055097081530901,0.004506537228406627,0.0017219356990441268,0.00531371558734009,9.05
0.028055009874963833,0.06965762751454123,9.745816760480343,0.004330836409492592,-0.006830699038249655,-0.007347146536926007,9.06
-0.06377732557822909,-0.23102683479744415,9.86949598050711,-0.003413311546475867,0.024533776011354407,0.012035573466484767,9.07
-0.016818029150270673,0.07376254386602382,9.831585832998199,0.014038469099432538,-0.008124133567386928,0.012444560418985196,9.08
0.018771653004396316,-0.14932876234002218,9.922518155857642,0.004412580575449032,4.299436106925725e-05,0.007888876135896233,9.09
0.047212464129443264,-0.07743379858612237,9.762117059441477,0.016134918593421265,-0.008194657342850712,-0.013609005706914888,9.1
-0.15739955024334634,0.08328175969189633,9.940040314388778,0.0069758815333361614,0.00594075993186744,0.0024056267307313505,9.11
0.2591368211158691,0.11928958846061294,9.98043026891227,-0.005676344785326478,0.00792828141294035,0.002840823002255859,9.120000000000001
0.04988618536947864,0.007172338874266807,9.80480019320578,-0.007009855437482118,-0.0025305245824755575,0.008364199480782795,9.13
0.030084411541300673,-0.19469868124267709,9.840788504728444,-0.003061975174541009,0.0006146907153332819,-0.0003740010543109243,9.14
-0.09368360449953211,0.16358242602345544,9.963187598076903,0.013361302940243345,0.01040399985335428,-0.002159150375073802,9.15
-0.154767485824584,-0.09060717768607293,9.81134102359102,0.0015098560342169036,0.0209207218056035,-0.014504682215112178,9.16
