ax,ay,az,gx,gy,gz,timestamp
-0.057611502551025984,-0.032551984664575546,9.84751681508421,-0.005307339159704756,0.006997448376776687,-0.00641050809099114,0.0
0.07745126050226099,0.03935217754361645,9.651383094897344,-0.008503456155891627,0.0158375422672926,0.002812645875327269,0.01
-0.2947310791063666,0.01274839583028232,9.75341914744547,-0.0015476493400152884,0.00020798231524804788,0.018496639018932736,0.02
0.021800017339337327,-0.012421856934937036,9.850549247063503,-0.019745937552967295,-0.017254909889244854,-0.0037414728150665295,0.03
0.08567400737564146,-0.01884259173765259,9.85069757992063,0.028984178805006925,0.0038396354955970023,-0.0005554700884764969,0.04
0.06321971694026406,0.0006743543158136042,9.696994375529806,-0.007549197577193693,-0.0017773302077674583,0.003543267445615714,0.05
0.12823487632113978,-0.09514713450658568,9.780947118765376,-0.02891927319809927,0.007879241499434914,0.002796250456157643,0.06
0.2554502181318824,0.15856232969884046,9.733186032449847,0.013931828069117042,0.017292228131591758,0.0009946734161030537,0.07
-0.01608589810313652,0.04754727819488566,9.955514113378534,-0.007755426109947201,-0.01063048578186705,-0.002807003609626931,0.08
0.07760336797896757,-0.035596601383979465,9.988499070150333,0.00843761062193048,0.012391435692703836,-0.012580094217613982,0.09
0.11631390992859805,-0.018513096318307276,9.620978083851977,0.0021314781473297946,-0.000993044624343266,0.001735984594495078,0.1
0.024318018224501695,-0.0022397738618343114,9.789581231024561,-0.006558707543023554,-0.008980074732000763,0.010095995291995173,0.11
-0.08349964770335082,-0.040434289054573296,10.009534446662476,0.0033741703147134707,0.0009399700029314136,0.008710747828241381,0.12
0.0778150210837459,0.22306980014061653,9.780983276050696,-0.004637593094094686,-0.021258626983506838,0.014107479836110064,0.13
0.019672488124296367,0.00040365613583439523,9.87422224706908,-0.00948248196503502,0.0018237398803110975,0.00579581606633068,0.14
-0.005878524959844693,0.11510121353343683,9.907790890432377,-0.02404663186260028,-0.008024531948368541,0.009041494826882806,0.15
-0.03504220695932274,-0.08206848946491874,9.70322268088576,0.012390390284242794,0.0052967943171398435,-0.0022870612444617915,0.16
0.05752255289252012,0.011633261997733303,9.845689660286164,-0.011636446042437694,-0.0031795047038962886,-0.008764650049749216,0.17
-0.1144054068492584,0.11688704225167862,10.018064971608364,0.007337589297560929,0.0018398181490534874,0.011345577573885254,0.18
0.1263756345201252,-0.056844034193049335,9.927175013046208,-0.013469385701024303,-0.016362003049504543,-0.007413123715022968,0.19
0.18421717385017977,-0.13926595719985724,9.831021509832391,-0.007384934959541708,-0.00332889346347611,0.01501567388723414,0.2
-0.2144721175533927,0.10906751761351796,9.865439901713449,-0.017914622075517538,0.002415479305408581,0.021361819803427093,0.21
-0.05457874466519552,-0.026083158183760655,10.023280299871878,0.005325109888036911,-0.006147600757104851,-0.01054218429321838,0.22
0.14078106287194966,0.10184129675353255,9.711188347629225,0.00440950838597459,0.005927299592035198,0.01731157897074196,0.23
-0.07339827357062463,0.0276154112312178,9.742022958840051,0.009511097983355327,-0.005077599988686624,0.009206723328374435,0.24
0.017522575700790577,0.0896377525230796,9.57688074023015,-0.00903690585604778,-0.0007914096138088528,0.00789094899771606,0.25
-0.012948040762017207,0.02988306605272122,9.8710453113495,-0.007336958173056347,0.01363140916290012,0.010055152401967749,0.26
-0.02968728958827914,-0.10948416736240732,9.790343966660934,-0.0025486687035829176,0.00815575160146023,-0.004845692497003615,0.27
-0.020355687513585793,0.04409112635516314,9.889627078984649,-0.009372133300987446,0.009079073559903306,6.349567721524038e-05,0.28
0.187798595110645,0.01687313975470504,9.77609353760244,0.015715728960440243,0.01457735134297224,0.003613868194276508,0.29
0.05692347375274215,-0.12019767192683053,9.837403068788715,0.010599969544690098,0.027140532507897108,-0.0022491375084777356,0.3
-0.12471382591331248,0.14796022739600798,9.771438605980373,-0.007943416355782053,-0.0009010312386122476,-0.008208911548457262,0.31
0.1080616377405729,0.05643729126488703,9.743314047794101,-0.01794501573459192,-0.004955673577868893,-0.013792745745886677,0.32
0.17191980785715102,-0.04446874843159523,9.882572946764787,0.003114850471823544,0.0014102238581567988,0.004983708906005915,0.33
0.10777539577080984,-0.040052555297828696,9.866863046605427,-0.002421543202216156,-0.008853484043103087,-0.005941457633187888,0.34
0.14397305829423981,-0.009822441677515224,9.582609937438182,0.0011131823665130613,0.005887464209958963,-0.004708849176162385,0.35000000000000003
-0.015723345046567968,-0.06239414476045485,9.687984165771478,-0.007822531816257623,0.011921419867826046,0.014362022697902668,0.36
0.02072683444318027,0.13374318350249415,9.641745732309705,0.015427673943383334,-0.006412694289711637,-0.006746659745434419,0.37
0.04029306217527502,0.2103217045999183,9.718080627474997,-0.01855521364411626,0.016602983324392348,0.003710529112815637,0.38
0.0698001047402523,0.04551999249926569,9.882687420716517,0.010796914861606253,0.0077264002214329375,0.004919638581510697,0.39
0.06213393079520002,0.17645549441663924,9.877561461687893,-0.00955902177265774,0.0012991311853316936,0.01454689734495845,0.4
0.05808803102080056,-0.052389975277844905,9.970328873724247,-0.008849052654390562,-0.0034290663022088774,-0.00017604249429120338,0.41000000000000003
-0.033941446274475914,-0.05775084307944842,9.645881176493265,0.0004176002831470989,0.005721887113395479,0.00769472137123865,0.42
-0.03265245874601509,-0.004304547641877265,9.879364333564402,0.002957106423484338,0.014041838351605463,0.01195395850631777,0.43
-0.024054239349693998,-0.10372973642131943,9.80617183872805,-0.003563061831234255,0.003920250874287891,-0.0005131576483729851,0.44
0.1412434294778008,0.03879747332520266,9.684915663684711,0.0018198411151829777,0.00576767674286152,0.011208897489291277,0.45
0.05990676362785603,0.013390815007734942,9.852251808057876,0.0008924041464557792,-0.014068692436208568,0.00355069406639789,0.46
-0.15242733708857198,0.1392352685802293,9.949240953967927,0.004043916459379143,-0.016454839290499016,0.004751127011740657,0.47000000000000003
0.05569756880549695,0.06375360764266823,9.794673067814438,-0.0012827011596600994,-0.0059670870675952,-0.012545189647070637,0.48
-0.19738540257599552,-0.03485694161587163,9.891366355070852,0.006429401227543231,0.008038489321890914,0.007707505209597233,0.49
-0.015552883911037308,0.03261959303026081,9.883588796624641,-0.0004892917582080523,0.015000398680806415,0.002255061111334425,0.5
-0.08523503305273498,0.03414936701756814,9.732367104487283,-0.017616493050425494,0.019293443378213464,-0.004473169766800248,0.51
-0.088902347038201,-0.18059864625889682,9.732654850168998,-0.010360902397414225,0.0018663030277415405,-0.002935818171918869,0.52
-0.019736567387702547,-0.17865657922042336,9.79913598751995,0.00450761837924266,-0.006092586814383961,-0.000729339911971732,0.53
-0.01904773314483597,-0.05053497980137416,9.994393407178956,-0.0014776154159339037,0.004609934589489097,0.009287169867164087,0.54
-0.10395218197906536,0.052330209046685006,9.712084486306896,0.013736446937122223,0.0012812138109770078,-0.00028285417668291686,0.55
0.04714319956441384,0.06899297598019294,9.796341667537211,0.0034274026964428595,0.013125092085630957,-0.011515691095128164,0.56
0.00013767676569291105,-0.11809612100005601,9.793737818118371,-0.0026795405955212254,0.010859484158860701,0.00901366871636982,0.5700000000000001
-0.12898536288109572,0.11491262226732023,9.925573681428757,0.007920266871638453,0.017100821949562563,-0.011061826678965811,0.58
-0.14548856872851343,-0.10825243266126801,9.651318976377693,-0.02196503522238468,0.004952179550655311,0.0004552747933319916,0.59
0.043619526148161884,-0.08891636774184969,9.78345409651622,0.011818978029814858,-0.004809349281547235,0.0056808393115382405,0.6
-0.058940849293258095,0.06250868707150825,9.793789234806741,0.003281055951508901,-0.017018156128921803,0.0007123236084219783,0.61
-0.12032263998822197,0.15886111924977947,9.78688370136826,0.019475663608834654,0.0031066746113731832,-0.0008211208743407192,0.62
-0.08309731853780351,0.0022903441619548217,9.801880145153623,-0.0039015197642506046,-0.006100368793729805,0.004921402571310183,0.63
-0.031719799065567406,-0.03739179725233994,9.67128263692973,0.006587714443634632,0.01711985968794176,-0.018645100621144658,0.64
-0.14587335330676884,-0.11343112793988004,9.811714922450717,-0.00958803173653882,-0.009692446466030756,-0.007708841361841406,0.65
-0.011705763821600603,0.0483601400172354,9.869703554334864,0.010365468909852014,-0.003977008745905295,-0.008957674684366769,0.66
-0.026006956003791656,-0.11870827050247668,9.867330437774568,0.001868167191697124,-0.026751800211052137,-0.023375791157666966,0.67
-0.05499268974742538,-0.09723376234978018,9.756784466817736,-0.015560130653506771,0.0071082143974044686,-0.012881790739223648,0.68
0.08285871830734304,-0.06486831069042334,9.886695704051002,-0.021645787914984647,-0.004149496366928812,0.009859362033317835,0.6900000000000001
0.13502909313981212,-0.04994981106977557,9.918074174807831,-0.0011900052667479044,0.004555065914625432,-0.00937508724133094,0.7000000000000001
0.0005602567740046605,0.03129205673294589,10.09226515277387,0.003256458603087649,-0.012697837363559663,-0.01752008792844151,0.71
-0.0763712486414805,0.17769265628584446,9.936970567831496,-0.0069295243158079365,0.0013825954260031606,0.0039585022111447935,0.72
-0.08020889350825411,0.08295905811543108,9.720205782003665,0.0008274851014489337,-0.017849628520936304,0.00804473799645848,0.73
0.01668846999385101,-0.1094705953621703,9.79827048678375,0.000562168771661776,0.0026727032881499464,0.008141383973261583,0.74
-0.020498362669741754,-0.06718077740772387,9.71159301039395,0.01091946324241659,0.007112200392116035,0.002517680733695344,0.75
-0.04860208868631935,-0.042575161698142704,9.718221023817843,0.007158372971172853,0.005181380771304044,0.019802383533853284,0.76
-0.1351996567658844,-0.0327601003778854,9.901571427678931,-0.0021154156061635723,0.0023085703479609775,0.006913148035825637,0.77
0.05667580581314775,0.05252785168698274,9.788575948479323,0.002453433922769543,-0.012154221189520604,0.0035929600788907417,0.78
-0.04351246533823069,-0.001582773498982277,9.840427670295725,-0.008049823312347732,-0.007571881396664486,-0.016678704525967047,0.79
-0.053291420725049214,0.06075105214786073,9.827158039924866,-0.00929637334424144,0.004971785760240734,0.008315856168929735,0.8
-0.04566315392105534,0.010913228759743232,9.957474507441283,-0.021750125129750622,-0.0002973654450253619,-0.004157944494496436,0.81
0.09667286889695997,0.14153151147246792,9.780689461520367,0.0017815183552516176,-0.0003305485021056747,0.012723582974542708,0.8200000000000001
-0.17000932634509447,-0.12018315085012464,9.944636916264772,0.007993998961128854,0.005438416576651308,-0.006129486287822561,0.8300000000000001
0.0027865439108730587,0.0018497620087539778,9.773732102882247,0.002225812182528985,0.005304722206175059,-0.01178019915269406,0.84
0.00537984536333708,-0.0969102143819326,9.627753746934122,-0.0006591837534911358,-0.010805490828563049,-0.003927388953974409,0.85
0.09255395654584926,0.04309826592198959,9.803973429964332,-0.0002452971378769942,-0.027029615844809833,0.000792331063316332,0.86
0.029504024590786545,-0.031183285304977538,9.880869680435435,-0.011376588630790259,-0.0004926234568096037,0.01372015894369501,0.87
0.13971377767421944,-0.0888107266211578,9.873534082684902,0.0056959128160361016,0.0023198294129016866,-0.003319860451298915,0.88
-0.10064090130777566,-0.01793042111860697,9.682974451849526,0.015403857020573395,0.0029385007552124747,0.010061585882582833,0.89
0.043821482611406004,0.07720839750331773,9.828248669908938,0.0002946808758487899,-0.00027365485422081194,-0.00682228609700122,0.9
-0.06683645260500652,-0.18732844994693854,9.719407361388232,-0.003869406300087694,-0.014487777024790288,-0.004613957273471618,0.91
0.003896634025743471,0.09576110989768885,9.85888578595258,0.008040873462379753,0.0056863901380664415,0.011675527887295936,0.92
0.06948448262752338,-0.019934940553822923,9.653667570411042,-0.01036650486866633,0.010447268647165804,-0.0054126896667344975,0.93
0.031001818941003387,0.05897797652778533,9.84464263034125,0.0009489681251419186,0.009003275866444803,0.00685604987734931,0.9400000000000001
0.004401726753852103,0.08799531176493555,9.797265523466324,0.00561286916661357,-0.009088835296963157,-0.0022903625850988797,0.9500000000000001
-0.07508481933423213,-0.028027533915671567,9.956298828418786,-0.015727983765027594,-0.0033989698279281635,0.00012648929262495929,0.96
-0.07907174153997369,0.003365981775956583,9.652972024540327,0.0066429454973657934,0.007316849669229051,0.021303162566144056,0.97
0.03370161555571532,-0.02762742959443757,9.93559988589151,0.01788446866990237,-0.005002707034920227,0.013977500093819381,0.98
0.011881870856715698,-0.19657986561865615,9.84430221112497,0.0114981732998256,0.006246204457762943,-0.002303325697503214,0.99
0.03948268918066561,-0.09808945476324066,9.91141757606757,0.0068300295474131726,0.0018505964361792662,-0.010436138474478359,1.0
0.009609747599050499,-0.07848610712679817,9.885482207325573,0.0016849490529511908,-0.009033433808602012,-0.006526590670797856,1.01
0.09320406469474085,-0.01773681262290343,9.721627892454707,0.0014960854216001388,0.012196735034804604,0.0012239378585376264,1.02
-0.13788550219102233,0.015249795074077097,9.773407116356239,0.006434283869495574,0.01270143545877043,-0.0031204980283463623,1.03
0.08844059331587156,-0.006411339984904839,9.725746051477557,0.0021898199491977065,0.015266616187625712,0.004681284868651704,1.04
-0.03883218524898748,0.03803036997436194,9.782387357203014,0.0026581970248784176,0.009478815167731894,0.004505822313940242,1.05
0.11509917088015804,-0.07871276832014945,9.650067626528749,0.006317553462236391,-0.018416439583452678,-0.01617439711044605,1.06
-0.015661594337945516,-0.13497560342515438,9.683571150155498,0.00377829892800392,-0.01307455842366706,0.00893366274903804,1.07
-0.00034947961677748453,-0.008620978729385128,9.851570292810464,0.0031540865547524354,0.01126977404292843,0.004413994158588717,1.08
0.0924510421427697,-0.06368471028089034,9.717523578652324,0.004535548801639224,0.0005127265711734323,0.011415001908140833,1.09
0.0805251714056084,0.2792226480239301,9.614468200636681,0.005773849631520501,-0.0073310453994159365,0.011160363348632702,1.1
-0.01995760203457002,-0.22094710312922403,10.067609975645825,0.0010954915642524415,-0.019661021109157725,-0.015413847773199651,1.11
-0.04094068449807578,-0.0073814661231430476,9.70991963576762,-0.010389717759108191,0.0006047934898970264,-0.00825312725214636,1.12
0.10444086323058487,0.17029982593437754,9.69968099968666,0.004962491665828016,0.006510842441811072,0.00039701121220885624,1.1300000000000001
0.026640976184462924,0.09373098149094006,9.795977380213653,0.0011010832534113727,0.0032299832424773486,-0.00958534079331759,1.1400000000000001
0.02972013131924943,0.13195302663578917,9.944079979031281,-0.008977118633114924,-0.003820504380221612,-0.007881615744993607,1.1500000000000001
-0.01946969231445209,-0.1201595958864295,9.844896075722943,0.010106858904699614,0.003404877571068142,0.008667659639784884,1.16
-0.04202609938445304,0.1920071778364985,9.932439519424028,-0.00522414754003717,-0.00876091700473484,0.006504798648385363,1.17
-0.08022642130258943,-0.01573541247899353,9.717936329800636,0.000801021211150451,-0.004466297207099539,-0.008902945306908465,1.18
0.06438495298616947,0.15791477119823172,9.584247415139028,0.004715207564756046,0.009446261261878289,-0.00011131103466114612,1.19
-0.1057709829036188,-0.06090621286672278,9.827314418342036,-0.008855170489956625,0.009885712527040428,0.012104968423226194,1.2
0.019262399292491503,0.016006401930706703,9.843899507398797,0.001109851771080348,-0.004363953951483874,0.0034701066855574525,1.21
-0.09346901279477428,0.06810920830231786,9.876778305606623,0.003936587412809101,-0.00012545787911732003,-0.016254454359816144,1.22
0.0676958291724078,0.1212756575583577,9.82825914719062,0.009365071605502378,-0.0036886627980160965,0.0037551956888073807,1.23
-0.07385931773517432,-0.18914959058825845,9.872036966173798,0.0014062284618872431,0.0008441788914591548,0.008869594072403298,1.24
-0.08117943213825866,-0.07635000372078486,9.88715915609537,-0.0064921465551741765,-0.008619617145875436,0.009757902659789364,1.25
-0.06606462786700376,-0.09524241631160085,9.969785545014155,-0.01607280968872699,-0.004506606904183762,0.013117735313051415,1.26
-0.008464082913586283,-0.06635548997181497,9.68973066088113,0.004868028454671184,-0.005160442368530379,-0.004981780566377407,1.27
0.02206644465532591,0.031003420626307718,9.89858400002329,0.020829917152662917,-0.007004379071512595,-0.00033454023329507963,1.28
0.018656584540016195,-0.01946626632142652,9.790708903370248,0.0038814129075978947,-0.003727575276217944,-0.012011601046487389,1.29
0.11606669691761767,0.15007451632711996,9.859426269207097,-0.0050833775418524475,-0.01742769056802392,-0.012460718075064029,1.3
-0.020689417966411053,-0.07569171287143055,9.862573474602033,0.000332219022103946,-0.0012063476492186764,-0.0009963153706560254,1.31
-0.05978937789220058,0.08087304868291051,9.738800220886377,0.003104934465308607,-0.0026593664277376333,-0.00902019797853364,1.32
0.03144354478426169,-0.052755189653316464,9.656720087460709,-0.021868570495155278,0.015855066914022792,0.009582463775139438,1.33
-0.07838115415977655,0.16659326545446967,9.781202590915044,-0.0013739434392480538,0.007496396665849062,-0.0075712014567425115,1.34
-0.023760816578819257,0.08660240390139791,9.91345806725984,0.010068102267938521,-0.006193767893776479,0.00043708008157810496,1.35
-0.09295280284271057,0.06669938161829518,9.872890613075523,0.017042079794761897,0.0005169256238340244,0.008785215479723083,1.36
-0.07377123605551848,0.06168061959951635,9.854633227683317,-0.0018204519049850757,-0.01434436988581875,0.010158956682533384,1.37
-0.05388595932178208,-0.09643620544154585,9.836337728408122,-0.005376339791245795,-0.006307872654272296,0.004566117035127611,1.3800000000000001
-0.06717933220129296,0.14175397094680675,9.917273003291468,0.0033030972254412755,0.01394646461760668,0.0009032650161956668,1.3900000000000001
0.16081038541030226,0.011910168543534121,9.822930793932763,0.009500495756236703,0.00910013525022526,0.013835261517955078,1.4000000000000001
-0.10941442317346795,-0.07969711803653891,9.85198313070524,0.005365858544761395,0.006010966142767487,0.013234524433591995,1.41
0.03857653303277572,-0.1340503784763851,9.747898153971438,0.001581135912350434,0.0004126321990894989,-0.006434827162379228,1.42
-0.06642156150475802,-0.05224154725253019,9.83278588885469,-0.004381031157217631,0.006357465502286178,-0.0024237131762107943,1.43
0.03837950528151748,0.10362889422155719,9.897768922871009,0.010070835732223457,0.0017121373665252848,0.010581694661437244,1.44
-0.052776513256029216,-0.043499805524373485,9.829929895828505,0.008579081617956627,-0.005448523046911161,-0.019710124878640527,1.45
-0.051970937817230625,-0.027077894962101858,9.983252008668591,-0.0007878054761351911,-0.0061453660968830105,-9.697376834985556e-06,1.46
0.07688207901179422,-0.026423565499509884,9.725253727163082,0.0066075226086898,1.2864200857492684e-05,-0.0030426026000361494,1.47
-0.011257025108865639,0.015168150190064922,9.572200938941135,0.006540632555394836,0.006936630143202596,0.01619883559065719,1.48
-0.01050458666209187,-0.015724409038181866,9.654232879821551,0.003161164135602515,-0.004365397200478205,-0.013213560537891494,1.49
-0.15985858423482613,-0.11306539396780553,9.908832694891275,-0.02676325632932238,-0.0032325767627775586,0.004244882827247562,1.5
0.08942895733850494,0.15508586176735661,9.892721512453324,-0.0023443828728160285,-0.00921156936089468,0.012557685517796553,1.51
-0.04284730138128127,-0.01949463837218582,9.62975394904886,-0.0033412732772214776,0.0037094860890269023,-0.0028168810244735706,1.52
-0.15853243819558124,-0.012591332035259754,10.063820873435823,0.00605391039326193,-0.008306546149414238,-0.007850715047553695,1.53
0.039963691198827624,0.01293322272088044,9.650176225930759,-0.0007683327558838238,0.008304109908483454,0.013479666332341487,1.54
0.04402005717892896,-0.038474870318506486,9.847966187199177,0.007013572781417664,-0.002044830759750929,-0.011755139128378287,1.55
0.060884853075750534,0.13633724954159712,9.783547986861855,-0.0019731634308687886,0.008121346694966955,0.003040106364752381,1.56
-0.0718084215930713,-0.02233536033669778,9.65957086479737,-0.005675599119814859,-0.004732685682321456,0.020890562981472547,1.57
0.12103005259564113,-0.18570229565379504,9.9241838492172,-0.0030800762976924603,0.001744948126888926,0.008932655417104965,1.58
0.04872055162487069,0.15973109187654796,9.893582302374856,-0.00026851120211504375,0.010279521589803203,-0.012856051861888295,1.59
-0.10185800973210535,-0.004990307481334643,9.8813200548417,0.004325121201421273,0.004326930901898143,0.021663927672388273,1.6
0.0860447292560842,0.09506253708234481,9.608971511544805,-0.012556524494362824,-0.015097372004758065,-0.007368369277990189,1.61
0.1543265627369395,-0.06743013042751819,9.563698366239539,-0.0010091951326816101,0.007925495174951546,-0.002166614795631035,1.62
0.08036504298562235,-0.10229898395825276,9.82082613592621,-0.01843816471198232,0.0037184432037547254,-0.007053776145079372,1.6300000000000001
0.033753297377967395,0.014790732428930529,9.763231795056251,0.009272331597714968,0.001238016375904223,-0.0016456357748258028,1.6400000000000001
0.023185678508318795,-0.015293376584511582,9.879490837582047,-0.007588894226634493,0.02400315324773408,-0.010891339990332378,1.6500000000000001
0.0923765169985392,-0.018559542501064178,9.833672550771416,-0.0001486263833699111,0.0021573774330484407,0.01003684990597146,1.6600000000000001
-0.02748726124225542,-0.2910470729677439,9.855143372026522,-0.004890983382891572,0.0013696745536359931,0.0001201165119589405,1.67
-0.10282066719347532,0.0686654988551851,9.743437717557583,0.015988510497828977,-0.0046931174545956356,0.004575069719034927,1.68
-0.06877518751170102,-0.08903596629647181,9.785418833951628,0.013006606909045005,-0.008924096377376406,-0.0069547224767404405,1.69
-0.06760138919607382,0.02709076756119327,9.71513888648467,-0.0035731332907924097,-0.0017378305170024858,-0.0028029476807952835,1.7
-0.05642260508209528,-0.09920299290469096,9.746432959017943,-0.017436441212280565,0.004182150181060544,0.018079876195186154,1.71
-0.024611469556634513,0.13534987429100084,9.798750607462322,0.012557661420301583,0.001897002474239351,-0.0013751363843389588,1.72
0.11800288093449407,0.12338690511138893,9.668947981878388,-0.01536908411759545,-0.003297759903149086,-0.005517121543610243,1.73
0.20432202745329975,-0.0488633741668204,9.576283864907325,-0.0184258635376722,-0.007405291778567611,0.006869846815188705,1.74
0.08249478064492712,-0.07477137769726748,9.778151977866735,0.02418791382789799,0.00017843461320251868,0.005442972911277348,1.75
0.1000178023036012,0.04796536516480924,9.75557189461768,0.0063236778010288056,-0.009842233099835175,-0.007297710784476131,1.76
0.059871022030017124,-0.05483712706903206,9.928655514734626,4.0017510995021545e-05,0.008659602853630707,-0.0072913210139182415,1.77
-0.1627445808731173,0.005438710171269772,9.783276787361102,-0.00137206209942277,0.003734144925767781,0.011106977939229289,1.78
-0.01817286410712003,-0.10358273065733,9.803663943015874,-0.011512723086971688,0.005767343262910716,0.009488924316758707,1.79
0.03157581943102041,-0.1244043522075081,10.027986080757541,-0.0028148042208037158,0.009012223723990388,0.005454261039705227,1.8
0.1633716200961462,0.13782689415981106,9.714803937103687,-0.017291748979058625,0.004947408385382863,0.012095462825013588,1.81
0.10404412579521954,-0.09908923831437656,9.88834173037384,-0.0012894416891137382,0.008639154487639867,0.00449065749508254,1.82
-0.05337112303525968,-0.014152136890682268,9.814112816240383,-0.0001016593445956789,-0.00681217149904765,-0.004119081251306237,1.83
-0.15824439780862903,0.1066528785208923,9.80585919263506,-0.020873745433816048,0.003342649372688881,-0.012091432707864995,1.84
0.054895006744321274,-0.01931508894826953,9.752546023873773,-0.011372215453897832,0.00862017873530442,-0.01753280510247509,1.85
-0.1273638751078535,0.029016487652074652,9.806209408859496,0.004332371423387449,-0.004281762753155717,-0.012545014471146627,1.86
-0.03583657274836404,0.010643690612268514,9.793817806973262,-0.006168159542726273,0.009690958837478975,-0.010892179881801356,1.87
0.03952936740096405,0.07720743135802313,9.867702002219962,0.018577598054957414,0.005404720495855744,0.00534226916751161,1.8800000000000001
0.09066904886610942,-0.11866403470355186,9.75909520841142,0.003333644851639704,-0.01198957498263645,0.0037610236311758053,1.8900000000000001
0.0830052203189669,0.0386116904911578,9.7798924421005,0.006446717599663407,-0.0026930285266834686,-0.007717648724035849,1.9000000000000001
-0.018836714740968527,-0.029363262319795226,9.835607050211292,0.008979356101227827,0.011989947930547189,-0.0016085135890519051,1.9100000000000001
0.2403555118611129,-0.0028409178709516876,9.731550355060048,0.0014720702975555158,-0.01288803089241013,-0.00653418861236398,1.92
-0.004395716544524531,-0.11275856916833392,9.850710245548585,0.006812035007347188,-0.0022654197441704573,-0.0016655831369370281,1.93
-0.15363460984951913,0.10475514821396975,9.826513482567472,-0.03337582462880239,0.002132193344561529,0.0014800003374677115,1.94
-0.016377239783409863,-0.08466232160935984,9.951249515374293,0.002041337823691222,-0.002085724119800502,-0.006396012795164593,1.95
0.09185238848890594,-0.07069888797090251,9.811341495245571,-0.007661919323897097,0.010559424116297051,0.004414711148148589,1.96
0.009729549362708027,0.040118435236188105,9.691124119669546,0.007445000342984282,0.019867061250346044,-0.02377574095001276,1.97
-0.06779781250909926,-0.04419926406322654,9.82082831479484,0.01407459209383138,-0.018354244280934545,0.004135705334736008,1.98
0.1145475448477157,-0.1738589713043992,9.92915102085577,0.005982992961788303,0.007171432917923955,-0.007116983843147994,1.99
0.048273891630585514,-0.1693395466970299,9.954171288197017,-0.003318861080710179,-0.00801772300768502,-0.005432107136561309,2.0
0.13557207470741114,-0.20675446682745813,9.865343168772744,0.0015072203814502604,-0.002740247167704201,-0.011117171859171946,2.0100000000000002
-0.030458585907039062,0.06617942066985942,9.852772514965762,0.010524877405999784,0.01832771240074161,-0.006224672699314696,2.02
-0.03212866603006581,0.06908176235202605,9.883630093764694,-0.00706564664431562,-0.009821645715465462,0.013585957569254754,2.0300000000000002
-0.014593134753436227,-0.007094166285503848,9.73703049012061,0.017894026937013256,-0.007105200035180252,0.004895062796443836,2.04
-0.07647859589861687,0.0702282050187753,9.81835028683117,-0.0004403821682961404,0.009083440397423356,0.006210913660156949,2.05
0.05061258735396153,0.029725163130854104,9.878989621973966,-0.009180902461962733,-0.0071443625366992,0.0032953501603091963,2.06
0.0026112750651334795,0.04566422125224179,9.756082962385046,-0.012910452569961178,-0.010070238790571338,-0.00146860340895504,2.07
0.03723689462706244,0.040362419193566736,9.70452634086171,0.0003949580367821015,-0.0014169975467790627,-0.007063094603729581,2.08
0.06362212732695485,0.08246059977214787,9.87516543776243,-0.023626858712717382,-0.0015877956650553486,0.010747341684485653,2.09
0.05631272675280022,0.07772969391035803,9.836148061813953,0.0029363528390236077,-0.008335490876884883,0.0026183523995231364,2.1
-0.11900210944685122,-0.01541162004883325,9.798993161375838,0.005390007221723205,-0.00458168688691181,-0.010501912807115401,2.11
-0.006118547540060069,-0.03614628790634214,9.841694167936312,0.017594768791493843,-0.0008056978088209786,0.009824055735485053,2.12
0.16104223410289786,-0.07577873536036787,9.702248956044015,-0.010398696043712869,0.005473585135453802,-0.018465863401122,2.13
0.02011940134217913,0.04863993968425037,9.76182697617751,-0.013742472173875997,0.011140151598492153,-0.009039435846675721,2.14
0.010738164419668569,-0.1490081249307783,9.902698215470192,0.014158265908489351,0.012538774446724204,0.0029787521138470003,2.15
0.06983164977254745,0.1622582990345112,9.821080529773791,0.0025480887363783823,-0.006799486686571142,-0.02253227891779638,2.16
-0.10759265196968318,0.055977065400228156,9.723787569906309,0.010009103462726952,0.0016657886393611127,-0.0084433004467551,2.17
-0.24512331924359188,-0.0008655280644486023,9.859783349123697,0.0024298328717361735,0.01555157443382945,0.004947105140218208,2.18
0.11878991573209959,-0.10266684436004557,9.830526387378253,-0.005847475022895403,-0.010399173896722378,0.011730878524480976,2.19
-0.15870185351535757,0.005827039283270448,9.747688585527408,0.0036465538771386294,-0.016913900974962967,-0.009689385166364172,2.2
-0.14669229687583127,0.00080635015346781,9.79923884988437,-0.010478084572329942,0.0027757448062317364,-0.0012945288193161074,2.21
-0.06499608174685159,-0.1296544448081898,9.751701943354522,-0.0006361368507606088,-0.004823461527937341,-0.009848773891092717,2.22
-0.12312930595973043,0.1753971674556639,9.861693996704556,-0.004633439286756806,0.012148315719659283,0.010068438988829668,2.23
0.13021415351256765,-0.1270604700383536,9.609041673084722,-0.004626575561763053,-0.004564317261757925,-0.0003655988649058876,2.24
0.024582002519017328,0.07033560188085773,9.930712798732001,-0.00712213599445517,-0.011933048548079868,0.011390789250104645,2.25
-0.2733602870968946,-0.0784518126693309,9.879720722293635,0.00040573345529133027,-0.007829031364983158,0.008346383438689084,2.2600000000000002
-0.03810970898917315,0.10065993906256193,9.652726182719903,-0.013235509221100578,-0.00015848642992562974,0.006220998335047361,2.27
0.1661660617126226,0.1847546726435236,9.795525951392548,0.014389949733230519,0.007746742223961326,0.001327024144857237,2.2800000000000002
-0.004767518448748356,-0.1710018844240475,9.773488184591265,-0.010184379244086463,0.0040026972150016965,0.002043417035604756,2.29
-0.0007259587805981501,0.0979308337271733,9.70928108945169,-0.015902077640140767,0.008200458401717967,0.0002117317853617401,2.3000000000000003
-0.2575294815904933,0.08883693575098867,9.769121878784427,-0.005503028962805863,-0.003148750068223492,-0.011338410379713212,2.31
-0.0696975138179589,0.06318700360340147,9.83808391085626,0.006894231672882758,0.02087651190366099,0.010802609499963863,2.32
-0.045982681032853696,0.06564615940391888,9.733473469029295,-0.005582084732947751,0.004925516892881279,0.009754372611519851,2.33
0.08785678532824659,-0.013406376213004993,9.866350119243986,0.007654065478160597,0.005131153517281384,-0.001287628017253373,2.34
-0.20660942161023113,-0.04447645426447642,9.666409406818774,0.005257311174695924,-0.004503182419653195,0.0011237520123260603,2.35
-0.08210345599686598,0.045267700228886036,9.747821311489968,-0.0027969336824768686,-0.006766875947003724,0.000893132349172596,2.36
0.10991892968611956,0.07987601309010596,9.838367237780794,0.010029261139853004,-0.008957273797741378,0.004057602180999156,2.37
-0.03991043460096874,-0.018188104057506135,9.84871996892157,-5.1646659224758996e-05,-0.014228074597908076,0.0007583036899827172,2.38
0.02959402455483758,-0.061886231433588706,9.721733880013186,0.003104687671976847,-0.006833576328110214,0.004391114122223987,2.39
-0.12056565917469693,-0.03095689745962306,9.782434026113565,-0.0108341969827143,0.025940004776277874,-0.02064300067469804,2.4
-0.10563003783751027,0.06165917894929798,9.76301401064781,0.003592763526292852,-0.020491393084335167,0.013087087334713544,2.41
-0.02528963765213528,-0.12346492959455978,9.878492004265606,-0.002055282431337995,0.0021174782699057717,0.010928723771456166,2.42
-0.1791730385348833,-0.1954606935724712,9.880007867266732,-0.012027170033880213,-0.003260177538635802,0.00041639569995939715,2.43
-0.00016602854253985994,0.06363144559743733,9.931722416706233,-0.0023893934000472944,-0.008644536421691187,0.00045536983109297906,2.44
-0.00780399538921026,0.0957395902310926,9.846909321632666,-0.022242657366025993,0.012925297333168806,-0.00401856390403413,2.45
-0.12017554280266779,-0.029962075102444436,9.798681777667726,-0.0004534562336345339,0.019223628647342977,-0.02252713011586515,2.46
-0.17810344600884387,-0.15159263523658295,9.661041779090237,0.021621306286356393,-0.0005919452307483378,0.018412520169042938,2.47
0.013838953408814612,0.10596702739612503,9.756770299343128,0.01584949565707985,-0.0009816779508350832,0.016959562151586872,2.48
0.15310214208701206,-0.009679493182108307,9.768115374426426,0.00814744510134043,-0.011501176684860373,0.013231309797230846,2.49
0.018839463470670597,0.06363048565597221,9.834115533060785,0.0035407600308526516,0.019180763886041462,0.008265745042272846,2.5
0.0057705494119969485,-0.046827647207187004,9.717602993863053,0.014646670292453055,-0.002502369934429673,0.012247028785270422,2.5100000000000002
-0.13026131536405458,0.10514651001404152,9.75280202972082,0.009684307289331397,0.0011705424799884289,0.007466798974684136,2.52
0.08508818983201326,0.10840196071867565,9.74783250522254,0.001396822559970086,0.000509523921060232,-0.0003331271736363116,2.5300000000000002
-0.0150902096307845,0.09715581396426409,9.946008423711799,-0.00986984635333496,-0.0009889828066858698,-0.00017992138091480668,2.54
0.004057277921383958,0.004631939795693968,10.029269395140034,-0.00874071605930672,-0.02976692089640844,0.020313090464131,2.5500000000000003
-0.02885951119255377,0.04080398679757361,9.836379312998574,0.00886260210407295,0.006589592617330873,-0.0052020955896785286,2.56
0.06483365864719619,0.0784001930798538,9.662378181465076,0.009351426747412685,0.00011551966040978287,-0.008829824633973388,2.57
0.14046973432365886,-0.020439797344889776,9.799397289196575,-0.017719380185958686,0.006173882164638754,0.0160325697540113,2.58
0.146156917524783,0.18153688929143874,9.87041970147457,-0.00105085236948371,0.017557983496084013,-0.0029661551285955724,2.59
0.07417858607536584,-0.09233551330523926,9.664299212027771,-0.0057605620394322035,-0.005131141514751062,0.0016067156601439348,2.6
0.1396674804370612,0.005145736538187982,9.731856541252348,0.012743878423309022,-0.01885960601848333,-0.004246053294162015,2.61
-0.03261075002147105,0.05322260685112924,9.700377156167454,0.012061859415951151,0.0010339558163667787,-0.01257811603748436,2.62
0.13941271624908,-0.06440405143078712,9.890151656921248,-0.011085497647374843,-0.01551852731191756,0.006060642923611171,2.63
0.0680468401870748,0.03359020662308908,9.65643188086188,0.001544325899275228,-0.0010153054128154764,-0.00855052752815678,2.64
0.003010231608747404,-0.17487267540005513,9.763650880999409,0.01576832045111472,0.0018333605401928024,0.0049278781510912716,2.65
0.07300514468286128,0.12329433849357585,9.882654115171453,0.00787176244485466,-0.0033414525032866653,-0.018036176192284085,2.66
-0.014388562253982388,0.08880944535215612,9.812919760898733,-0.025446354127156328,-0.01604150093105693,0.005926941130629755,2.67
0.049304442902169274,0.16069091861888318,9.815642637203265,-0.004164708471506442,0.005092939546050086,-0.012679366217047426,2.68
-0.043368183527659955,0.0469534597801258,9.771714540355916,0.010342954106720424,0.009791595218220794,-0.0018473803489759634,2.69
0.06969096918424288,-0.10422056667382479,9.775664497611064,0.015577145141368218,0.0017935408603040922,-0.012120556974966992,2.7
0.05130859620039782,-0.005270618518206726,9.715293855843811,-0.005709004155340338,0.003894817054292686,0.007951460996712904,2.71
0.0020839895444946647,0.059875814278175746,9.71755705886834,0.009511766855283701,-0.0027455344822306734,-0.004982317494559456,2.72
0.07370494028854935,-0.01731703129347232,9.651421053687782,0.005816824167843403,0.004491114647642343,-0.013191723880110197,2.73
-0.05293557651644146,-0.016640245111722792,9.754031459236488,0.013560343359591751,0.01790316390919348,-0.007539359178027432,2.74
-0.08856552157449152,-0.13156475454568758,9.91968680242094,0.0027544937758496027,0.0022069378760075603,-0.005160025684818959,2.75
0.03878709120889862,-0.05669682510790489,9.743704661389101,-0.007529894761186753,0.01398338571031896,0.0068604494033615475,2.7600000000000002
0.1262461318302241,-0.0670025039505229,9.733922994331285,-0.004736444712611838,-0.00271204251973628,-0.005753808287031493,2.77
-0.035351531848589746,0.12056615322522522,9.806358578944115,0.003255197170491089,-0.009786965739574863,-0.01362438734673085,2.7800000000000002
-0.051436272047006674,0.09362141256570268,9.761676867368834,-0.0016549287847715908,0.0020182175188813638,0.009420645091417988,2.79
0.042743336969066174,0.056220531340934146,9.783327627567461,0.008594487885133154,-0.00045795655097945377,0.0036342983957118814,2.8000000000000003
0.18077250915859294,0.047786010960177296,9.793231699065224,-0.00041480613583350236,-0.008000417450654385,0.007968281330324362,2.81
-0.00780600161417552,-0.05901407593880518,9.720694258185372,-0.0008302542220581258,0.016661486124756767,0.0074026573179045855,2.82
-0.07907234287558718,-0.0386959200005095,9.80351395834267,0.001469873056170408,-0.003927192681729482,-0.0013152362415799737,2.83
-0.018645726930230495,0.016048228470206462,10.008444625173299,-0.0030623359266236812,0.011596835705233411,-0.01153138528591014,2.84
0.02775702655414007,-0.26875306100856977,9.930470704008872,-0.00210551781415346,-0.02066464961411661,0.0013605472970148857,2.85
0.08467513050882762,-0.023467962687493113,9.923002151342176,0.0024758878535931757,0.00033547600037646695,-0.006081887661934401,2.86
-0.25928339395593186,-0.05864615569130948,9.69296991572449,0.005683779763841577,0.005255964769644684,0.0016443986280383737,2.87
-0.0870351392765815,-0.03642230624871621,9.855676363200306,-0.004279412753894111,0.018409522044838193,-0.02063651675111228,2.88
0.05426673211139506,0.012210911279982467,9.92660882311514,0.0037304280696941446,-0.01363835874343269,0.004548461432159278,2.89
0.02338457939991284,0.17027971873008874,9.800667479869603,-0.01448700502626704,-0.0007856449277162832,-0.0060685140015846566,2.9
-0.13242203900857663,-0.01193522311217574,9.740017567852574,0.0015745285754806796,-0.0011593963509212418,0.003484683217798381,2.91
-0.05000702565694986,-0.05873061426389525,9.71822299603705,-0.012629839496283594,0.002317765306893219,-0.007505945695668857,2.92
-0.004399489383368297,-0.021073018235309406,9.942795352224907,-0.013726862013649886,0.010491448841975533,0.0030185937688776915,2.93
0.10919595567358709,0.0007035818877672447,9.718226096757553,-0.0012375019687148926,0.007425908686066269,-0.007609070353789966,2.94
0.06756902061076529,0.12308886669955697,9.848274988903047,0.0033709273675500313,0.0009329822883367256,0.0016507093877545821,2.95
-0.04053788870404073,-0.01703995749060526,9.639028407210091,0.017046093123291008,0.012324675375035678,0.008829091031734331,2.96
0.05705046213899493,0.035117630574411716,9.714299245314958,-0.01853099264814239,-0.0017507957324470822,0.009723447283760797,2.97
0.03783270896865251,-0.06219706232683532,9.781216259859164,-0.000816972791435782,0.007889091638108582,-0.010951520007777923,2.98
-0.08033819663079728,-0.17192344232721415,9.823671110066861,0.00014404389720303526,-0.02088342622254719,-0.0063871709186303,2.99
0.11376687324099971,0.02429655518449823,9.961641883099313,0.012938770386134125,-0.00395596299297814,0.005267421761735133,3.0
-0.09872267255884673,0.03878644613291007,9.780247965002774,-0.007851487149634436,0.0010591363225030234,0.016420776121298077,3.0100000000000002
0.05644106138356573,-0.17245726137195933,9.710515911624915,-0.0012188478195243931,0.004036447196999572,0.002413102885774556,3.02
0.08284164504860304,0.08956420963786926,9.71682244264081,0.0026050620875324704,0.0020222952027379366,-0.000805939097395796,3.0300000000000002
0.029005372799925967,-0.02006784652227289,9.862557458818594,0.010624063037117716,-0.011988353501309279,-0.008421917283754046,3.04
0.08685951933350752,0.012737419595468286,9.714013189531665,0.003409899616711587,0.016448154377538996,0.011762589600541487,3.0500000000000003
-0.13355815127325196,0.0636493728042151,9.72179846670281,-0.007910664490912472,-0.0009199643371937829,-0.017006219416594588,3.06
0.027279152071669373,-0.06467891110639382,9.746090882611899,0.00890771944272809,-0.00738694864507757,-0.008815601499869728,3.0700000000000003
0.033434464908773366,0.032860347447058715,9.761213247490703,0.008693382796373137,-0.008544993736809154,0.004233748807784031,3.08
-0.10372471105311068,0.029253013743736747,9.690976013374206,-0.0005998184418497842,0.012249789323201081,0.017574465314370347,3.09
0.05028119700436352,-0.19129249113565186,9.796350115837381,-0.014501083568187528,-0.0069689473740118715,0.0013587223883170824,3.1
-0.028178265317101676,-0.008667994745277685,9.680250434350606,-0.00016806605490265588,-0.010511104410260477,-0.01802007549413385,3.11
0.03025235878249178,0.01129088643983489,9.875163091431354,0.006084382211441487,-0.0035486819000436565,-0.00042345476320752753,3.12
-0.062375903957858296,0.18219991618525333,9.702386835262269,-0.02098138438728363,-0.004440967648119994,0.00241490007405846,3.13
-0.17444256577330428,0.02589233954783698,9.963620904639884,0.00962523745011998,0.005413034617717999,0.0023281499865341966,3.14
-0.1304767817706309,-0.08442722304817872,9.851671321283195,0.0042899066136182565,-0.0067948272695619325,-0.0020162314719476154,3.15
-0.16839952280842257,0.12977438423230545,9.641121495693483,-0.000574020926515772,0.011227350583474372,-0.0012653544304862042,3.16
-0.026976257344318095,0.16937803356333983,9.82878132794107,-0.000968922429251111,0.0005540115919241831,0.0041866855348362325,3.17
0.17145974924321375,0.01468452364053822,9.765699457352335,-0.008619926729097649,0.019825525654647732,-0.0006477541775383136,3.18
-0.08902353456896413,0.12923039572250086,9.631111932645283,0.005729132925397273,-0.01133985442204526,-0.0014622133985673902,3.19
-0.01951786145924353,0.16330341247758673,9.792616090983854,-0.014191013818813308,0.008844390479316457,-0.009460621303407973,3.2
-0.013999081231029204,-0.017884257186183493,9.704139443471787,0.007227089416022199,0.005970034440729731,-0.005112572961681248,3.21
-0.07263815911411924,-0.003265641727178302,9.801238961113572,0.004542695819919136,-0.0011138344255458043,0.00577375448148488,3.22
-0.11845143247669215,0.04190321752400736,9.697701729776314,-0.0004908536584196044,-0.004913058398904984,-0.017726250185595867,3.23
0.015335963649675335,0.020457673904130603,9.84209314974841,-0.022076865936321424,-0.01151328588001329,-0.005799476949707112,3.24
-0.10588030232534047,0.04573499590430112,9.756149255896501,0.009637474857726945,-0.007306686554242725,0.011992225081153513,3.25
0.12418729322190816,-0.007773863997396231,9.832618537633918,0.01363640808368147,0.005318934687298988,-0.013582549318771802,3.2600000000000002
0.05289539506827844,-0.00875077067981674,9.74965483461988,6.264738873992329e-05,-0.000828670964732439,0.012805878002702213,3.27
0.019383249473571673,0.29719806210978594,9.810578331899146,0.0021458049672541143,-0.009565670081126815,-0.011750965393648434,3.2800000000000002
0.15397563627266503,-0.19953176544293194,9.730859845312976,0.006256679396519768,0.0006506190047903369,0.006747473000227992,3.29
-0.07969115947298464,0.07760601991346384,9.8750769730594,-0.012518895390336801,-0.012785330007298468,0.003421927505703022,3.3000000000000003
-0.034801659004988536,0.01965460422605938,9.795157972781572,-0.005524958663969416,-0.004950405024547819,-0.00023970646976039325,3.31
-0.031166150723699285,0.09874244056408923,9.674774215773953,0.0025948904438358655,-0.007743612201580642,-0.014249670574007918,3.3200000000000003
0.11295757947278978,0.09411368291551404,9.713584025160353,-0.00447376933643159,0.0027635008424979172,-0.013045101555699296,3.33
-0.16459281714517476,-0.1807140346641896,9.876194910903621,-0.00023572959438809826,0.006545942669143853,-0.017663695993937276,3.34
0.1093196246145314,-0.011891781000891654,9.744425537123899,0.002696776382997104,-0.0034056835099247995,-0.011641859742644837,3.35
0.014695864875860765,0.036327444365611965,9.802356244649621,0.014725568164298966,-0.004238779559520944,-0.007713995557757354,3.36
0.09184431431470537,0.05584681551718551,9.894863567510448,-0.014834767840692724,-0.00718983037613488,-0.019786068331979014,3.37
-0.16625142554147998,-0.11045386669366467,9.790496009465878,-0.00675046612074679,0.0018177759460344515,-0.001053996769628829,3.38
-0.08519881919166056,-0.046120376772116826,9.802271290090856,0.013993840893628722,-0.0024095965331149393,0.011132975611972492,3.39
-0.1480021018552613,0.042975599513222745,9.662866620970028,-0.00257091719662708,0.00800908784857234,0.0049203982182459026,3.4
0.0911616211211619,0.10244148753342551,9.798961427357899,-0.02339074172469316,0.0005735730140963714,0.010078130780741875,3.41
-0.10120429560191146,-0.16181012083692306,9.664234242050037,0.02068370505951612,-0.002047509343971752,0.009792058552222435,3.42
0.10126980992886728,-0.017235415296157918,9.797586362596808,-0.008568489650730052,-0.002904508885158903,-0.02668694118911296,3.43
-0.12305269848578813,-0.13310891963697402,10.007701799070345,-0.0034785482097944844,0.006138664243693902,0.006556534583773837,3.44
0.04480080364517257,0.07901119172558829,9.78961076785993,0.002953228587486244,0.009552088218659341,0.0040841912309503205,3.45
-0.05662143602186725,-0.14356017435771581,9.784457067665382,0.005302687527492226,-0.013025051122578084,-0.0011585208126975806,3.46
-0.011668050628840888,0.08299839915134044,9.75998205198374,0.00455554780641998,0.0062704473986474035,-0.0035596985791070297,3.47
-0.1655089907206875,0.005651187342602371,9.733407438596801,0.0041073633061361895,-0.014953935876950784,-0.010817380151511105,3.48
0.05082620667278617,0.17255364743528612,9.685711051486642,-0.008229048216812956,-0.0023393500721345197,0.00016300741066068155,3.49
-0.01937541532914521,-0.1091378285116653,9.915722027637903,-0.010355684017030924,0.0014069773665121904,0.009578905050656924,3.5
-0.045306615407044656,0.12029810685251958,9.963813873642266,0.0010481903061531732,-0.005398074790151847,-0.0045530541706723885,3.5100000000000002
0.14833189220148776,-0.19427230147101232,9.98631203078988,-0.016109679619889093,-0.018817057455268987,-0.015812052777969918,3.52
0.038306172675928674,-0.08028029859272057,9.897582062169235,-0.02300629768875922,-0.012413675264386272,0.012706705085187403,3.5300000000000002
0.07785689152641724,0.007899664790861387,9.803571109845747,-0.006360116013695293,-0.016558242068156887,0.018235522272973294,3.54
0.038398622254303426,-0.21385309286920645,9.797751381854496,0.022055915025060612,-0.008251436404367438,-0.00444079032601589,3.5500000000000003
0.21057769444418595,0.15097011837783042,10.061253323760926,0.008403790376872175,-0.030248826521755205,0.024144209053203417,3.56
-0.26436703249808474,-0.04383707693482868,9.86131062128074,-0.007383590515029161,0.011564251499182063,-0.005378908540723224,3.5700000000000003
0.133814510575654,0.014534943409626617,9.746606705216127,-0.0038635981688935517,0.013618755954638871,0.011730397109527922,3.58
0.017322094262392264,-0.0821631418983237,9.814983156434012,0.006475851916245786,0.00022748381131689995,-0.007340207717125028,3.59
-0.06265802454741917,0.02890047605701956,9.86661193235548,0.005638960394852724,-0.0025564030554928565,0.0028670151070620455,3.6
-0.05970066212201756,0.18006861284062564,9.762264493216945,-0.012174908383184808,0.013194584361419733,0.014027352320879238,3.61
0.04968270430012406,-0.024331847483597967,9.954082017819504,0.013805768975528567,-0.005250944086322885,-0.009720447821270288,3.62
0.06762675454053028,-0.16111714972534996,9.822077226985265,-0.012360687758154717,0.008279622985384068,0.016843273355929205,3.63
0.12184878486174405,0.0021172221316865503,9.884434656859101,0.011290644151014424,0.0014992279115880684,0.009083414396546969,3.64
-0.15524144338774998,-0.012065462072556257,9.871099331606326,-0.008785188921173942,0.007277866459761279,0.005139321954979474,3.65
0.17121789409031013,0.18393194034821092,9.688411516908099,0.0033307791527547666,-0.018750491438381093,-0.004326048862700964,3.66
-0.031638959672031695,-0.14251356243884036,10.01070671535243,-0.02010300071087518,-0.0059833050615056595,0.010871852851275253,3.67
0.0723116215350869,-0.025642848227741794,9.706941519436372,-0.000881628151903913,-0.007126978051012381,-0.006515523513379842,3.68
-0.21348204778469237,-0.09454055918509091,9.839990562461386,-0.0034231457001951088,0.016065871398578277,0.003169221800011874,3.69
-0.2300043617203457,0.08777052281372326,10.026275656531347,-0.0005922916417156069,0.0015872680078773585,-0.00042152722515810195,3.7
0.26954156445525534,-0.11580799707608602,9.748309798442932,-0.003503298053406559,-0.011791540449766316,-0.006106795952350973,3.71
-0.023139984858628098,-0.10139086163147258,9.768766555702147,-0.0010534959277445828,0.013132309779623328,0.011341829862296069,3.72
0.10558574689849352,-0.08469067742845762,9.704518079381645,0.0044806671630024985,0.007430133955604755,0.009221843513897226,3.73
0.11752972380595557,-0.07433023470895375,9.856159625251083,0.006993025595740795,-0.015360956232172316,0.009789022947863083,3.74
-0.05461354874135615,-0.10803991509912077,9.987234336337185,-0.00268947572607724,0.006071556179484235,0.004506730587454419,3.75
0.026219733184568796,-0.08796772274826412,9.74503464037459,-0.005854140184347597,-0.004634342358719532,0.008979168064758411,3.7600000000000002
0.002018017098938879,-0.20340777840083848,9.7307916309104,0.0021935939718477153,0.007938408140417146,0.002735706251819543,3.77
-0.13507103554136493,0.17359561298767437,9.815519221303008,0.006225190848031821,0.021302154481153978,0.011776057438685601,3.7800000000000002
-0.07866776178315864,0.013168376030394644,9.70694999906717,-0.007402098091689803,0.015287746131329738,-0.013297810777901193,3.79
-0.19621941902405432,-0.07527455960826594,9.705937331964067,0.011075071962817267,-0.003596615259547153,-0.008857074012713326,3.8000000000000003
0.19312345933489417,0.005057632088716943,9.75830589853099,-0.0027381817144183796,-0.006515854759084163,-0.009096356602171242,3.81
-0.11968433045377186,0.014019665317414304,9.830495570182299,-0.009334307641714447,-0.0018557099617400935,-0.004548288684800266,3.8200000000000003
0.08654481597495492,-0.03849869278389616,9.956212388112563,-0.013728296928308289,0.006797498083085565,0.0027704463677645746,3.83
0.06820544176006087,-0.07012367291788683,9.895606865158571,0.0012646974826217411,-0.005964968278878388,0.00030825001509230776,3.84
0.15395736250997274,-0.016283839687917936,9.943126755965423,-0.006683406481153155,0.00930281218927751,0.0005866418392155381,3.85
0.05601887826521056,-0.03896547287716366,9.734584203505275,0.008114607196604515,-0.01105196293037097,0.007200098961754969,3.86
0.014413892723730613,0.07552190086186635,9.923284194501264,-0.0015927379728903858,0.006132007413218274,0.0034663828409514674,3.87
-0.051785575274797935,0.12282096783012345,9.844112794625017,0.0010719035786861536,0.004117489088283476,0.006294349485818398,3.88
-0.0552027302235135,-0.019389759076439982,9.831628469402814,-0.008502989594672623,-0.0038604567205995197,-0.014420230728668913,3.89
0.2173572041029969,0.0038504785357310676,9.746614319475473,0.010739879529185837,-0.0006973230002697248,0.009651799312519058,3.9
-0.14472168864345497,-0.06513706777018194,9.894469877068943,0.01500866259006927,0.004030058783881343,-0.012727222379241858,3.91
0.05604481507637304,-0.019952188188044895,9.901082230552703,-0.0014564379933140292,-0.0008842756779032448,0.003642047109159623,3.92
-0.02253088151709657,0.06173359628837092,9.767233708150348,-0.014612437667823814,0.0159157921761608,-0.006636517795637934,3.93
0.1183112559856605,0.0018491168972381532,9.848206838052201,-0.011269207309129796,-0.01139608082547517,-0.00753072845560544,3.94
0.10817347252996648,0.011025396146425455,9.882157807068742,0.016714711804260176,0.013664060908974181,0.00904992126610457,3.95
0.18152179979911418,-0.07023996851215986,9.711161733402136,-0.006952817890705351,-0.0044723463853889285,0.00945065310807053,3.96
0.041991486367725664,0.20041204717020575,9.838198677208814,-0.00048127130053847764,0.008720540028789884,-0.012666777634357819,3.97
-0.0031683569834520774,-0.045722440792133154,9.830330843210579,-0.00047241435208212414,-0.0013717518147619851,0.002413049041542069,3.98
0.10340331180396278,0.20128553941373775,9.82707580738473,0.0016345512127363155,0.0005214530562796698,0.001552558592974102,3.99
0.0029399986263531717,-0.1218436866357705,9.69853011526101,-0.005468752684487568,-0.020467855871801194,0.006057841842355014,4.0
0.018192187625808914,-0.10432889898317205,9.78162676439789,0.013800546792528732,0.018732258838471915,-0.004603200064558949,4.01
0.006699544613675371,0.09260397556736435,9.937416723600133,-0.007124800933394074,-0.001412054241301689,0.001030197070434552,4.0200000000000005
0.14571809176087483,-0.07496799840514223,9.785670857824607,-0.011238136316671244,-9.609350544124448e-05,0.022075862921714418,4.03
0.12621474944767508,0.1978149907030563,9.799223627985898,-0.008071500970884231,-0.014771831917544269,0.003109848452803061,4.04
0.00732610342521651,-0.0485983220561136,9.83307146204297,-0.0005625948990819534,0.0030342136463148172,-0.0008552806097416889,4.05
-0.03915506328632385,0.005497383389759533,9.840675499653527,-0.004383311489230665,0.006932021693182883,-0.002396338873343478,4.0600000000000005
0.05017844744879568,0.1648473375750915,9.794051417943354,0.011183303616533545,-0.009136212486434156,0.019611464523124695,4.07
0.14817719821673334,-0.005044338591913056,9.738390092726089,-0.0013984116587841431,0.009509218353145919,-0.005081041483022765,4.08
-0.2510119275040385,0.035313617438704877,9.837111440408831,-0.004470294599219417,-0.022145747773251068,0.026656851317406655,4.09
-0.12165947297156221,-0.023257829098653985,9.804457083311034,-0.001695078670742936,-0.0032241035381682564,-0.0019483253250341163,4.1
-0.0014769195200727992,0.1189990456497425,9.821374193395574,-0.009793876493723694,0.02571577315521838,0.011534422029528342,4.11
-0.07770126603771493,-0.041423399765996405,9.865633034665215,0.0015064423453827974,-0.014068967983668483,0.01715761488543201,4.12
0.05234200813370837,-0.07749400886242391,9.7815242819762,0.0030407471835079275,-0.00026521492633470946,0.002021239447929458,4.13
0.13743026782550005,-0.024107357325945034,10.01644869046678,-0.005698378649412047,-0.011691239966045128,-0.0003247052434506612,4.14
0.04631272856520888,0.09211933070502544,9.839707707094776,0.004920150400986615,-0.0008789707487784382,0.012812791009415092,4.15
0.0106628551040293,-0.019782760064026524,9.904766805564552,0.01360989405704274,-0.003988038477010154,-0.005357163198607886,4.16
0.055883977984841474,0.09703740166158598,9.881606923807308,-0.006318305515006458,-0.011123749502645882,0.00030834855132591294,4.17
0.10108687642912893,-0.04475362234994213,9.739447025718372,0.0075377756879603805,0.007446958958162319,0.0022822200779913358,4.18
-0.0695443457711295,0.025689283739638216,9.879024782089123,0.013074552417275145,0.002540625532048515,0.002237894018630336,4.19
-0.1112147124172481,0.08300600582695994,9.749274788577841,-0.00919725874251852,0.0004528771622592331,0.00276848147141525,4.2
-0.010409152603987093,0.2362881831162842,9.704334131284522,0.004723197579529254,-0.008527998222142492,0.0023116745317519273,4.21
0.04014597891203576,-0.20327411469390091,9.877434546868729,0.005191428217406576,-0.005655539317788428,0.010961052448814368,4.22
-0.06523103362997307,-0.2010492087629929,9.700384748760042,0.005271361288515483,-0.0143353655498692,-0.027500210516253988,4.23
-0.0686027168403726,0.15988271398874287,9.79944978555677,-0.011976624503598692,0.0016232719057865015,0.001698999263867927,4.24
0.09389178535764782,0.03440503208554948,9.97442917705226,0.007914444302204325,-0.013596487881832207,0.000892108673889877,4.25
0.10813798902175323,0.20121029518639333,9.766273837725816,0.014527880212171662,-0.013265605612015383,-0.0002639962468532927,4.26
0.100353057751281,-0.06966742807371794,9.83031036496081,-0.010843531922807095,0.005449639175156764,-0.0011361860505941653,4.2700000000000005
0.041578844654985236,-0.0323929377797301,9.814777569126921,0.004278897674439646,0.008532883458442069,0.01433385893603666,4.28
-0.021585718231670006,-0.09362713382870086,9.891219060915994,0.009421752414647377,-0.00041389439736409664,-0.014011655993708443,4.29
0.09237103525211321,0.0359397044299723,9.93047741560769,0.008004027048469902,0.014366233914608352,-0.019951587819366,4.3
-0.007989880964280943,0.05270979928308159,9.92409437772873,-0.002246734468853992,0.00432075978015815,-0.0031094681701983496,4.3100000000000005
-0.048901866778149186,0.15795570058718356,9.80532995267964,0.019005280485617847,0.008164612713784918,-0.004470013650600195,4.32
0.020298073855336465,0.14396187651640543,9.884905438052012,-0.013339479874216496,-0.011969508828643045,0.005764146133897145,4.33
0.04976767441031463,0.22129285165892423,9.997965682804827,0.002366763861829681,0.013702431431699236,0.0008642374952050271,4.34
-0.05517750543535063,-0.20436799725573165,9.91497614820686,0.0040998107112798984,0.016610180288355158,0.010104042250111132,4.3500000000000005
-0.030138628967769962,0.02589200168727437,9.75812047295363,-0.009495644630450578,-0.0063014506570044015,-0.0038145095937380377,4.36
-0.006992967765603324,-0.05403824137495267,9.826322651836266,0.019152873090034602,-0.005197443651189248,0.004048400939827531,4.37
0.10532711570992395,-0.024882337683035258,9.822208838349335,0.005521642149212545,0.017831884811869966,0.0009141162135736374,4.38
-0.047043264459462296,0.0013267430193534826,9.705929939283596,0.004402932142077692,0.004665148533781104,0.008312163559797662,4.39
0.08554750446338913,0.10398574211794859,9.79915897103078,0.022212778109424517,-0.02157884255983382,-0.004246677882227469,4.4
-0.1800363055358305,0.024892446958323076,9.716210139544073,0.004971696524245109,0.009010491673700388,0.0003252388765597664,4.41
-0.0260778537139682,-0.04104171463366813,9.816249672808095,0.003311024300637667,-0.006033181424407472,0.01168901654316476,4.42
0.21145431209759302,-0.14981043532561733,9.6728698951977,0.005237056548492699,-0.02049479049786561,0.005626154442623738,4.43
-0.006722347096740142,-0.05000638806212964,9.794369816717925,-0.004555567901492178,0.01958016808969266,-0.0012940469180255873,4.44
0.0039208101151847205,-0.011529489898666794,9.97314330652226,0.007149526954629949,0.0064499437865050595,-8.75909390598735e-05,4.45
0.11289336336482839,0.09386372742916912,9.829983876805919,-0.002462317904419725,0.011247790900231125,0.009683014948437296,4.46
0.09190666850537196,-0.07159117106034446,9.809231710127223,0.005992999122515969,0.0018128888508517741,-0.008264181796419762,4.47
0.06255213316627449,0.01907314043694684,9.813707884133082,0.005605802850421312,0.005603230520917427,0.00662563440814231,4.48
0.08606371402120283,-0.2093847341134313,9.853925363737916,-0.009889112749993293,0.02624662922881535,-0.026666375462459063,4.49
0.011594532887886852,-0.07619327155197203,9.661087338433392,0.004458748306619085,-0.0044456556170279675,0.005058334567819819,4.5
-0.11286954781593946,0.0014357408626784602,9.683994414258574,-0.010776322532263675,-0.015217123698868249,-0.004466883468947493,4.51
-0.3425193189312171,-0.01476456677583643,9.773562796930005,0.0004551681469333198,0.009126081851446826,-0.01908980691774728,4.5200000000000005
0.12010764165345254,0.17926520672808238,9.74773592661646,-0.0031998329492297067,0.003772836492745848,0.010543083157886837,4.53
0.2428438793259666,-0.12557337798672127,9.801363423149105,0.013207204380362316,-0.008326376889835204,0.0015265525875199023,4.54
0.13338477036184004,-0.11678901571628518,9.701022900243743,-0.0021458117155247337,0.002646625136396976,0.0009707152113225696,4.55
-0.0707165023881534,0.011798920179213314,9.898449137847525,0.0023924512808163228,0.0007461495008521196,0.0026998037928625744,4.5600000000000005
-0.024693521046930178,-0.13710486760047244,9.606407170455606,0.011186995349881336,0.01027109009726034,-0.011005785106236135,4.57
-0.0589231783672072,0.006572983505167548,9.915364115151315,0.019653113347477866,0.005460345276273367,-0.00815697979422036,4.58
0.09977638957190087,0.01655742814925243,9.840589630752817,0.0015800724176211775,-0.012509233209582702,-0.013471306186254323,4.59
0.12391958167823613,0.059553703744388266,9.813690699920496,-0.0034769559308805236,0.009989462702090394,0.006804908042012995,4.6000000000000005
-0.015481735887500115,-0.004665107436714725,9.734040983277955,0.004819644384467674,-0.002648565668409764,-0.01592784498086368,4.61
0.17537265091918133,0.04106123887169473,10.005063525642807,0.0021296036646109785,-0.014589334219071465,0.018100892856877104,4.62
-0.0329250235112776,0.003308002180771995,9.681974846604344,-0.005949547855774672,0.004988080941089328,-0.015969327638949225,4.63
0.03173222078271503,0.008492730796128235,9.87636281720657,-0.013230865621208145,-0.006939198243651706,-0.014995384787201332,4.64
-0.08333527693286653,0.016276898423663807,9.820207074749094,0.004503548956957728,0.01648767193839798,-0.005538261716022308,4.65
0.06223096444639288,-0.04667548438803346,9.762678490670712,-0.004177738982065393,-0.006855475781599389,-0.01279142247854118,4.66
0.24264727133007757,0.03196459998575176,9.826450709413766,-0.0132208231757223,-0.012231680637005242,0.006161374178338582,4.67
0.25123993481475393,0.02128938056933256,9.818480915958729,-0.0027898853031702586,-0.008208994333342677,0.008652219673261524,4.68
0.057527644338001116,0.005225041773046855,9.879623824190572,0.005962448889508597,-0.010649698944856453,-0.020562977949434597,4.69
0.14599962585544402,-0.09494739629911575,9.781790295491929,0.003992125855232331,0.018496236375328087,0.004143869098607749,4.7
0.014888063372034918,-0.22580606220078586,9.69898467110845,-0.003939446839757975,-0.003623779828680049,0.014245267352880703,4.71
-0.01601576873918728,-0.12899121833584345,9.830192267040688,-0.016162646201669892,0.004207948470376955,0.007502258726232144,4.72
-0.01850197567265642,0.10018506293658094,9.975039550666635,0.0011645337979439925,0.008048820066430273,0.005282148305542084,4.73
0.016034494014263028,0.041259867356304825,9.77160357620526,0.006693141589420652,0.0003731194156300003,0.010780646376472913,4.74
0.06539353506830285,-0.009909923325261583,9.707243407381597,-0.014633059126184518,-0.010711616750426171,0.01978520024520291,4.75
-0.03556169451922503,0.3522175118383034,9.87851850635718,0.0004892754509647263,0.011381333362636753,0.007204008025194503,4.76
0.08221374164634407,0.05406101956265267,9.689525777659593,-0.01684031193664173,-0.010220128966808491,0.007723118899924781,4.7700000000000005
0.0267335929365519,-0.002730373117461535,9.81825675509102,0.0011979528127710377,0.0060957664781189835,-0.01158026969463922,4.78
-0.01764925886501597,-0.16718145136219228,9.983256757558753,0.0037949541436956115,-0.0010225392392317174,-0.005124805078457858,4.79
-0.06683091070195252,-0.20768652467859014,9.758701785053871,-0.013583279004142702,0.014084719243761314,0.007476779090169347,4.8
0.08227778278995722,-0.09288688761085973,9.84014857632599,-0.0028174595981287982,-0.011004896739997494,0.009167433746086485,4.8100000000000005
0.029797699789297458,-0.006934226071759491,9.817606043721783,0.013411460569373595,-0.020551829444261795,0.00631134324197002,4.82
-0.3177241561072295,0.03151597094620731,9.632171709751317,0.01813808585311759,-0.006794429335543867,0.0031205682405547144,4.83
0.0575995216252851,0.019340256690240948,9.828411886058703,-0.013600758382093011,-0.004206941324348336,-0.005517266841553844,4.84
0.01957458308285393,-0.12174391445674088,9.934065658947397,-0.012323032723950654,-0.025397689040083625,-0.016124852852187847,4.8500000000000005
0.033163542797060096,-0.08307255254217928,9.602775770895938,0.0029058483768273943,0.004558189040872966,0.007184746608529112,4.86
-0.00011779832942402102,-0.16703793153123,9.746501032581,-0.002228411285793957,-0.008989919714152392,-0.0011597980131642911,4.87
-0.12057390664976747,-0.026270134838156486,9.85367381260881,-0.015075273652761418,0.005728429415598721,-0.006832486159169549,4.88
0.03479129551243667,0.03583915941458913,9.763374011646947,-0.007583362986437734,-0.007055525262064717,0.00024511765456860694,4.89
-0.01338049992587851,-0.038820140296990165,9.725640890696054,0.0001828220574140718,-0.011597219197047133,0.014705082088140498,4.9
-0.02333037876030866,0.01757735712014857,9.875461968867782,-0.019621066482726664,0.00418608323694534,0.013017469649536104,4.91
0.12248905372536711,0.09451259823290847,9.946428002813994,-0.019255803587088366,0.018696288611850048,0.015933844539071176,4.92
-0.013935172123045134,0.06796184117967323,9.740939266928281,-0.01112901579700748,0.0021374355018268505,-0.003974995128412609,4.93
-0.06001780196607688,-0.05868166697405443,9.815427089797065,-0.001584916611831465,0.009367536563355301,0.0034008163365988066,4.94
0.14413955321329974,0.040681117323949134,9.890911302000962,0.004460813960475501,0.007921217569525919,-0.0063348819348624935,4.95
-0.1612071801118452,-0.0834589901778266,9.892989603074197,-0.017675317898848623,-0.00740534217772356,0.003016174548061041,4.96
-0.22541882069634986,-0.03524044569496342,9.82746861204502,-0.03420268546205886,-0.005604063388110032,0.005621622380609107,4.97
0.19734152740352945,0.05301942419086106,9.971114284552721,0.007748659599796387,-0.0014689668344797485,-0.004897773024990211,4.98
0.1427690769354045,0.07186017042751296,9.811261846736718,0.004235484507335095,-0.0007335543394459973,0.006117033119747971,4.99
0.06844291522298938,-0.09448371386918493,9.807790565980907,0.0029627583919723684,-0.002087247236337258,-0.001667299523484553,5.0
-0.1537363472063951,-0.1324287944168285,9.83994371681874,-0.016098290784845874,0.006945969526857966,-0.0011053553243063684,5.01
0.07935935655649085,-0.09925328256528711,9.566040931087134,0.00537450277391587,0.0008608338172046946,0.01866757843982951,5.0200000000000005
0.09936892241488524,-0.20613600812334024,9.756053974481325,-0.0014962379152567882,-0.0024057612994120227,0.009467909957911884,5.03
-0.009473040897182091,-0.021109334380284436,9.87609137712653,-0.005828781696178358,0.006212203511077053,0.003300994814759925,5.04
0.04745255027006075,0.08763646887970875,9.88447602670526,0.005573473921797383,-0.012046216882456353,0.003316477316258421,5.05
0.0797942045684408,-0.01264096382345076,9.820991266326304,0.010470811012487759,0.002632583756843722,-0.014218015307921748,5.0600000000000005
0.1224404291082058,-0.022709909960284966,9.963210661682504,-0.0007607396584059967,-0.00766452699716058,0.011365149349040397,5.07
-0.11195434999423289,0.11292287689659997,9.6893968535587,-0.009573676374903937,0.004680990811923786,0.007512949875029611,5.08
0.12448043784127727,-0.05285931014004574,9.851206766723198,-0.0025955198009000088,-0.0034200547912565183,0.0003772260986539306,5.09
0.05749342278477593,0.027444520321068866,9.790282889381363,-0.008960557043482436,0.02164133180010356,-0.014492648998012954,5.1000000000000005
0.1284673767898953,0.0437773774935387,9.739591295731088,0.016384887109329907,0.013621239700932342,0.0037614610857602234,5.11
0.08530728709484738,-0.10132606735126848,9.779413343243322,-0.0033405301834264845,-0.0035729531992367575,-0.0023344478658186875,5.12
0.01938827519019033,0.03937551983486053,9.968168821555116,0.009580078654328073,0.00629579891934015,-0.004806807235192102,5.13
-0.016569228946043867,-0.09200090576276926,9.83781157479379,0.01104461451789004,-0.0038674005959513404,-0.0034887190262081007,5.14
0.026006073292758926,-0.029511181383777632,9.825940190788101,0.01774614764211551,0.00963851049296808,0.005519162357870199,5.15
-0.15884976246908575,-0.10106329606282816,9.802181022743582,-0.002050564449822281,0.002453107661111476,-0.004844805377017465,5.16
-0.019641115556689473,-0.06932131592369085,9.920570856083833,-0.026087884295327775,-0.0038462167950548544,0.0042645854096649794,5.17
-0.048060751965196505,-0.010371484301269128,9.835467914926085,0.00857018257940617,-0.01167203796959598,0.008293965111405432,5.18
-0.0456766391538848,0.15845887044350224,9.592948261445759,-0.002526803955671362,-0.007841392013680499,0.007860715601550718,5.19
0.08047575420649805,-0.03483717925775728,9.751924372376267,0.0046277198262354635,0.006094756358734038,0.0021140780182447257,5.2
-0.016391919883581737,0.15576991472065113,9.784287654547166,-0.0030552712671110195,-0.0022732271503915357,-0.0005328646273002352,5.21
-0.06035619930102229,-0.05482711653659986,10.028026846407917,0.002755545112431219,0.005173361192494095,0.013674792294414905,5.22
-0.12915846074357107,0.12147970483289779,9.813753347820985,0.01980652211772293,-0.0120594952773599,-0.006886385408951275,5.23
-0.04707324486085937,-0.07030134707583557,9.644658837113045,-0.010203318178206463,0.005003482402720813,-0.016902012736687334,5.24
-0.016072601706026174,-0.28813226492571586,9.909803412836423,0.006722342840227771,0.004572931158629555,0.026051101661960133,5.25
0.03151358397169648,-0.004914132862331307,9.821759624746221,0.007241773624625092,0.012368256427503306,0.007631720840230999,5.26
0.1866294511623594,0.006422580822149704,9.749729697305144,-0.00882961429935608,0.0051888959785653735,-0.0035412144115491784,5.2700000000000005
0.02425970926980512,-0.19370078936141225,9.798426337516535,-0.003619701145212489,-0.017625186168151643,0.00564376697206757,5.28
0.032435520596861875,-0.14337874766020173,9.71951900394914,-0.00949927652448989,0.008334921052351766,0.003892103187049868,5.29
0.22842714748636445,-0.05317070884833604,9.617979683618858,0.009033273914039696,0.007445614933672557,-0.017974330895908865,5.3
0.08119135835840592,-0.10516914188652485,9.916819464433546,-0.006686525743158367,-0.004717591269964848,0.016763983943236353,5.3100000000000005
0.04527179753071505,0.13873131313517958,9.827020802612116,-0.00699819471061064,0.004012765765813274,0.013800735381194256,5.32
-0.046970163974740575,-0.03881613116493528,9.824285534291018,-0.018223038872110443,0.0010897778531555598,-0.0031938827220048707,5.33
0.12345675127726662,0.07628388393304336,9.771892365457331,-0.013044152360630902,0.002026193332141677,0.005703019768950834,5.34
0.0919620883828765,-0.05029826619026195,9.850482440679453,0.00831966814144733,0.008084207163576291,-0.0028595641617520174,5.3500000000000005
0.005680045025502693,-0.010347500011343966,9.587462138128338,0.0035400244664647363,-0.01232586240583739,-0.0004554184811660387,5.36
0.025207775717830894,-0.00897330705419643,9.829693854205557,-0.0036693336170355805,-0.010339724714741141,0.007185624017088665,5.37
-0.08994583532173561,0.06450415922048987,9.75014703776747,-0.002307653710503127,0.012003112252626985,0.012143301669262163,5.38
0.08203940731991675,0.14269457925278647,9.92616818537987,0.0055967677991347765,0.003968631728546677,0.002436818237054653,5.39
-0.015945253771271584,-0.20657077356122755,9.817940095091501,-0.011539901570862555,-0.0073840012565508486,0.009416342725006962,5.4
-0.03809727562449325,-0.06689794673571196,9.83746830634748,-0.01838215913634899,-0.000856865518662491,-0.00026049692793218187,5.41
-0.022846812168457385,-0.17020333191602038,9.7386334740228,-0.0004612749542001279,-0.018077390799766637,0.00043519153957425255,5.42
-0.17920490130538713,0.1721197120300132,9.800120303335305,-0.009446334965374914,0.0032094469413656334,0.004051681485369395,5.43
-0.10146088904795808,0.2009402199536969,9.909463194736885,0.007185996925102727,0.0003452511691716776,0.005678111881035637,5.44
-0.20296970730129066,0.009023608868465772,9.957789856141986,0.005903517877231213,0.007137278619832507,-0.0012317539267645303,5.45
-0.0015820514788287146,0.023094084979929312,9.732872755588916,0.004391404345933283,0.002876108339422451,-0.001579601747638674,5.46
0.011480508543307294,-0.14487234983512032,10.05078236678053,-0.0019198927600187024,0.008078499982394025,0.0008018512601563142,5.47
-0.16075129181238604,-0.09010220050443675,9.732465540854845,-0.007710009630738208,0.015103803183720609,-0.006535877626879043,5.48
0.03326617978985396,0.10414507506257564,9.873154105343724,-0.005463287225729002,-0.00867288480776735,-0.0014275018554857466,5.49
-0.03042294233856871,-0.10945581825000524,9.881440985224932,-0.00841310483434129,0.003200301451862502,0.001043620900595767,5.5
0.11205890971250967,-0.040573818989325675,9.795674869258896,0.0016268328495453535,0.0033813732882565367,-0.001507014332505359,5.51
-0.07775074861082396,0.10336282556161475,9.92697438089579,-0.009975953571227094,-0.016203168854693285,0.008816123321909534,5.5200000000000005
-0.15945454725920308,0.045172392432507105,9.778977925418271,-0.0036088827144611308,0.006004660129206162,-0.00130423994077933,5.53
0.027524652325344574,-0.11686299851421916,9.986915646668923,0.007961015317470278,-0.009615695917008657,0.0016649365145267644,5.54
-0.006386196665578745,-0.09573750251603522,9.801662318632674,-0.002588046615613327,0.0071842090065903745,0.005685062701499921,5.55
-0.14028149405621695,-0.20951145357792966,9.996174669371342,-0.006716185276808307,-0.008248045392860972,-0.016278142531254255,5.5600000000000005
-0.12836090087243165,0.13893617611414708,9.796468882357363,0.013771144230447436,0.0031461075382291604,-0.009842024719350296,5.57
0.010954591032074606,-0.09565167090809679,9.823504375412316,0.02692207554075893,-0.0037214700625709386,0.0006105060878014945,5.58
0.019132938894582518,0.014315924971485074,9.867551742283336,-0.00593796929238961,-0.004129835288804817,-0.002645903124794208,5.59
0.09659899129331394,-0.2437717218327177,9.722577689427368,-0.004129062606079243,-0.009830620470562466,-0.01651326427357334,5.6000000000000005
-0.06183403374366412,0.05970269507160069,9.813025397902942,-0.013464630137188675,0.006553836308637376,0.006722626421180194,5.61
-0.025222701899261693,0.07441011548619848,9.765319101374024,0.01654121636131637,-0.005416089531385417,0.009986282228644403,5.62
0.23761295078404712,0.16762202576089397,9.962463183152071,0.015723538293507932,-0.004955479223157323,0.005858080378104623,5.63
0.09109197217801616,0.031368101243256945,9.837777194272215,-0.018779977925351073,-0.010579817497440388,-0.0036102660356667573,5.64
0.12455048747722186,-0.015222994283007527,9.829652169213915,0.01300227295741514,-0.02237358858491242,-0.0046300569795852875,5.65
0.09580703868691655,-0.045643167807031544,9.697347858846053,-0.005401343871756693,-0.010858939066520277,-0.001404177561538254,5.66
-0.0765066155449959,-0.00010489383443141624,9.845704829325332,-0.0010136175742260175,-0.005875108485268207,0.007264724326400572,5.67
-0.07323073148931329,-0.05727473491688924,9.771397546254612,0.0034848203844771958,-0.009729754154570055,-0.01176984582054365,5.68
0.04305267383077546,-0.044704538757310286,9.76722410201208,-0.0016739224052206834,-0.0011607223343119645,-0.013003367550348796,5.69
-0.02333640968528998,-0.05263644921110973,9.954662938059677,-0.0019052580466775314,0.008623904442525858,0.010353182994176105,5.7
0.02371405698416455,-0.039654108099849365,9.799015757111311,0.005156017302463966,0.0011079241964243862,-0.012039524607500364,5.71
0.060158909106897286,-0.19701758929072466,9.853770624875857,0.014241345374163342,0.00866418929021127,0.003068747645171881,5.72
-0.09715042646077983,-0.10458477565175146,9.882250130834052,6.248433917235527e-05,0.019300939464382886,0.004839437963249587,5.73
-0.09251714703957312,0.17357813705483188,9.843224122505292,0.0010283753121193614,0.003055984051748082,-0.005044041151585299,5.74
-0.08720977747662889,0.04154711320412882,9.794895169213381,0.00027009613018784157,-0.0047505027218099245,0.011296985835043231,5.75
0.044230262587654244,-0.05833399045804127,9.891050389149626,0.0031148989395253478,-0.009877610739401571,0.005910771142272209,5.76
-0.09930021903204365,0.078770746409072,9.82140412029985,-0.009083560943671602,0.015932220775508803,-0.003782791757715971,5.7700000000000005
0.11093006577075107,-0.15552593722362743,9.840912165691506,0.0072188900178201815,-0.0068302641715473015,-0.00426721788611508,5.78
-0.04130292927291586,0.14832219686422607,9.79211489215376,-0.011028398237180617,-0.0027348939738849705,0.0025576849786753263,5.79
-0.027799067430112998,0.11597019048422388,9.75103606951411,0.007889397427463831,-0.01344079947603642,0.00800657854921252,5.8
-0.06806545638746175,-0.09337254214306584,9.594150127782683,0.005913957658387348,-0.004293058683702493,-0.008247060493073582,5.8100000000000005
-0.07516082148703399,0.05837762293917981,9.853981505892198,0.010003156408851079,0.005141021554881454,-0.00704145415539174,5.82
0.0219871570006258,-0.08542938996713213,9.937477454857234,0.012095068153503516,0.00200407398423423,0.00731999682912638,5.83
-0.020898084414172048,0.014126731223923661,9.84268097746532,0.0030358975054234037,0.0006466620662921217,0.008100149251835815,5.84
-0.09144442291995636,0.2273275000336663,9.65566285421656,-0.014792166983368566,-0.011458447849381628,0.011721766088055774,5.8500000000000005
-0.15654348514314342,0.02922119864051973,9.76141769799788,0.011688424435494768,0.004543801370763732,-0.008211834139398282,5.86
0.031144156882245186,-0.09303278512656411,9.935478707626313,0.007020575904048416,0.009931740735708348,0.0076186414635174,5.87
0.2233010877685475,0.03870712130164898,9.902487443255977,-0.000947537517605816,0.0023033519963037074,0.002426262727750646,5.88
0.03637209346237751,-0.018093680052132518,9.787642018280081,0.004115819213891637,-0.003987491907527232,-0.0064759246782887326,5.89
-0.07030366873287562,-0.08414866735149804,9.886370491036155,-0.018863878542478486,-0.0058584347515744555,0.02969225118973392,5.9
-0.05900327139821883,0.22078807075528406,9.953079310569866,-0.0011966181826871967,0.003383511923757499,-0.0210932408667781,5.91
0.0927805043875502,-0.15881609108288317,9.64581126380814,-0.007293752395666626,-0.005835400474289735,0.017816855865969473,5.92
0.005798505028179856,-0.0813793046869401,9.905673851121744,0.005135726164989371,0.006322493555862412,-0.008349598257161733,5.93
0.03549854696735111,0.053237876069130344,9.71306339011489,0.001294841267255862,0.004044707393326796,0.0034248899850583036,5.94
0.09332311806214394,0.005741155440268455,9.575672846995205,-0.011222654227993857,0.008028750338899979,-0.009032946525348426,5.95
-0.1820723300104048,0.10412420660331406,9.646259936767231,-0.010270954145922108,-0.0005490198396141227,-0.0170590370746571,5.96
-0.07590649633196901,0.05571660824039454,9.815780151440686,-0.011886325688898936,0.014922729903725783,0.011801738723342375,5.97
-0.013765822709827008,0.1140677718213719,9.934746268113576,0.008310765196174012,-0.01632615902417314,0.004019282533776803,5.98
-0.06772376157572932,0.018228051892408097,9.77827202922004,0.0007813578313912539,0.0018379515303956519,-0.0057708656410317615,5.99
-0.04545272495973297,0.11312893001355258,9.736934190209885,0.013715524049954433,-0.0071676166717645285,0.0003719556505334844,6.0
0.06845052027687878,-0.12411578289505963,9.736877239510443,-0.0005753910629969904,0.0018055567109124533,0.011117367883922993,6.01
0.015328725282212536,0.1715010641700067,9.906021733829485,-0.013237244891287215,-0.013099343330176233,-0.009073296679349939,6.0200000000000005
0.01201208578581887,0.026652323965481107,9.826558262345786,0.011642836502016815,0.010982592996118095,0.013566360362570527,6.03
0.3469002835826067,-0.07304071755096543,9.725045901869786,0.014116296649685842,0.009796867976623663,-0.013187196140005646,6.04
0.0722733843523252,0.07820239977708549,9.92194850246799,0.0049096216993935295,-0.005629785264059051,-0.02511966645531513,6.05
-0.2069774617504054,-0.03422488083923231,9.817558067687742,-0.0008133566415688291,-0.0004248511010548849,-0.00904516766915884,6.0600000000000005
0.0009854990765715231,-0.07156270974207046,9.77859581944434,0.00011316999064075037,-0.008066871502503636,-0.0037563036229833657,6.07
-0.19058447090243968,0.11268711139771836,9.777449473556098,-0.023571811387233174,0.015999229821365712,-0.00020180997155652805,6.08
-0.011596209781808364,-0.06846738858412718,9.874745315709273,-0.010323847564733344,-0.0012146373853718373,0.011257248480150216,6.09
0.011317303370694093,0.13929024965822984,9.76639553239486,0.006824270368860091,-0.01322857728097417,9.137447570835275e-05,6.1000000000000005
-0.0018659797411761153,0.11593827909348836,9.821597660902567,-0.0003492955974416072,-0.024655487879549493,-0.005521039473444258,6.11
0.15825928523739996,0.050636934343817754,9.930706441904887,-0.007245055899077888,-0.01605602773339244,0.0011210489922019186,6.12
0.04569557999502738,-0.2335672646021085,9.937677282107241,0.006928733160834872,-0.002316868522104373,0.0016715330526881453,6.13
0.16079591151638783,0.04974705450107503,10.01261657812461,0.003373415480896184,-0.00542288587964555,0.007576884492087008,6.140000000000001
-0.1125409039835811,-0.15057325170193933,9.980218693635736,-0.0016919310867858886,0.020628793035123393,0.0050801775715950195,6.15
0.064799404152266,-0.1662183828628349,9.853445189607873,-0.004928294080453026,-0.002843450051290894,0.007027610353082221,6.16
0.14229651812240873,-0.049454567855121735,9.736337561676049,0.004799750163816155,-0.0011911878584972156,-0.0024619070494897722,6.17
0.06782244352230053,-0.12008198511318556,9.733866176830958,0.009780706054753951,0.014893967884378698,-0.0013392043252452095,6.18
0.08437401877268953,-0.015894242266845385,9.712977801281603,-0.008941888461949921,-0.002459871361377063,-0.015449878957092855,6.19
-0.050849774705707666,-0.173562249819961,9.782190152088498,0.013304633216295682,0.006974015494617038,0.006732902809827301,6.2
0.08564437350632524,-0.11153209915305184,9.846322741960176,-0.004027875299876674,0.01060691962269935,0.002684077014434637,6.21
0.11839824539333031,0.17713439561962954,9.835432096875865,-0.008395927093894957,0.008991944680484263,-0.010098118814841073,6.22
0.07117170391345848,-0.20627949879903956,9.921600679174889,0.0020043740247777247,-0.01206502329199764,-0.019426053441982224,6.23
-0.0024281306516491775,0.042970754388690524,9.809558267303613,0.0016409837962876991,0.0025343046001814647,-0.005119013893061121,6.24
-0.02785137939033884,-0.09677430083380506,9.775785168975915,0.004900038613328086,-0.007101977458331343,0.0012480139693514724,6.25
0.2157318890695372,0.1278840307702398,9.88047142494598,-0.0009761817777307146,0.015524606669882748,0.009156537944885267,6.26
0.13804050004793486,-0.11221421383681002,9.885368250788664,0.008951446681149307,-0.005805211840260817,0.0011546259189356308,6.2700000000000005
0.059057942605523786,0.05955836066595258,9.604530937749415,0.006753227802029067,-0.005262990551173958,0.01539999580786533,6.28
-0.036205031819796306,-0.2445620941610733,9.854403181574156,-0.0104425424960931,-0.004296853102412646,0.005064873483205621,6.29
0.014978343200245145,-0.03492620810304058,9.902736387937708,-0.013603290559945249,0.008429584215957419,-0.009591746901863108,6.3
-0.10190886900565409,0.049007625669432286,9.736166769204782,-0.024779797431009252,-0.004175728598071708,0.006997256926957943,6.3100000000000005
-0.1442334286996043,-0.1417826217288318,9.79112430761036,0.00983150481535035,0.009509440188845487,0.014559798436715024,6.32
-0.021825838916191914,0.012141620669035728,9.779079199434287,0.008030198269974616,-0.010663007213342705,0.004535769952786802,6.33
-0.050967327395723794,-0.05386781563216469,9.817648787487185,0.006347116718220406,0.0007670251615767533,0.008101100901569246,6.34
-0.06928278698625905,0.0003888274804061773,9.860998211297938,-0.019074324399052975,0.006346413027585801,0.013535541062341384,6.3500000000000005
0.08378303180408947,0.2116836051775709,9.875369245011537,0.0054411566107441965,-0.006835968242184466,0.0031535823452517138,6.36
-0.14913584336442037,0.08264761549401795,9.695775440021542,0.004013550837469311,-0.01369710175246116,0.008968101873009629,6.37
0.0761423314498009,0.10377390828782192,9.707406113818397,-0.013035533733869968,-0.022139707586539954,0.004287905317915332,6.38
0.01887362031781589,0.024002012889498946,9.881216119216331,-0.014964042527565764,0.006065436650155164,0.0007485133658708523,6.390000000000001
0.13785847766137135,0.042472803718125014,9.716073747607654,0.01000549003158256,0.0022233004667331874,0.0013735921683229698,6.4
-0.10309323074567614,-0.09231361620669877,9.789626896309017,-0.002813932131844494,-0.0003007673358676105,-0.009856112161302255,6.41
-0.09601791098670881,-0.08441804485104022,9.799317549553015,-0.002732184892698415,0.012667829866242096,0.00020903443907829028,6.42
-0.012374344544720297,-0.027340879288609912,9.544752393962053,0.010669992758412348,0.0070701707203548025,0.004097162937037796,6.43
-0.0647525534978378,0.021316512035472676,9.831558405993238,0.009557733580057294,0.001132688431538739,-0.003821957807976884,6.44
0.015866628354968538,-0.0846978048751662,9.662865383985725,0.00021694519860025334,0.013555570298105724,0.006632121218692437,6.45
0.2070169846909653,0.12269072708713416,9.67090325486748,-0.005282820621483843,-0.005928401531105466,0.008899906659300407,6.46
0.06835870623564225,-0.0037359767355397166,9.778017421497916,0.007539307806829027,-0.016455670007283825,0.0034291885566959217,6.47
-0.08189134951017453,-0.02490783405673194,9.74012132451409,-0.020511175350023347,-0.017436480961811808,-0.006912628439183678,6.48
-0.16743964133893652,0.001957683573549238,9.925674200771116,0.02461900618843205,0.015366265294991245,-0.007599645408858507,6.49
-0.04453803795026803,0.07154059174128467,9.69314917457887,0.007450981356768388,0.0073646576815639235,-0.004693222186176709,6.5
-0.0645127414418913,0.014520547302485599,9.845023158475719,-0.002219668699017656,0.0036493330730257194,0.01311428957752322,6.51
0.22241725129079173,0.02845684765694292,9.667900661561633,-0.0013440288000316325,0.006852067055974579,0.0002560539956972597,6.5200000000000005
0.03495880846224408,0.16438065619528652,9.68832927126704,0.013931656042483628,0.0017427134109878851,-0.014188973189913355,6.53
-0.06936610056996058,0.23231027429648396,9.90198047253716,-0.012621330833462776,-0.002811463249742916,0.007321572495273208,6.54
-0.013313185267319958,0.21010317886691765,9.863592562102928,0.0064142310398236,-0.008417902104203932,0.002092407782151405,6.55
-0.08547426006657775,-0.0769288116411218,9.763339944310442,-0.015959048090623915,0.01920452421454422,0.005932226357284988,6.5600000000000005
0.039671154737202174,-0.013737502803704489,9.678504439744056,-0.008853834488804566,-0.012564005225373,-0.006217732710831821,6.57
0.06707310923284873,0.2553499409908575,9.839382664027328,0.007922123714129098,0.020714982448369536,-0.007240364183518218,6.58
-0.2767707427485204,0.03248322893405048,9.952449326742757,0.0052043097558992545,0.0039022087531896256,-0.009623999660847099,6.59
0.02595927657421375,0.12033127295506203,9.861458670065149,-0.0007948697141454477,-0.008263437920611938,-0.02581589523242413,6.6000000000000005
-0.045822675385125744,0.07701196629219265,9.761519335562163,0.007129148272439901,-0.0016935775311763181,0.009774042493551063,6.61
0.30207799372594746,0.039530295945695716,9.821116013401117,0.0014891655458138672,0.0005093232302445119,-0.021411842176168712,6.62
-0.061881540269949235,-0.02289598657183214,9.874383148254518,-0.0029271861723513056,-0.008600096599580867,-0.012004546312530657,6.63
-0.023640620631636865,0.09147108441002268,9.771249226422748,0.002477087465849961,-0.001942948088653367,0.008072566428291158,6.640000000000001
-0.08368704756401568,0.02247252032810719,9.954195979534427,-0.002621496469095886,-0.0011295138245432446,0.010585382131355762,6.65
-0.07061816318047191,-0.02151175240294469,9.756326679077155,0.008988140708810648,-0.005492659269879032,-0.01831137759375474,6.66
0.0538678942401728,0.13972201266165318,9.789525729431316,0.01019164635939974,-0.010716571318570699,0.027424096090281475,6.67
0.05329577328448353,-0.03862297956930999,9.876021418487616,0.005200688500978639,0.00533166259910524,-0.013781085948862857,6.68
-0.18900146621440692,0.09478489980812554,9.747385902895255,-0.011299248030355188,0.0009735868955136843,-0.007699829048025027,6.69
0.11714984560444289,-0.07269210525287596,9.78599390243205,-0.006369329176704958,0.012000264313507179,-0.012134024762813335,6.7
-0.14481730497464348,0.1276935684903914,9.793278607176726,0.015589405594302488,0.002278373337949792,-0.018880336717380982,6.71
0.18353837110438986,0.13636316833563858,9.703824949622883,-0.005746506832460205,0.007150491933719243,-0.02245810866525975,6.72
-0.06720156501125317,-0.08933119977045588,9.812997224743274,-0.009540670794505893,0.003719264117595217,0.017910802011151427,6.73
0.08268232903666045,-0.07756624619248983,9.786066326008704,0.0027769705667051994,0.0025768206891883605,-0.005171136434830447,6.74
0.12486344723045327,0.0593768354624987,9.769909529778909,0.002921558331300066,0.006294306900894574,-0.0028803691170516117,6.75
0.1506968634481174,0.006611491830886084,9.762957252681298,0.0013814235416176874,-0.008198943509891846,-0.01534702366096379,6.76
-0.029926912248807197,-0.06372283296495461,9.827280694090105,0.011945890452876312,0.027731285621005308,0.0029529516465357504,6.7700000000000005
0.1788132511511743,-0.14925395128119787,9.715872980843647,0.010706014593880027,0.007777559446954402,-0.004868180114249574,6.78
-0.22438221732482813,-0.07552209992722317,9.818098708431469,0.00012751150529761865,-0.001042455656147991,-0.0067091839236648,6.79
-0.016039001217349757,-0.1101870717177837,9.75586917081602,-0.00039522134516506484,0.0064091194498525975,0.000691793701995282,6.8
0.052835551245836554,-0.13899967966894045,9.897995143176699,-0.021507045453311432,-0.01384895774385037,0.0035067543635575577,6.8100000000000005
0.1520759326446404,0.05121570514489901,9.874399551882869,-0.005487373436395005,-0.003464720383339065,-0.012362628828082242,6.82
0.09180005853712964,-0.07907841591333009,9.807349211637794,0.007262553934842247,-0.0085393400436946,0.008957913074817898,6.83
-0.019726663775827866,-0.03550741856414289,9.784391993588462,0.012061020088164304,0.0016991941532588236,-0.0010907659433550161,6.84
0.0348042562906595,-0.06144064504824823,9.683227067270023,0.00714611930916091,-0.007452941748081586,-0.010246355826493931,6.8500000000000005
0.15849393281337712,0.0002161351034128721,9.827736919666002,-0.0019446879124263988,0.011761425761970397,-0.01907721026343194,6.86
-0.04510960431015618,0.0690943573359079,9.658738742732163,0.006635304339964357,0.015629697034214324,-0.004472278532358498,6.87
0.08771679626896567,0.05066555636502517,9.698537632761527,-0.011634073894973467,0.019648855852093354,-0.015563348266926314,6.88
-0.06906593218974759,-0.04002219871148721,9.968105918554418,-0.007608444528801962,-0.01702457031888332,-0.011689211476917281,6.890000000000001
0.09630619371531168,0.11718482963460304,10.11981720670342,-0.001007676611878838,0.014713774515372521,-0.021687818010346093,6.9
-0.16192658832437581,-0.095770999661453,9.753861331435257,0.005434591659817264,-0.00047437960890659044,-0.0024788078345374053,6.91
0.07414832341446277,0.03309289801157098,9.910655074371899,0.007233166635299741,-0.0070947240582547215,0.0020036194407763407,6.92
0.11300374845968622,-0.01787381529973863,9.720303314284747,0.0019586905485261567,0.023444858841997634,0.014783573303673182,6.93
-0.26079909964300985,0.0026169113165809333,9.690961261605114,0.005182892051081638,0.0029972029938668964,-0.0010872404658319626,6.94
-0.017878794419850946,0.030472662355256603,9.792815290893943,-0.012693321065328214,-0.00033425229461819784,0.0017885146514047892,6.95
0.05177863631991539,0.23858920277245407,9.800805014397138,0.0036552926553549683,0.0025831020413703953,0.006597764403474853,6.96
0.030973323644568077,-0.04483420490954867,9.822920749961165,-0.0022749023369918195,-0.006061321840910547,6.486572250081334e-05,6.97
0.016649583378953926,-0.10008612322724611,9.78378734435181,-0.005094325560745063,-0.013457115341468422,0.0003445569944813248,6.98
0.15007965454702185,0.1715181406925271,10.028931007557363,0.0100461480843509,-0.012972691961663353,-0.008130217817747226,6.99
-0.08652791977910024,-0.0059305876553411895,9.776918362906024,-0.003758744526570486,0.006284033172865397,-0.005305454065922505,7.0
0.06519173908435233,0.0378684328501638,9.878255279587187,0.002212199724304056,-0.024215572039151905,0.0027834445844087947,7.01
-0.10690583981624971,0.01719942732773657,9.647138340507198,0.02293467926250353,-0.01013393602234397,-0.02098688786517725,7.0200000000000005
-0.05365758695980999,-0.05756790892961208,9.683285989642444,-0.009786801564858297,0.0012364008370594685,0.0072269632546610365,7.03
0.019796654136906778,0.027390271250871453,9.756433998204095,0.013941844904697756,0.011500196326211588,-0.015717216301870295,7.04
-0.2420094759932696,0.1803021416490718,9.530373656113492,0.002116708887733795,0.007441773247338922,-0.004167513722491104,7.05
0.11895940493250823,0.20076800618404073,9.666318986858705,0.005340546563860578,0.013078467210225873,-0.005347514786458638,7.0600000000000005
-0.031163870634905617,0.16711540777321504,9.79408863361987,-0.010454232299253328,-0.014014101639494864,-0.00037573861298864647,7.07
-0.030331296152485854,0.07553344994870533,9.870475941680214,0.005847958646109565,-0.014611936621902487,0.007830411791860803,7.08
-0.027145001605649456,-0.20307629183770698,9.769577987819462,-0.014724167736978157,0.0007404506001066689,-0.007066495219862583,7.09
-0.03071433909012196,0.17171811509833323,9.582684756108042,-0.013657595947170238,-0.002022503421150258,0.0013324502890223909,7.1000000000000005
0.11665612813011239,-0.003923024167355813,9.802884695592834,0.018418704434505932,0.005194284633161184,0.014690795543936448,7.11
-0.04031663322220971,-0.02182104450585161,9.762922239921524,0.014074157350823763,0.014943468225977282,-0.01238265406584524,7.12
-0.2216657724431118,-0.08909173587968103,9.822270526515183,0.014488532493163404,0.010954141460405058,-0.010451337439203201,7.13
-0.18864120139462742,-0.21051846848901334,9.6546288364507,-0.007501310911646872,-0.011428444553636452,0.022211984271954227,7.140000000000001
-0.06252305602347955,0.059764491283446075,10.014901580324693,-0.004134294030548121,-0.010360691836251467,-0.0013548860723618453,7.15
-0.14907739968743627,0.004003040521514396,9.677637882952423,0.012148676245203603,0.0032899409301982473,0.001940792760212687,7.16
0.09362590350453392,-0.04683715999720734,9.545321179882544,0.018552103502771696,-0.016604370450951346,-0.017342528052525764,7.17
0.14957945883021667,0.009702446179879257,9.795996670374741,-0.005084675034663223,-0.0009042200409316075,0.00961079285352381,7.18
0.047885255651750724,0.034343893859496356,9.931440956102056,-0.0017750364136427063,-0.003446294722880709,0.010958383397841127,7.19
-0.20798270774480196,-0.11150064722224035,9.966070331412853,-0.0008382077248442006,0.009248988689977415,-0.00812295642763655,7.2
0.07836200229447267,-0.1438031310590658,9.886514433115083,-0.0013535670513726392,-0.01785828640903123,0.0059322214213709526,7.21
0.06065564457120466,-0.02891135042429381,9.672706304779275,0.004504240147918816,0.010333927039602729,-0.014773684078468283,7.22
0.16558144988331197,0.10228798566736418,9.845368006513977,-0.014937991982368384,-0.01186476367812853,-0.002369965451420892,7.23
-0.06851083126709766,0.03868006932570469,9.852499299967343,0.00867408287096077,-0.01315185450116699,-0.01361214647233642,7.24
-0.08211333629573238,-0.0444949179458536,9.70226180100497,-0.0032268851901028884,0.0011194806354616102,-0.0018521460432553238,7.25
0.005580845329704606,-0.046473386185479165,9.990430822959222,-0.017547476311517735,0.02353914456484569,0.006678969991457432,7.26
0.1029996538769048,-0.17151514326166695,9.700036797914949,0.008857412499563018,-0.0007446293810182006,0.011296148479043588,7.2700000000000005
0.1422320020650973,0.0957158920746602,9.85484789401355,0.006489844681121102,-0.010323275434197785,0.005380090581271897,7.28
0.00771231849527405,-0.05456628607076978,9.757475264218485,0.011297571066268764,-0.0047226221862501265,-0.006675659782198713,7.29
-0.049188187479492045,-0.018299159295153643,9.895139912113898,-0.00819272552922082,0.01726316448922302,0.0006374051894033003,7.3
-0.02818061409512462,0.006451781746279372,9.78461554018768,-0.003708571790107634,0.02619709504545272,-0.004601769391418745,7.3100000000000005
0.06394350584920803,-0.12906378758742854,9.609290206859745,-0.013195413592610618,-0.01127611137261248,0.02034246037391769,7.32
0.08222435410055928,-0.09962559161922545,9.83230306365395,0.0028284880637923014,-0.006513789357075063,-0.002177570859542342,7.33
0.0925014371908743,0.08824685977021754,9.859298539479447,0.00190138805675071,0.0088586859291751,0.005739877589292715,7.34
0.09012495246542657,-0.1454598094069921,9.399094095382724,-0.03440893290394622,-0.006528889655326948,-0.01174344730126401,7.3500000000000005
0.05034378916179864,0.07859213258587162,9.756109997676491,0.010111050952009095,0.006596908180093671,0.0017633693174330088,7.36
0.08181354975061365,-0.08194350278158666,9.716138527797,-0.023840242665570437,0.003339364396022315,0.0008323043683621193,7.37
-0.07463575191133173,-0.17048968621852323,9.786850938514426,0.01288408284067434,0.004596195365840661,0.008566573861764928,7.38
-0.04522308895824755,-0.07370744584157925,9.742739605009282,-0.004862041592435178,-0.008114389970266506,-0.004489679148069568,7.390000000000001
-0.22386072448785274,0.0046137455911759015,9.752510989482245,-0.015782046038773753,0.020816971370848175,-0.002529630317476778,7.4
-0.028965665284109078,0.03695758807634951,9.79356970907555,-0.011690141666556778,-0.006886633249057821,0.002532291957509464,7.41
0.004089153792149597,-0.10769009908629641,9.743295348820766,0.015363797920626842,0.0009445369701963803,-0.010309418767615618,7.42
0.016132508149709866,0.00194026667715894,9.835460351498478,-0.003300079247965433,0.006989005852214402,-0.011152126180627855,7.43
-0.1451951285952633,-0.0928154834608755,9.869405501131377,0.01498171750216963,0.016677073509141126,0.008028924340774351,7.44
0.06277022839838999,-0.009334936696120023,9.672069584619003,-0.0025560393155525203,0.0018107957784692878,0.004708462762564412,7.45
0.05440837818646568,-0.0268314972165144,9.733428590370554,0.00190438699554078,0.022822858002214865,0.010233104868167172,7.46
0.12270789614002563,0.07668445547701395,9.903180266274573,0.00768986484971329,0.0033069855859783536,-0.007041388747407257,7.47
-0.031116373299934576,0.19738226218263566,9.6878974833838,0.01961997094958586,0.006445629688180373,-0.00999934839588112,7.48
0.03613310331551462,-0.008836763927988855,9.853162598922134,0.009188629192158774,0.0005449122870003034,-0.005278526461705339,7.49
-0.02886853520956726,0.20531636454808055,9.765954441922895,-0.0013118308196156242,-0.023351385552327443,0.001898988758629593,7.5
0.04235973249077085,-0.043266586773210866,9.87226245057946,0.0016251673057717175,-0.0018929375882672766,-0.001728051191506122,7.51
0.04724623824892299,-0.15482451598357772,9.709951270062556,0.006024567155778208,-0.008514165889354126,0.007908334202034482,7.5200000000000005
0.010514754340187038,0.0202620844230788,9.658298567810702,0.010860983179269305,0.0009578188866317683,-0.010636639271158741,7.53
-0.08988375466302125,-0.07030938707332587,9.873677721303215,0.017455816900039278,-0.005300507552462404,-0.010548435828573155,7.54
0.05179254917366574,-0.16189937340796762,9.92072030390058,-0.0027467477523856294,0.0022930768128073685,0.00874390562654697,7.55
0.07150687517773223,0.10964780161567378,9.788005292104822,0.003914135871994919,-0.005960144140058811,-0.009408565021269395,7.5600000000000005
0.06710393524421113,-0.06801647538657488,9.779773954374916,-0.007821791052479415,0.001584733649150443,0.0067459586271365396,7.57
-0.11396798363974675,0.19143332726096718,9.780538923089596,0.01239961231253007,0.005207527476057109,-0.01395255592341566,7.58
-0.01740252216854174,-0.1339678466018271,9.989084242669707,0.0056685992976825885,-0.0015310206726021627,-0.0008764843466923402,7.59
-0.13287155095523684,0.0594025137501369,9.802771764148346,-0.01102377475062388,0.004882466230044875,-0.015033157637821438,7.6000000000000005
-0.07419522982669864,-0.04115134056558037,9.902935587594511,0.00950886366320172,-0.0004233614440013541,-0.010372639151174597,7.61
0.07494658958358955,0.004432339484052904,9.542169613663303,-0.004256539277925512,-0.011292163639984568,-0.006528393411574118,7.62
0.026096490159080322,0.02128465159377083,9.671413335782958,-0.008825389129119695,0.0017730521441720448,9.721604547175956e-05,7.63
0.02911646875111574,0.1020853570760562,9.846828892975855,-0.009577626645490356,-0.0038816117449382197,0.0106656179573359,7.640000000000001
0.1546269592351034,0.11969279144363035,9.78293374392817,0.014975149199160383,-0.0014573692555281143,-0.0010662544912034004,7.65
-0.26035304619232863,0.051813737259292385,9.743693777665229,-0.00297451139094017,0.005453782607192823,-0.0033130478349328598,7.66
0.030808135270323073,-0.21172357551157173,9.705772983924314,0.0018629934759625006,-0.0024232918327419415,0.006274236126718592,7.67
0.09665807251733016,0.11047644556067188,9.688821575901121,0.0008924752227063244,-0.00013887466648706282,-0.004835427844669794,7.68
0.059809458685715945,-0.022266101419086907,9.759518507632167,0.009599994962764771,-0.013837070562598974,0.006203848866964393,7.69
0.002185165860941609,-0.03552363899779404,9.816724628703192,-0.005985440865594838,0.005497748737703225,-0.0027997656028300607,7.7
-0.0289110243209469,-0.1356627645324493,9.879670456450176,0.007326847342724446,-0.005897744349806692,-0.01261765471026721,7.71
0.014105203132670267,-0.13799254269474848,9.854931119352115,-0.007592822765616435,-0.004300237024596903,-0.0068758216496149225,7.72
-0.09836946621674397,0.18839430142632477,9.687770211209079,-0.014021033136549071,0.004970360045041032,-0.012122274765817854,7.73
-0.07142872894344247,-0.057140079653434345,9.816112560224338,-0.015656457876134292,-0.018041269813081424,0.004401720617003574,7.74
-0.012603777053523463,-0.08465568841201501,9.915048018378773,0.008131596696923484,0.010836477146552323,0.005167341025384169,7.75
-0.10426451921979095,-0.03235803812688441,9.87726512604156,-0.0032209337593148515,0.023082913264064482,0.004232561852275852,7.76
-0.22863582950088068,0.010410070729231391,9.81939599917441,0.001844893096017197,-0.0031651887285242507,-0.006135495624802701,7.7700000000000005
-0.016296879607004752,0.0038858598195030086,9.802175851756276,0.008079840164955804,0.018849539978303215,-0.005800211795208792,7.78
0.03307267432480445,-0.20096474398835876,9.822514213971273,-0.013791463169171804,-0.006219732501719387,-0.016247041304977422,7.79
0.16832528975478145,0.027605010848671854,9.828921516010913,0.006263309264302547,0.008921703271209572,0.0038326777648428428,7.8
0.24623213277264688,0.11412561645410146,9.86160907194317,0.021554649879759566,-0.007953179809180254,-0.008113016544021842,7.8100000000000005
-0.08883327951921643,0.09417763405774464,9.788599629059776,0.003254450712573042,0.0011069365761464543,0.005733663829135801,7.82
-0.06586444569821201,-0.07954419727433908,9.855037715955206,-0.00706213857896057,-0.00786608391100073,0.0025831854926905784,7.83
0.027358693325840018,0.10783620396052646,9.715332924935824,0.002156687280022272,0.007517424268587305,-0.008944782038207161,7.84
-0.11475912083602831,0.04893365005170288,9.969874680323947,0.0034328702209656253,0.0027345894615088133,0.009597222963331258,7.8500000000000005
0.08308917866809987,-0.263604980007365,10.000471536053253,-0.007424828782865112,-0.0017521748886791659,0.000656793415170862,7.86
-0.02613641585735754,0.07505789475582808,9.79096522763762,-0.003181145658230786,-0.005148891092773075,-0.012678999466703408,7.87
0.05585879829687414,-0.13231988591894964,9.893381332335439,-0.0013743300332192143,-0.0002984259617354076,0.01865918244608945,7.88
0.01189339863735325,-0.09761935824885734,9.782357295779823,0.004968786896459127,-0.022954407405811166,-0.001843362103011102,7.890000000000001
0.06629762405452037,-0.17351694332182518,9.777096647054329,-0.0011362559256416574,-0.014480336639855516,-0.002339023908442919,7.9
0.03095387036346475,-0.03126535623375519,9.880242014709305,0.0016458316350105306,0.01265384529240028,-0.0006121980520916181,7.91
0.014892072482349004,0.07409709174396281,9.743171541949618,-0.019908776239577732,0.006551862447740827,0.0016628732187665546,7.92
-0.2485964716857273,-0.17643620175307873,9.809514485394555,-0.002660649209165135,0.0064789693402401176,-0.004950511102191025,7.930000000000001
-0.024900220436371325,-0.03328147604495535,9.78047394575122,-0.0016675533711923655,0.017834724116520945,-0.012089461179980452,7.94
-0.34164339619025424,-0.07161884463225361,9.622736363556673,0.008560705433309257,0.014144892419628876,0.00224066730747411,7.95
0.07445110064753237,-0.04442935426510677,9.7993232886482,-0.011006803612788472,-0.017215369774750248,-0.009638374293317436,7.96
-0.08984815951155926,0.06039898470262285,9.793249808086346,-0.0070243635188352764,0.0015961650535021394,-0.00021649639633214673,7.97
-0.10277615421065485,-0.03849187585109068,9.863961006868879,0.021219977863239644,0.0017891702885236827,0.003228439612931891,7.98
0.07158143898178519,-0.04401743771756771,9.809642640856646,0.004020446916384914,-0.015486419634413271,-0.0011538349374143277,7.99
-0.04844029469808738,0.007688058902680802,9.808427333799987,-0.01147858603454051,0.01006354919285551,-0.00451956319611352,8.0
0.22795630048830057,0.08025112926728283,9.988474039818186,-0.018898343478745912,-0.006105566169152943,0.0014411283918430123,8.01
0.03328755039472402,-0.06066583523322638,9.728869343025712,-0.0022981698689582544,0.006988350087225,-0.002397574074602876,8.02
-0.09203872672914049,-0.008535582652563599,9.663348125709144,-0.013719053586875177,0.005429146851166955,-0.008348555270523809,8.03
-0.05366000807347335,-0.14016933796932673,9.732215373467056,-0.006610767302642564,-0.018692123607964847,0.02088992962361274,8.040000000000001
-0.153025117586688,0.1438180774997427,9.943913779999571,-0.010950811510824245,-0.017883153081264362,0.023380045036307057,8.05
0.06586831406860848,0.16128248721725835,9.857555507620663,0.003506459955908264,-0.008361647525701364,0.004329159820086962,8.06
-0.03258123896953157,-0.15762045630542265,9.815640863334608,-0.00244120987980865,0.00036122015453715156,0.0015012329772794407,8.07
0.00923480480712103,-0.07501279518430215,9.931418964494908,-0.004822077190945726,0.009236387694674787,-0.006750145481954405,8.08
0.030412932356883145,0.0587036913731436,9.865076272454884,-0.018878288273070802,0.012769415508412513,0.022209768226402554,8.09
-0.012633452208914018,0.009782355703789929,9.846161276254543,-0.015517230671122189,-0.003325154233728385,-0.0005199092418158491,8.1
0.08470038843720047,0.08931254610583644,9.641906045873117,-0.006095877589073317,-0.006093021627200483,0.018043624457340184,8.11
0.12915562767584052,-0.13029188040653836,9.760275874778344,0.00641563461416951,0.00020432749761941364,-0.014389041875853973,8.120000000000001
-0.11238406280535496,-0.12776112835023554,9.69694671200606,0.012036901941528044,0.0032968120175940595,-0.01346390181081082,8.13
-0.07655343735858317,0.11663895583768043,9.794909739857552,0.013128480554647394,-0.011179883569145191,0.006473792108208415,8.14
0.09976017109597093,-0.23125010412753488,9.952544724520282,0.013848114481892151,-0.0147700788200375,-0.001588404992572397,8.15
-0.054111539107090635,-0.13598824132443169,9.616104694508566,0.005981316247792605,0.007995494456244623,0.006676038105616136,8.16
-0.035771144779693884,-0.05559871714705178,9.854245989157185,0.01357110078747979,-0.003974079972646239,0.011281671202199386,8.17
-0.10049361674218996,-0.03651763312606301,9.922375852722569,-0.009124438361000487,-0.010465499092797018,-0.01852834636423808,8.18
-0.2075986819008617,-0.012549387108147327,9.850654913615974,-0.008267214039615866,0.01579087142349636,0.01575656609755895,8.19
0.09448570590186543,0.08864963853459006,9.784070620343767,-0.006514558442944782,-0.0034783954089493523,0.007388342332531735,8.2
0.17741710336404337,0.045571777234011644,9.790215613581832,0.005482391025556965,-0.01059482429132426,0.00023780750687970385,8.21
-0.10962281531170269,0.036948479882993705,9.806807241793189,0.01301223834901321,-0.014909815250658327,-0.00419418593984624,8.22
-0.07422245133809513,0.04376187536110773,9.732070643319819,0.003950798768653206,0.008485998265681716,0.02498373104568994,8.23
0.13789079553823175,-0.0711000269840945,9.686099595019172,-0.01984626533038832,-0.00021304678409615708,-0.0047805152560315665,8.24
0.13945758034969005,-0.04361633358006171,9.90945785802756,-0.013728544897070852,0.014955086232633353,0.012285247451687947,8.25
-0.0121205640753917,0.1215913244034772,9.693536411476778,0.008167382277353386,0.00026105955779413327,0.0020970222695464802,8.26
0.17078941411802306,-0.005495163333864489,9.873250655715983,-0.00040062587490438824,-0.0004778718255085534,0.00734652621615459,8.27
0.16600020400653298,-0.023018288531462303,9.89133216666025,0.015809662742794616,0.01201760099850394,0.00510216644893551,8.28
-0.0257687857593758,-0.026780859330856607,9.683869033203807,-0.00024562530792345287,0.01905022293234836,0.004007086264139843,8.290000000000001
-0.042106789973499134,-0.1018341015064407,9.62194944760168,0.009892525580071877,0.020387349198944586,-0.014252677183781082,8.3
-0.13870127730551537,0.20761586288868814,9.721633862309318,0.00021302048353018588,-0.00032738880317180393,-0.008046545215483116,8.31
0.09320080087651111,-0.3049824013225438,9.7773784180327,-0.004128156424000355,0.0031075103452317954,0.0037568618135841265,8.32
0.03919462116776948,-0.008095530481765095,9.847683510084808,-0.010431169852746605,-0.0009849199448407607,-0.00041404453714681295,8.33
-0.00167958175144938,0.0510509448073648,9.993679758515137,0.007391472841012304,-0.008764554679300637,0.004194412215343538,8.34
-0.05345395616257651,0.013652544976528097,9.7483940308751,-0.002715417148846851,-0.016856130405719462,0.009629540847675276,8.35
0.08345710484061832,0.09199089509901169,9.989941620642746,-0.010551145187578832,-0.01219419499925658,-0.0009067459978360641,8.36
-0.009639890127980623,0.14468299889131683,9.845131087547138,-0.009961000122441926,0.002373580002818104,-0.010336529299165082,8.370000000000001
0.015571518361523108,0.027395894398553847,9.684765255168456,-0.011077719793498626,-0.015775334659812915,-0.00516061647219936,8.38
0.017875003557898558,0.102387559022688,9.967328191446496,-0.011472241190893866,-0.010871000538836042,-0.004891463679748765,8.39
-0.1886814360572683,-0.0994058516456538,9.907917059750092,0.019180698797116483,-0.00745486630997614,-0.022845829219838017,8.4
-0.09957896577009001,-0.08438225317080311,9.715355214425347,-0.00809389986144295,-0.0025301707040860065,0.008947031565578611,8.41
-0.02209844965493692,-0.0524042664127234,9.782208703361626,-0.015626303147884452,-0.003223617028072035,-0.006296623813400141,8.42
-0.03824394832269021,-0.02114154993063658,9.677520748182463,-0.005570841589061376,-0.0011667186358290443,-0.0025500464059512317,8.43
-0.14943749146745042,0.14075965464723894,9.818955229051827,-0.003128261712297737,0.009544226792636614,0.013791613006514807,8.44
-0.07240992197425415,-0.06970323581310364,9.712766467308684,0.010306488007721808,0.001801995532048956,0.003207851286156644,8.45
-0.1027459481891022,-0.001644702583658762,9.816133071664911,-0.0024747376936278902,0.00041562431701874114,-0.0015319962952088343,8.46
0.08937510807447065,0.12922926232365683,9.795758702980057,0.0021476802204515376,0.0034254553066686527,0.0027496534948898677,8.47
0.042024223633084376,-0.08682279381258004,9.834019470949418,0.006459893836549782,0.018863086994401323,0.00789196474348433,8.48
-0.12193610078144422,-0.060548711562174395,9.813710679755841,0.00226233171543374,-0.008148843187594046,-0.005505543263694908,8.49
0.1077468281155455,0.013184922936362642,9.746423246418205,0.013781864537308263,-0.002213873263148932,0.013685254880476743,8.5
-0.024725360884916902,-0.055538403495694055,9.858511136802708,0.028071895369232776,0.010591510485253405,-0.019936883163732398,8.51
0.008462673029205432,-0.23704659124442218,9.684712888379549,0.0006225892385151958,-0.005199093801147109,0.003290769657834319,8.52
0.10315302727868036,-0.04413272314083162,9.841989268171154,0.006387704146102722,0.00820422298169274,0.0031683924650188584,8.53
0.07256796679552742,0.05324526424638838,9.912525475856766,0.015568920346427486,0.0017153855889533985,-0.00758841675042744,8.540000000000001
-0.08599313174995554,0.015381383746181573,9.811308893906672,0.00507611654771666,-0.006488398860504004,0.009227494074030411,8.55
0.007861567660372874,-0.1369034111136085,9.619961008657917,-0.0015531933039024106,-0.0024223191848918484,0.0006151821710293369,8.56
0.09035948183611521,0.169644720601281,9.932399610823571,0.016646001560156783,-0.00516096151895872,-0.005016215457091412,8.57
0.08850910274261736,0.08462065528801595,9.872763859011137,-0.002843682153359432,0.004827100669730913,-0.0010857286614053363,8.58
-0.06155282169811574,-0.2293636158134613,9.65081977967704,0.018950427611250216,-0.006964021312303228,-0.0012886656699566163,8.59
0.06109388079056415,0.06383155706877659,9.903737161849296,-0.0016547027718045138,-0.002940060863057548,-0.006009292530597377,8.6
0.13565897567582325,0.08662592977522633,9.80868831064908,-0.008388234464716765,-0.0013454197213188684,0.0024935372858745854,8.61
0.10046967875548177,-0.14270770251232687,9.938237571466292,-0.008473985081217349,-0.008809857937974808,-0.006390127143121248,8.620000000000001
0.13954811104869486,0.19957609976822355,9.816071571368573,-0.0028686364177651865,-0.005886820441330109,0.0011529881997616506,8.63
0.15433279855114143,0.0730803025638716,9.987200070188191,-0.0012523044022684107,-0.0014246026290619263,0.015270726139919468,8.64
-0.13185269693405263,0.006931400659194176,9.740008379949897,-0.006112964044618378,-0.015179915329914183,0.0015764978580355274,8.65
-0.05838241617783429,0.12892893898577168,10.09615474995059,0.004052200696773513,-0.020558766413602655,-0.013479010589711718,8.66
-0.13901053646283143,-0.014735906506571118,9.843842677704727,0.00443471798105785,0.0018371910266627945,0.012082890037373513,8.67
-0.015907411436877152,0.17860355687498666,9.880224862457043,-0.021574921709774562,0.00513554943611137,-0.0050066850704441465,8.68
-0.03832852439464313,0.09164096264651968,9.842937286652694,-0.004186462787114489,-0.0014317492057038912,-0.002940321199721112,8.69
0.04652831147658787,-0.032402044947527874,9.993667079597234,0.0013339662093945946,0.017584393811832934,0.011005093808286997,8.700000000000001
-0.18458585797621327,-0.17755071004379128,9.70787548859249,-0.016468374724817044,0.006430728853231034,0.014394992336157748,8.71
-0.08651431421868727,-0.03845300361240154,9.798076837310616,-0.003078477367364131,-0.00865321330584882,0.020652161452726667,8.72
0.033316746945123266,-0.022630342773701448,9.958976751371964,0.01538796951604976,0.017209083042908517,-0.013428008659576298,8.73
-0.03622062757991211,0.10465658961468549,9.805871165549084,-0.014659287745674444,0.0013868457076540608,-0.0013488204268678745,8.74
0.031083342905841,0.08529474083622195,9.77768386951026,-0.0018355863401519595,-0.0019221277559316559,-0.001680557197464112,8.75
0.1693560605717808,0.08983274936525548,9.760811146516977,0.005783292298648148,0.009709895003787519,0.006119990137412841,8.76
0.02775595910551841,0.08824751976534946,9.711457656300384,0.007404010841717033,0.010570531001695612,0.003927611556240127,8.77
0.02769006638252593,0.003929399325074679,9.930308690144894,-0.018357734031667235,0.012288928539761799,-0.0038718430703146988,8.78
-0.019438478942284513,0.1015490260347049,9.841106877537847,0.01277835790318365,0.007513230464113733,-0.016964691834483684,8.790000000000001
-0.15650673423364195,0.2081989006555295,9.906424291660267,-0.016955870630468592,-0.0016678937339120426,0.014211315992198102,8.8
0.17516087149882964,0.012590295017700948,9.689837396413473,-0.001007508001535227,0.0015548410226363574,-0.005771886068418084,8.81
-0.06514907814723268,-0.06905775245631611,9.798386533796556,0.0013973827543830096,-0.004116812306692039,-0.030947971274885508,8.82
0.06290029312395401,0.04626659318659227,9.647127574361965,0.009171910457561376,-0.007687513391555147,0.012973916509024182,8.83
-0.16579907912801384,-0.07837448857407303,9.66734347491326,-0.004400776174161423,0.013903257307109443,-0.013548334476297628,8.84
-0.06384625570240997,-0.14678315708094242,9.849260156530157,-0.002783098648965072,0.003078082851511704,0.01394922910970069,8.85
-0.025334666567665316,-0.01834633505056146,9.67599506649785,-0.001049683608358315,-0.02180300565193174,-0.0012169317787274398,8.86
-0.04195061990374424,0.27525729054885834,9.81433437765526,0.023800651288872054,-0.0019009672217238864,-0.0007628764413650909,8.870000000000001
-0.2028467668231631,-0.02605760460939956,9.86965343384746,-0.0172474790285344,0.003899394267582224,-0.0037185768869669455,8.88
0.03848084523772946,0.05614901206197917,10.008598049417987,0.0075890624853893205,0.008042409941608084,0.004951098992566931,8.89
0.09402241177065584,-0.09481335718098248,9.906079575374745,-0.011240046333622158,-0.004865774972255666,0.01487510448939412,8.9
-0.07424673219523283,0.08064720574937467,9.784818075605964,0.0028028583656818703,0.002959446764844014,0.020275966516372364,8.91
-0.050656476719055654,-0.06795714139455646,9.79776578531719,0.0022274422382156755,-0.008886855900935556,-0.005824335732762191,8.92
0.02251621290669175,-0.07740553540445005,9.797465132956127,0.00029879450541255053,0.008614852230491807,0.0035217792747114286,8.93
0.009950959580800117,0.02408920509345497,9.822089998624492,-0.002245171765158531,0.013043852490964411,0.00703538529628639,8.94
0.0134882172080598,0.0657878361893866,9.887723663063209,0.0030626953086588327,0.00831475349840584,-0.004113797813783631,8.950000000000001
0.02459682538100931,0.022784620645940626,9.90639557779948,-0.0028270625588165854,0.013520006657653044,0.0008711801362205041,8.96
0.08090137437707595,0.19688502396652116,9.857143157545925,-0.005619986707736217,-0.02133046786162511,0.0010672272052951923,8.97
0.11262673858351856,0.07446574819271515,9.748832071699606,-0.01449079770487567,0.002928300276804514,-0.026098732929666215,8.98
0.05452397430363866,0.029093312866973055,9.779750608232362,0.0076059526169079345,0.009365090342615758,0.0012286288720361029,8.99
0.054448977148154235,-0.1117487823316536,9.635560752887745,-0.00469191369513972,0.0046058639725962474,0.0100749926617888,9.0
0.3302251912642803,0.03878633075066531,9.84941383462399,0.009274840031449886,0.008521571059403151,0.019763026443547195,9.01
0.042872183687517884,0.02721674684028413,9.765694882341963,-0.011372730747710105,-0.0031597401918487594,0.01801896241192864,9.02
0.1731601864383898,0.1987943182161538,9.698652212157521,-0.002385260430095207,-0.018214931817565092,0.020300926459290717,9.03
0.034929020915049666,0.04045948775725114,9.706535077743032,-0.006185555284927312,0.008771702357148019,0.005232589894851104,9.040000000000001
0.018229484273817376,0.05654081623585894,10.059420176249567,-0.016503121218476823,0.008096808594764145,-0.004876050795521255,9.05
0.08816676606038276,-0.12190541949171772,9.725543953893098,0.019732275477688747,0.0010438126198477507,-0.022807790678215475,9.06
0.11628372999326125,-0.4020262906776417,9.870068205666781,0.012104746625971748,-0.00037093022691893894,-0.0034560576018545647,9.07
0.022351858418508674,0.09500254051412951,9.793449811470248,0.0015973536368550012,-0.005606840896995443,0.0038452157105293263,9.08
-0.034889600296021665,-0.1475998760898261,9.808046137906627,-0.012885555775883208,-0.004104176345378541,0.008157065372299332,9.09
-0.14441559332780393,-0.05910656319283034,9.76987759559,0.012915398265840854,0.01472310607377521,-0.01992267085319366,9.1
0.0623643877637432,-0.03659505673965617,9.836356732067282,0.009988173146125203,-0.011191444851858905,0.0010974460855293605,9.11
0.044284283327005416,-0.0010769242754288617,9.845972334246712,-0.026735838150700648,0.0003609871197348694,-0.00039872236819565523,9.120000000000001
0.27566943954887996,0.04598003188626252,9.756612296465274,0.009357750073278532,0.01575623356051658,0.00782849046413404,9.13
-0.02013275149046043,0.1282308517766467,9.797072290217852,0.012537331636266295,0.00153546854265968,-0.0022594693438417308,9.14
-0.043579452978093375,0.0444989822821103,9.723477536215423,-0.005026842933230334,-0.017991075055868215,0.006328328049689892,9.15
-0.09024521252647492,0.08185246720653756,9.91435788613213,-0.0014456011605988807,-0.006823619610001925,0.004470442570212657,9.16
0.003182520683619457,-0.001731620487157798,9.80097392884275,-0.00376576268429778,-0.009287360184001036,-0.012653713275661472,9.17
