ax,ay,az,gx,gy,gz,timestamp
-0.05097545581043433,0.03933661226182206,9.7841199630682,-0.006846676648296138,-0.010839985623422818,-0.01395715599474925,0.0
0.1522191273384888,0.08262628292280022,9.703218201341798,-0.007614782121705333,0.011644797765014267,0.013414348997050326,0.01
0.12017194709887523,-0.06020313837800877,9.656679615409898,-0.006680964375557492,-0.00810923937876759,-0.011754005967218734,0.02
-0.14993716223937925,-0.05018449476860182,9.457386311604784,-4.6019853109556686e-05,-0.0035069526603871233,0.003961614757457858,0.03
-0.03180887777929225,0.02954546123081822,9.954290339664407,-0.007858504445176159,-0.002507642485682065,0.00983330426802184,0.04
0.008401558819369602,-0.12866356423008707,9.758012982282706,0.012613151954088492,-0.0028830398031932146,-0.0078103577929110385,0.05
0.02378728576773151,-0.2112301279448705,9.849988592403443,0.003975432832120121,-0.00695849350785043,0.02050769870156946,0.06
-0.07284770549320678,0.052795684356579956,9.998499211527362,0.0186664222346342,0.00525765485893716,-0.018451035184093172,0.07
-0.043300588076723295,0.00882526161686844,9.834486451952811,0.0005106343739021062,-0.009130511561037922,-0.023962767917748616,0.08
0.003343847090113823,0.034460364004100554,9.78442799367178,0.015581740466890193,0.0001015603703390399,0.004273611925365209,0.09
-0.06791841304962408,0.06647373191679433,9.811781758194591,0.0005170442370678501,0.005569800369877333,0.007440213701455395,0.1
-0.036139286134716724,-0.09906026007468526,9.73624772085406,0.003340366304079431,0.009671944185425793,-0.007774632791982892,0.11
-0.15821254631522572,0.1076626998535345,9.738397001865703,0.009333883794744173,-0.003943324803422983,0.002587304157162903,0.12
0.18594158268640215,-0.03797041692931091,9.861492819034506,-0.0001509536706177605,0.0010988575374634368,0.0023696863620599018,0.13
0.11269720910506008,0.02091525680596053,9.881651914514796,0.002854184699132521,-0.009106749556461582,0.02919928397435884,0.14
0.1667992707399525,-0.023784845165510392,9.802782633557003,-0.017644594115945506,-0.0014006293320889586,-0.004681872707169874,0.15
0.1760828591611964,-0.10093849492578073,9.931499409418068,-0.0018904599995333696,0.01010351372264557,0.008167708552027812,0.16
0.04046905300515123,-0.20805155848002826,9.816833732559514,-0.0029361644427644373,0.0028884166773859767,0.0030205807668131097,0.17
0.09036621784586624,-0.025470991167340962,9.846622701662097,0.00680265987058926,0.008084614376777863,-0.002786424686468594,0.18
0.07766756000232743,0.0023220546271568256,9.841478838055458,-0.018606280225241464,-0.008777149136971956,-0.025176600027934228,0.19
0.04678246439998222,-0.17412131111596368,9.843580338070318,-0.005647556739805269,0.0005325679229592922,-0.005976505429626173,0.2
0.07342951544951612,-0.04171353819552173,9.795884447773739,-0.0009947331125049145,0.011060973963726935,0.006494114007599528,0.21
-0.02270729490265915,0.05382793809886785,9.759927562039799,-0.003636169230560968,0.002808135961785047,-0.0013544067163729512,0.22
-0.05862347023252125,-0.06330605931385735,10.04413697978951,0.008775355825850933,0.009550358782811083,0.00045624205851542323,0.23
-0.16698583939018155,0.05118825230604044,9.924731401627847,0.006541677577652882,-0.010207497834532224,0.01660356904480521,0.24
0.13908071351626794,0.10596876364182546,10.039198330660962,-0.004399151689993723,-0.00796885674531635,-0.00600746364962859,0.25
-0.07610975831774262,-0.04761568147504423,9.807046178332072,-0.013397605864331844,-0.0001617475201255726,0.016010048193574693,0.26
-0.14743675834832956,-0.05613939613423183,9.77225105147476,-0.014970582826207413,0.011903981918194908,0.008653038543509723,0.27
0.12304637501436314,0.03720675202182553,9.981176887506383,-0.006589083412903321,0.006276762447447506,0.009100912550403562,0.28
0.14684205504177555,-0.010660689112738923,9.78578635271169,-0.0047550298020848075,0.0019156162815132229,-0.003091843925411548,0.29
-0.050871276591202885,-0.1330855740309914,9.98978376857979,0.000594611530450508,0.009338691711939745,-0.008819640624559697,0.3
-0.10197552243555502,0.025967623433328896,9.760423789908417,-0.007711373255482248,0.011534202199020916,0.0005918851529221239,0.31
0.19815202045793218,0.06533166205795975,9.987568203000725,-0.031354910316671536,0.02243769721748417,0.005813245208603417,0.32
0.096587805898498,-0.031735716408828676,9.707178675947453,0.002507211798529452,0.013795178377565297,0.014779434023347396,0.33
0.08537205274803118,-0.12140798692120901,9.620596535743298,0.00420672663550032,0.005353225229813119,0.011472532161094989,0.34
-0.07768946532121929,0.1352802213984198,9.814256663656368,-0.016408324258992458,-0.006912024739898939,-0.0133132227333118,0.35000000000000003
0.06117332255111412,-0.026252907334551462,9.686974961035977,-0.0035334321719715125,-0.01474874772785924,-9.045051192275954e-06,0.36
0.16722028242260872,-0.08314284031985258,9.827945349213811,-0.008766517944928819,0.003965214654118554,0.004390197684639391,0.37
-0.021560362614373503,0.002083672121336552,9.808595182320994,0.007907784116097183,-0.012249439054142882,0.0035554247600480056,0.38
-0.08263401565714816,-0.23170372102809558,9.911638131681649,-0.003724303390402608,0.014034623474268744,0.009080592918140689,0.39
0.07105844908911012,0.15136521863570665,9.828667171679024,0.013336047301563935,-0.013751549037232844,-0.019662478261212216,0.4
0.16071907168862853,-0.02186456163712126,9.798999472844603,-0.005472866717560913,0.0033370773169527764,0.0006950601735700006,0.41000000000000003
0.03144737624502783,0.13808711540554777,9.852911574615902,0.0006157995895533556,0.01501067569563449,0.0006708907999220887,0.42
-0.03153553982240153,0.0900487185986853,9.911793871360663,0.007228367086302375,0.009442605445240738,0.014053840707777418,0.43
-0.05444242789354761,-0.011326005446236926,9.820516820916104,-0.0017088505621223715,-0.00041464349146920466,-0.0012509638028552767,0.44
-0.020459487425984968,0.0777930725135167,10.145448089101583,-0.011542861881569885,-0.004241432497344539,-0.003349436186595705,0.45
0.17203418292864137,-0.05972193299522852,9.858445311788564,-0.01223978297531851,-0.012376091022655902,-0.005955891450508569,0.46
0.06830454819791797,-0.0721792568054241,9.90673267261017,-0.0007293385849689826,0.011860892289348356,0.0004136422420870895,0.47000000000000003
-0.008376086535877418,-0.020776650205244614,9.875287666085207,0.0068673146115317335,0.011920288441149443,0.005905508561406971,0.48
0.009440175897744315,-0.0200394656861761,9.840083108337877,0.00996421234913097,-0.007824827678413136,0.008959060092767897,0.49
0.01476033555174696,-0.014972835388557749,9.742541427234597,0.007442192473203471,0.005165488407966886,0.002678858259875443,0.5
-0.06189222314681539,0.06207897221939799,9.862261164741572,0.005063483996254373,0.000916547657101932,-0.008045791221296974,0.51
-0.1623614177552257,0.06791935563757885,9.83426832810681,0.009320555989879744,-0.00023138680774698782,0.017550003564172474,0.52
-0.1258167632908118,-0.10781547165124522,9.933143556298768,-0.0013272854528262603,-0.006106236185620011,0.023561288201161688,0.53
0.0190365089972031,-0.05338594272397001,9.729594655399575,-0.011601631746486365,0.005442517517121623,0.006805238702726399,0.54
0.20952016435792215,-0.05650045737694967,9.88925195967283,-0.00010761285776081535,0.0026506858371310683,0.01445856840013371,0.55
0.09799165783166362,-0.07977331303139878,9.761129746351079,-0.001153526123521604,-0.0031183455961518464,-0.005860273489849481,0.56
-0.08607911062387016,0.03389428974681057,9.902047533076047,-0.002399896784331681,-0.006765495306364056,0.022244897242762966,0.5700000000000001
-0.06427950708156367,-0.11226243148793272,9.845379933833229,0.007547997161373867,-0.0008763894813623767,-0.0018258953708858094,0.58
0.06644630522813522,0.09194567618682098,10.002192025187401,-0.017864228505717922,0.012263741960488978,-0.015001212026047341,0.59
0.18923122980974674,0.0363328581206087,9.742532836293101,0.00652173438247169,0.0026170196783063294,-0.0031166136276922765,0.6
-0.014956223479569215,-0.08616286223309537,9.675991095977746,0.00998325108401699,-0.012998272997121101,-0.012311607493268782,0.61
0.19082677272585225,-0.1240929904503588,9.877297329801142,0.0047961603095550654,-0.009509990382344994,-0.011485293297397661,0.62
0.0010059428400219451,-0.033831465699830456,9.881825089535079,-0.010577441616788412,-0.002735198757484024,-0.025828486838672546,0.63
-0.0009842377007104133,-0.1244253401593833,9.586880738841007,0.004704333508618163,0.009863883700856441,0.00456923980451101,0.64
-0.00449074085881553,-0.19381496309252394,9.885268191177566,0.011333980268668796,0.014747122808542108,0.014468775165551855,0.65
-0.12275580747049684,-0.19747577051132545,9.726616018205936,0.005052290555894715,0.0005776199913083635,-0.007569897028921885,0.66
0.11968297971524045,0.14257627659742575,9.774591191742706,-0.002486408068672368,0.007061970182131753,-0.003780805874030382,0.67
-0.021714491528483888,0.03044589033262345,9.852241192354137,-0.020309957797944395,0.016857432306473054,-0.011219530559066661,0.68
-0.11878808410858861,0.05307386061090106,9.823814339903404,0.0026352401680801722,-9.886924750738635e-05,-0.0013433557724488426,0.6900000000000001
-0.004210025019448176,-0.017603815059479038,9.72098015394712,0.0013912309531437142,0.0035130932132197176,-0.009740638036386284,0.7000000000000001
-0.01768422468878977,0.1338209864624136,9.802329227573807,0.0006326056835509645,0.004815630759292496,-0.005530442553477442,0.71
-0.19770443985577013,-0.05370626473705331,9.824146546340609,-0.014428555875553518,-0.009526730472945269,-0.02245220292807602,0.72
0.09409084174423221,-0.07841110044394725,9.826505530514114,-0.005216457765960316,0.007981569799930624,-0.01787721492846834,0.73
-0.1378277441972775,0.0072416026575942306,9.738711394243735,-0.004822114493560003,0.004408452950654143,-0.005268155933840514,0.74
0.053405955847371595,-0.033141926088433735,9.64803242921367,-0.006527850153871389,-0.0009942025401726159,-0.002199912831360884,0.75
0.14030944066104495,-0.02845151114120449,9.785154747925496,-0.007696111617824542,0.001028535774525234,-0.010050905370775668,0.76
-0.020558968004761598,0.0450774698564252,9.751549434512917,-0.009142941457706976,0.004707794786134732,-0.0021725131719125936,0.77
0.10527254417020047,0.0871146012730673,9.917956241697974,0.008699224352318773,0.0011053274909504373,0.014056596998198759,0.78
-0.04568666081243793,-0.01412974659106743,9.735674525800016,0.011370149975514164,-0.003508016732544068,0.0050851450635627906,0.79
-0.014129267375059746,0.08985485321314624,9.749714311616462,0.018583579355276537,-0.02020463664364409,-0.008374379527255366,0.8
0.07065759479135986,-0.02620702048742703,9.747399805260583,0.000645773144177283,-0.014778609260262211,0.004837989771240165,0.81
-0.027964045778165598,0.010833947446655404,9.859145703400253,-0.004198017578928033,-0.011611725392725886,0.0006941943415060399,0.8200000000000001
0.059951784834922806,-0.0943445421257828,9.772854099699748,-0.012478900353051232,0.014739780093900626,-0.003613529490236795,0.8300000000000001
0.15571138656686212,0.0031544944982231276,9.95157673050898,0.002632519164456623,-0.006195400011897856,-0.001861190378416624,0.84
0.16641259925363375,-0.0872296545230262,9.833492569983314,-0.008080176764569937,0.007435496149813639,-0.004330172920916366,0.85
-0.09651247047038221,0.04421398765645842,9.824901159744062,0.007041902108523099,0.007098428917034204,0.007148272209650022,0.86
0.17169464265836154,0.017210408979427504,9.938561347838752,-0.01169778750069146,-0.008385767365052617,0.007199111726922712,0.87
0.10320221540301984,-0.008871297967606667,9.709944824313814,-0.007711390001805488,-0.004322245454166594,-0.012589987069725644,0.88
0.10091968284272378,0.038886623544754986,9.805153578051243,-0.021710223126115924,-0.010890395355562505,0.0021261557441814762,0.89
0.11553731406065931,-0.04507985024130009,9.80429119427324,-0.00216162072337093,-0.030800336829108457,-0.00768361434032979,0.9
-0.0806927731985034,-0.03447381975019822,9.842751609092167,-0.012914265475442348,0.00036165177243745726,-0.011012226674942354,0.91
-0.08022470557725972,-0.006463864417454581,9.680824461259729,0.012388795089672158,0.008613263494709575,-0.0020841825681519118,0.92
0.0010523877268630848,-0.08717906575675216,9.731535595191348,-0.009537242677271225,0.004735301808053236,-0.002769618553756066,0.93
-0.1072362651756365,0.1734585996294275,9.839061449866838,0.019097258506624727,0.010825657721838789,-0.01086782957676853,0.9400000000000001
-0.006131150851513615,-0.007061644292766529,9.776564048631284,-0.004332293242573608,-0.005483299484804908,-0.007776506815660475,0.9500000000000001
-0.14098423407555372,-0.07599114679308908,9.783394055917665,0.007017824202240793,-0.0019251319412150068,0.014228162507459572,0.96
-0.015729209992574527,0.06070351096421598,9.70658639825533,0.004527911863201825,0.022669035560044428,0.000440866143386406,0.97
-0.13071412261989931,-0.0014222554329712514,9.890484668814487,-0.002929665578568891,0.0031032192927267907,-0.00029338428774863866,0.98
-0.043967352991387376,0.24649965863222018,9.896119086847987,-0.01410771449323952,0.0038127025640386997,-0.0029599590804116785,0.99
-0.032918630853852875,-0.08722412495314857,9.907915067543877,0.0016062875015609643,-0.004244988798612277,-0.0031768850539723933,1.0
0.01797300462103064,0.04639449698964554,9.835126199034413,-0.009206425698476715,-0.0010459772094117176,-0.016245490944246183,1.01
-0.06186123674201525,-0.12449645426480248,9.973379418665695,0.007118997883443503,-0.010327563499022743,-0.010273217309945511,1.02
0.20306866013343194,0.09522014196219046,9.847887142238308,0.003487784653718729,-0.0007198266886733011,0.0002207505209387932,1.03
0.21563443287116982,-0.03580010496495472,9.85454073412618,0.0011351198005429654,0.009063992695018284,0.011972764945488186,1.04
-0.07368853830238356,-0.0576668123713522,9.686618798396577,-0.02548554879201376,-0.007494597489254924,-0.010850338741444358,1.05
-0.10830966596254557,0.1253590547477181,9.789509292800629,-0.0020167333570849755,0.005287206204875589,0.013403665702473146,1.06
0.015410515232305312,0.12905292970478108,9.807530412084242,-0.008335924051093622,0.017405872715367074,0.0012185302602678663,1.07
-0.12252223255251218,-0.13892894916448734,9.710136954395212,0.0027146380269176067,0.004397872528301396,0.011399071264824374,1.08
-0.07183719089263212,0.1546051919208443,9.840357564266936,0.006379136502575116,0.013425869470337491,-0.009804666323753245,1.09
0.000632902959747732,-0.05570764107049332,9.78726963531464,-0.0178859845950681,0.012009273512938958,-0.00473123069630914,1.1
-0.03749025584351071,0.13181394657709913,9.884694139445608,0.005204060841110327,-0.0003171879458512948,0.009036740605242405,1.11
-0.08397445035792712,0.08133551276047772,9.738107054974714,0.0007257478535248042,0.003595832367615449,-0.003604919238995411,1.12
0.013713715934055796,-0.10524832560243545,9.879924926893173,0.011282797147878429,-0.0024106143276086713,-0.007110455935006623,1.1300000000000001
0.23902903770008105,-0.02664783319526185,9.889690293035168,0.0023352902396720364,0.006753515977529239,0.0008223347623559017,1.1400000000000001
0.02620267109146997,0.15685983393354813,9.794840742086645,-0.0026715618204145213,0.013481111720346689,-0.005303614384874693,1.1500000000000001
-0.040199003068202226,0.06806088724503272,9.801535974272875,0.0017812301356991394,0.008112775664242065,-0.010078786546582532,1.16
0.15672826393656092,0.12827923532700022,9.74280915210775,-0.0030183649099057358,0.02090798393691141,-0.013121490261692719,1.17
-0.012840859500505465,-0.13629299477467746,9.814254615705238,0.011370943751757635,-0.014978592287759026,0.011269945001495777,1.18
-0.08268403133441767,0.1674615383926356,9.839728031178158,-0.0021111136505959495,-0.0022993790953372,0.01983128639469863,1.19
0.05158987375695437,-0.0059106397023558944,9.783790237693395,-0.004686878972474243,-0.0040113877325698615,0.0018033279544949904,1.2
-0.06710570065757944,0.04469767745229125,9.687113757410296,-0.0054600562355197725,-0.003510942045904283,0.010366576195890502,1.21
-0.038353921458462864,0.23066865020682356,9.741683560454591,-0.002715331088773252,0.0036395891779955254,0.0014612959963930478,1.22
0.10383211899509548,-0.0032026791397910454,9.82462993282109,0.009346544165171458,0.006642104994662671,0.015328349271474086,1.23
0.0943812585814882,-0.03133107637329232,9.60276330433407,-0.00937846225243734,0.007375525097233567,0.006898574249315685,1.24
-0.14088840216819937,-0.040579456232351506,9.91064957811242,-0.006815877832300817,0.005891403770624751,0.01305189038734983,1.25
-0.02880072508206198,-0.03918849094017364,9.767764608382329,-0.0183247728582597,0.008727214367801595,0.00014033099083323177,1.26
-0.18789873124950116,-0.037678372006136995,9.793932636524055,0.012868679076584455,6.504537923853594e-05,-0.00476291697251086,1.27
0.17674738610008245,0.10068111330794859,9.798888971303414,-0.007441561297987132,0.006822552699803515,0.0076715139959403055,1.28
0.012408524504207959,-0.019400907244297567,9.605673608016652,0.010089928618234172,-0.015142565459459056,0.00010004628194048464,1.29
-0.0545737287378182,-0.10387399560386752,9.633355553951167,-0.005065754573965504,0.008046430997164056,0.015030372350409691,1.3
0.1591062646707761,0.039115623022116325,9.891835943787106,0.005626070113349544,0.013261806324221099,-0.004750593198182123,1.31
-0.05505341096532437,0.07940884170796024,9.97203737764264,-0.008114772235203934,-0.009337214829723023,0.004508316900643537,1.32
0.01997419064057883,0.08808310574542463,9.843974214725213,0.00015677147622551494,0.011948064051029614,-0.0029016199523841098,1.33
0.16015070685810878,-0.06512559182426848,9.772017968754197,0.0084136018805545,0.019751343306490074,-0.012098471701366078,1.34
-0.10220449272559498,-0.23627355212550835,9.692579189301219,0.014672980219092064,-0.003361373445772907,-0.010157989598429071,1.35
0.05095191054446568,-0.07882873818832936,9.848058125839524,-0.01359216159603054,0.0026832729706414986,-0.007375578148636715,1.36
0.13889202267882347,-0.12495252850756929,9.711860348971763,-0.007341459968802347,-0.012237811827713881,0.010547540816326181,1.37
-0.012669377358648768,-0.041760423548942834,9.997998225387919,-0.0007115820943606751,0.0026039073056105294,0.008236904960456762,1.3800000000000001
-0.02768450723035062,-0.28341323078304825,9.762352768238998,0.001994387138422186,0.0001555032904146,0.0016710814752773358,1.3900000000000001
0.024317433434464224,0.06816379507753713,9.519362815142054,0.0011858479691113303,-0.001294706157266039,-0.01140767500853581,1.4000000000000001
0.16101964133867327,-0.0036620774224592114,9.848881394902326,0.013612127854476476,0.001211749242288265,0.0017960333965186723,1.41
-0.18652075627326678,-0.09604790398448938,9.670591733625127,-0.00022389799895880102,0.01627041664173046,0.005102086876579506,1.42
0.06347145683519949,-0.04566833361494432,9.819620418221112,-0.014453457974229303,0.007604576812361842,0.009885291584579826,1.43
0.0743162485158008,0.033121454354755955,9.844931170435679,-0.006914989167692117,-0.005618847708490185,0.013833397542466666,1.44
0.08008129883522117,0.06777034711603706,9.777867882494654,0.012668232712269308,-0.0050532513972611015,0.0007741692963336429,1.45
-0.01710305343231872,-0.12196463228189292,9.780797490727217,-0.0018360392024461712,-0.010806069800982426,0.001001264492831806,1.46
-0.12273654329237293,0.1511914300088637,9.906905039929121,0.011344099386813338,-0.0018426302926597402,0.009320602236903081,1.47
-0.07832782195952609,0.06288518596433851,9.813234112069088,-0.00987167387616191,0.004610866195594155,0.01604768572977999,1.48
0.08239765526743781,-0.08400997359535879,9.716225297643776,-0.012028801096128082,-0.00451335239497592,0.003650237145153143,1.49
0.05771319421050421,-0.10269637361764608,9.871759159748834,-0.002962887918905288,0.013272533319147923,0.002763690655094623,1.5
0.10077000137637591,-0.056920943614108904,9.721328067877206,-0.003699519061521932,0.012569520753025925,-0.004262932814311838,1.51
-0.02462661088242767,-0.07475711786908967,9.847704736770883,0.0003963030727341994,0.004329147076864241,-0.004663796478927724,1.52
-0.011830642456440832,-0.09218157230146622,9.665245934598092,-0.003687472482483415,-0.015695139698523836,0.00350491147012042,1.53
-0.1457928172653258,-0.1330591839731043,9.792842117591983,-0.020268204010306188,0.005295281614984827,0.005155461515050551,1.54
0.05658784456091699,-0.05434649378302712,9.810492156041256,0.00421725270244249,0.007156300490407225,0.008140217908100692,1.55
0.07515735246903028,-0.06517542988786883,9.724181456661878,-0.0031497780030480885,-0.00040992420483202454,-0.015439685780628844,1.56
-0.009553108094231473,0.0018070284269850988,9.888657827943995,0.019208663812186715,-0.0006969332472667042,-0.005770271704671074,1.57
0.14511322626457476,0.048950035336801936,9.75186493489504,-0.0050390107633796035,0.015927528529813086,-0.0025668688455893073,1.58
-0.030118618441326628,0.07546031237917594,9.666381283595285,0.00017799306193723105,-0.007895433048435116,-0.02301088224594975,1.59
-0.10614296577312926,-0.10451044158807987,9.88969868548219,0.006422468265784037,0.010600375980615384,-0.00196148223217246,1.6
0.03819582694377368,-0.047549996323257036,9.688189547863677,-0.0042601176793545395,-0.012820463024152207,0.001662505911806278,1.61
0.058120559495692364,-0.08627972351114206,9.973166330815324,0.009328539230065483,-0.0020493616549502095,0.0032595952962597547,1.62
0.14914823079797682,0.021845786866818952,9.959796103240173,-0.0160683117679715,-0.010793489416608421,0.0030635663159115658,1.6300000000000001
0.1366080634772469,-0.08140335534706128,9.734549331702,-0.0057989324518871645,-0.0024782037416208238,-0.0010372465461845244,1.6400000000000001
-0.059891833329612766,-0.15294262517650267,9.929719752506633,-0.006782851280066969,0.0070569112647156556,0.0029704855821360344,1.6500000000000001
0.06586589128792701,0.025200000740440383,9.743721448783269,-0.008189319643401671,0.008519719945469253,-0.0067271241710914875,1.6600000000000001
-0.06719745518774907,0.07847563067869318,9.893768429379525,0.0019153539470372044,0.008286966014802517,-0.009102740271652242,1.67
0.071375345207977,0.13207795529363947,9.94301490950029,0.010459767462593536,0.0009472709132007045,-0.003802404382373587,1.68
-0.1272754737698066,-0.030625391844831058,9.579934963475596,-0.009311788613232787,-0.0002736354892180595,-0.003349657775510257,1.69
-0.03195808225804846,0.14860151368484698,9.732321348584762,0.010664940933605269,-0.007452121847240224,0.00042304133292662776,1.7
-0.08264785507754403,-0.10205273155632395,9.931805024336494,0.007751608326625886,-0.002301644198928949,0.010832889243377901,1.71
0.08462517216643012,0.025282876912356096,9.802050191250736,-0.001465621409876812,0.003117235750327748,0.002907182945603473,1.72
-0.08950583697593961,-0.009856260705922939,9.76146700657182,0.0054194862426680335,0.00046350875057922123,-0.0048522235567920406,1.73
-0.08854786891771971,0.06666670995339176,9.952358189223373,0.0077558763480696956,-0.011563458860277135,-0.024748262572911146,1.74
0.12937102598503078,-0.016106657834060092,9.834035401093328,0.01454609523977741,-0.0025241364979183395,-0.0033145319813938055,1.75
-0.04392931976502662,0.021384536471944417,9.828161409663096,-0.01746068765019473,-0.004942321884586925,0.01049368402444061,1.76
0.006151673443795639,-0.09560650941423238,9.954959516790856,-0.008624730732834686,0.009724650772219139,-0.0012629204675787835,1.77
-0.19170216756208697,0.0655753872211655,9.956274677980604,0.005847454336520321,0.0073234877985002365,0.006647267798926322,1.78
-0.050138314825581155,-0.05034547902756316,9.78831875410003,0.011037003953257206,0.011626509808796393,0.0020045648134215956,1.79
0.06058554255867802,0.026087765799537373,9.824889789775922,0.010198554475974198,0.0015973885272043775,-0.0015973427611413636,1.8
0.02141698925751312,0.1201857214123072,9.711723983328628,-0.009866170460697283,0.008219174649564724,0.014454031535744568,1.81
-0.16931771861891198,-0.06706749746646509,9.717989205161151,-0.0069644642940144795,-0.007669683637018288,0.009472196332256247,1.82
0.15098258745696586,0.1642739251713775,9.894657628328646,0.003501377508593363,0.0004889731638961486,0.013429619634027466,1.83
0.0749879583417837,-0.10535189600499335,9.778938902636458,-0.00858021182082205,-0.0006596976227949872,0.0043981267027493,1.84
0.029836197762072855,0.07737155614887922,9.78599803712045,0.013841031955062751,0.00045309644234799515,0.005027227641939765,1.85
0.1029374526800063,-0.0015975361921237098,9.877449520436695,0.007218942007792069,0.0027939250792105392,-0.007664169366746844,1.86
-0.0691187795892909,-0.14217724802613038,9.743911275013705,0.010574963333317828,0.006732802968870497,-0.0061550818916237425,1.87
0.16143018151251368,-0.017383684688582993,9.845329912152392,-0.017224226145032936,0.00791603868393,0.01284875418045329,1.8800000000000001
-0.1404372496069872,0.14087802730582674,9.822933959213984,-0.0002769972491238768,-0.004507010069968888,0.0013441625752681487,1.8900000000000001
-0.06254466033987799,-0.16536735868194763,9.881184895264262,-0.00224045860328377,0.006037717817666641,0.020405205135450202,1.9000000000000001
-0.1638889272112597,-0.08492516522689833,9.75751619510514,0.0114433616537493,0.007843568075160373,-0.01259522971964892,1.9100000000000001
-0.07158817409944292,-0.11302279797770831,9.95079759556672,0.004442514324928335,0.010869942848212537,-0.00412886158809484,1.92
-0.01816244845377238,0.11523791485534314,9.624933949838073,-0.0022305024634295205,-0.021225715927369215,-0.0004880589721155741,1.93
-0.1369916528831926,0.2081143041543456,9.885899193184018,-0.019492510044005217,0.010891574484753714,-0.0012137444616384077,1.94
-0.1601016057692325,-0.08285736148128875,9.760735482313978,-0.004857517581453395,0.001963083849032017,0.002636346709890993,1.95
0.11092989510401859,-0.19818576578895794,9.799286279478222,0.009227938755255651,-0.0043448905474199155,-0.0041458770509517065,1.96
-0.0012393231418887179,0.00965084690504698,9.789118222515054,0.018197502942537896,-0.003956546318942866,-0.0022846991791470803,1.97
-0.18220459584811655,0.015415345840817739,9.848582446515872,-0.013997962753738987,0.01959350439017063,0.003634806493594719,1.98
0.05472052541981523,0.05907667594084756,9.72148855510604,-0.0033469482596390214,0.005072066201341738,-0.010252168454853945,1.99
-0.1802610455208209,0.04802881254521172,9.750580380870094,-0.005569299082255523,0.009697846303761496,-0.009684557472624464,2.0
-0.032768949701627074,0.036252742839646475,9.885688855681037,-0.00741190825867433,-0.00955240297439155,-0.010499482919088159,2.0100000000000002
0.17436018821853327,-0.1227223591799971,9.60239685668633,0.010767673479401621,-0.000407260332742096,0.008056933151818687,2.02
-0.09373673427250868,-0.07927422182898747,9.811074247801772,0.0007554388627150182,0.008833109192693554,0.01561613663202162,2.0300000000000002
0.15006709448051037,0.2464977863804252,9.934414021557133,0.011079741437186312,-0.0009303230736500412,-0.005261089149670209,2.04
-0.03760810069911981,0.10238886087010667,9.710073700475727,0.02198467028301201,0.009081404275179773,0.011063377769244365,2.05
0.11589039976326879,-0.23336623924103522,9.634799205348852,-0.002910443261960716,0.005301582948868356,-0.006926111038171554,2.06
0.08764073429210728,-0.11288101763841661,9.755120681598726,-0.004242897445672247,-0.0078030899598783435,0.00039681958258996544,2.07
-0.1704321474565512,0.14464433174295968,9.69015904938353,0.0015152006250629384,0.012321406753479883,-0.015188277512572464,2.08
-0.037599006326559326,0.11122976376130443,10.001885176887527,0.012174739354339563,0.0021436058507508173,0.007515390537616046,2.09
-0.015873789740172773,0.17135592520159662,9.905706123954339,0.0027221926884985503,0.009395910840837511,-0.004279778548723294,2.1
-0.1283419201066491,-0.12873903525086125,9.62484500758413,0.009071412041321813,0.0005592009004810137,-0.006896405721883909,2.11
-0.19583432031400763,-0.1421637709446123,9.57215978186599,-0.007826347904667488,-0.002775365428094816,0.010043753934584627,2.12
0.019752771801872338,0.15080546722932864,9.77566191195981,-0.0029778718494331696,0.0016591057793395683,0.009799722973407707,2.13
0.07954158618222217,-0.0626076920170283,9.764818048265184,-0.0038941459260218,-0.006786238931061248,-0.0029242788829423245,2.14
0.037493335009653454,-0.04462033120670705,9.694171262395447,0.014275068008655556,-0.0026146497260015533,0.0009748025392340761,2.15
-0.1634395918046493,-0.10308205681135492,9.75220756329977,0.0167488185058665,0.0077853355601039025,-0.007160382307098808,2.16
-0.18616969996135768,-0.09910795868190414,9.807263302699017,0.0003973869338974354,-0.0058451567111745895,-0.01508772074229315,2.17
0.1527876591736349,0.07873289997032794,9.885332871417878,0.001978292369459268,-0.0050970936507341545,0.007435828598141172,2.18
-0.12149297962866874,-0.11191196516297047,9.660766102707049,-0.009869107366406595,-0.015374726028715204,0.0023917326257423006,2.19
0.13090290383770734,0.2287298039791273,9.830365918983304,-0.0018715675686337638,-0.00170255351095456,0.002636277734955077,2.2
0.1822976070917108,-0.0740356795535254,10.061273583161121,0.012001452086825376,0.015143847289153413,0.0004563208364288897,2.21
-0.02441709705471338,0.17291488270702354,9.86726032236636,-0.013347459758613098,-0.01901114809012769,0.015461352273194529,2.22
-0.0738869382008315,0.1063142829311039,9.987683269302778,0.008233300572997999,-0.012168701699637685,-0.006997852402817604,2.23
0.16935564479931353,0.012198585293881868,9.605190669324724,0.003647761748313688,-0.005529866819025967,0.005262766431397008,2.24
0.010108607859824467,0.1728498641577115,9.89670721830604,-0.004919485011341655,0.019827340177566814,-0.007329030569379814,2.25
0.019757010111595058,-0.12474402634994129,9.952926988815317,-0.0033387752771348277,-0.0034169952062513623,-0.006275997480149785,2.2600000000000002
0.022454937504635716,-0.030455424118282077,9.71930483979445,0.0026930385546395192,-0.01126022558326999,0.009309691602942682,2.27
0.07472954777095585,0.09809562216704748,9.908813974462092,0.007684206542216721,-0.0028272142284692524,0.0009029031820438592,2.2800000000000002
-0.003908848216801829,0.06147157380762748,9.718820934055746,0.010614729679363064,-0.017763828044078177,-0.002475153475641559,2.29
0.08967899995070375,0.14870824820296472,9.796431001483198,-0.00486546304542542,-0.005475605023937322,0.003423660510855121,2.3000000000000003
0.04773243771936943,0.08089750099222043,9.813905795124699,-0.0017074651080605475,0.02565597273974014,0.01292077160030677,2.31
-0.14017229235473555,0.10118080663420609,9.927933236345085,0.020101843310353407,-0.015706480490009608,-0.013988582112418473,2.32
-0.018865989254657514,-0.043671860632058634,9.837025028930713,-0.0036473431150818524,0.0051561979532701065,0.005436113733289512,2.33
0.008697455532166434,-0.008707434302060833,9.6659472430833,-0.007997425332032406,0.02060827131874752,-0.00013980955044963503,2.34
-0.024420944181844498,0.0347850195224425,9.771968519289382,-0.01028179120096909,0.010707815709867159,0.0018612987934335345,2.35
0.10386353894544172,-0.11678594337677269,9.800142349822307,-0.006368940018119976,-0.004758895614557171,0.013984832890195984,2.36
0.12418603021550063,-0.040940719898244375,9.72913860546676,-0.017705882328504476,0.01229965324376654,0.004072389770555264,2.37
0.17862625052278958,0.06821372074463018,9.859362245662318,0.011096198145900597,0.007635266418775158,-0.010418786539683438,2.38
0.07776173759907495,0.12316628590303587,9.741317315262535,-4.2867601827793135e-05,0.007446717956668526,0.014305332316088262,2.39
-0.07153525843039539,0.09207360379613658,9.752584318469333,-0.013275722794149005,-0.009705285138034292,-0.013169987767025455,2.4
0.0017649392410390202,-0.08813909886954592,9.930571999712273,0.006256523109949832,-0.010179044024397572,-0.001288332163325525,2.41
-0.08033518856925077,0.09778869613878921,9.881397945554264,-0.003974148470116596,-0.006541307886121298,0.02450604092805726,2.42
-0.1320528566354541,-0.06692666922060725,9.75512194385072,9.427609697403459e-05,0.012421578130626078,-0.00012789392392213874,2.43
0.13130543752759702,-0.19349783871636297,9.819287088257699,-0.005534106635468794,0.010987438960306921,0.006497540815402625,2.44
-0.056838653735877834,0.02001209482715191,9.73618716278461,-0.0014030478843265258,-0.014703111391666239,-0.0006022070151459319,2.45
-0.047179454933182804,-0.08761424628954251,9.683792634915372,-0.010344352587711188,0.018724294727256337,-0.020187509881285048,2.46
-0.043998664734408645,-0.0038206543963441447,9.65376718110537,0.0133461157282002,0.019048251999765852,-0.01280067380707222,2.47
0.11699474366911229,0.2247010379427196,9.777935489237539,-0.007747131706340248,0.0026442664737518456,-0.002888794790321281,2.48
-0.01779865332999724,-0.014813708811424554,9.867560409908469,0.004489636708333526,-0.013078561751280858,0.007690962179150478,2.49
-0.09275283511612059,-0.14845624495519277,9.715123879981892,0.008098782264325304,0.00031396035847392216,0.0016225596922971675,2.5
0.019619026084169395,0.07539128311820947,9.847863653107597,0.00450232222401759,0.007669350259477578,0.003944630873240564,2.5100000000000002
0.028118324020258698,-0.03535261881595013,9.940775980608723,-0.015579157127421044,0.020422901469292914,0.015870147881405578,2.52
0.0957780890598881,-0.03132454257140812,9.861114893564515,-0.011253642009671808,-0.002125459432110616,0.009191365558750877,2.5300000000000002
0.010836136331099096,0.0862589992638706,9.731675231458771,0.022225989909553108,-0.015588664593791175,0.01359180781676304,2.54
-0.09458252416460405,-0.16131598659365234,9.855387594387263,-0.018543584147949283,0.0022050929691964324,-0.004513608159177286,2.5500000000000003
-0.0578233938576315,0.028087194583955467,10.027437324624282,0.012478475589948175,0.006478369441591397,0.01664729878700222,2.56
-0.26315481368094573,0.10760404817148982,9.725803673090489,0.0012585922062218755,0.022071437041458912,0.01581998118519352,2.57
0.04808620751258348,-0.060856056599077335,9.882653831744012,0.007814016892849761,0.006410872486876577,0.015495971229195027,2.58
0.23775110010095857,-0.03836205954096633,9.91717756578537,-0.010645321533323695,-0.004000180582965196,-0.003995652108654299,2.59
0.027071457826367468,-0.11034071220539916,9.754235006422226,-0.013768584093342978,0.004028438966482049,0.007598897104341036,2.6
0.0621018895622785,-0.041196182657219076,9.892522241283874,-0.0064393637800530265,0.012431098295098678,-0.011737050657092282,2.61
-0.028100813828131534,0.007623318908851865,9.877686234630257,0.007842509955783747,-0.009733821989646783,0.006243691887270697,2.62
0.01261709956695102,-0.0012704440310139225,9.739534736144591,-0.004476762325353532,0.0020873278512352723,-0.001600224171903655,2.63
0.06611079760684281,0.022080952066190564,9.748049107127096,0.011364500079648907,0.01483953358727461,0.00140830972263442,2.64
0.13720140433123054,-0.0034414421080067197,9.668734819833187,-0.0021847397870066554,-0.0036587177889654677,0.009893395874546436,2.65
0.05260845147411164,0.06876171942417672,9.829782619475631,-8.366558162928257e-05,0.01137755150020203,0.0056450072795982634,2.66
0.019417178947236186,-0.01502222294231679,9.7637010242857,-0.012363461658760396,-0.0021562379322352908,0.021562139995310092,2.67
-0.16488864555341792,0.10102750079317498,9.621355391110544,0.0069335886409289,-0.019284148435047867,-0.011700614406677396,2.68
-0.09138962435170037,-0.15066695335149874,9.975306238901839,-0.0097529002664148,-0.0009847874363957889,0.026742848981302206,2.69
0.07952508705370756,0.03107611024024832,9.82212825072724,-0.017491797540544023,-0.009947464551870285,-0.027055689340044514,2.7
0.025057102843529102,0.049085297953598034,9.54401523662212,-0.02509773722187358,-0.005051633846932162,0.005079638207329186,2.71
0.054917518028316126,0.047610472518469976,9.792278109838461,-0.002643740521417189,0.020102166186859317,-0.007964047909462294,2.72
-0.1197530962821995,-0.04423149203247076,9.698946164022207,-0.012522954215093708,-0.011414792977607287,0.0026891298768940337,2.73
0.04171385126410389,0.2273273749280983,9.865679470664546,-0.004235128170745741,0.0027004770569584186,-0.005186826827833034,2.74
0.00951888190367558,0.026519740695802846,9.957492819467955,0.0011856266680270438,-0.0016243319109044577,-0.0040828491915032026,2.75
-0.04780743800799064,0.06838027469639811,9.844276516306737,-0.0024170415548876397,0.022500136785128848,7.811868631965992e-05,2.7600000000000002
0.006347376411955011,0.038579837801049274,9.605366534482208,0.0011978743004829992,-0.00501513070572948,-0.006211997697522988,2.77
0.023096185797108686,0.06038113729422432,9.771578010277969,-0.012253045089036527,-0.005272724361961656,0.008997731263347854,2.7800000000000002
0.012028918924294071,0.19093126906471017,9.677175079189546,0.0075339523319772565,0.0021854146492744694,0.012348698613780794,2.79
-0.12415932416051037,0.07243753251491407,9.725025517276071,-0.01164629093001391,0.001614580621133632,0.004066072682489972,2.8000000000000003
0.13190941732416311,0.21220379828137934,9.768204182573431,-0.0070239765051902285,-0.008782182000868307,-0.004574178270572379,2.81
-0.004070616340739931,-0.050792332544306075,9.665095179396504,0.008971181664846508,-0.008936138568526306,0.005958833418071839,2.82
0.07924076185241412,-0.037102450460306864,9.732974448678457,-0.008395291116291878,-0.014895001847931971,0.0020268245768122043,2.83
0.0323681942955123,-0.1375401673575642,9.713656422552088,0.016730732044902143,-0.0021096183897916054,0.007328041677058253,2.84
0.1373382831046464,-0.03629575909649862,9.893898839111833,0.0027815303419046933,0.0051270393472431395,0.010330130136906139,2.85
-0.12252331935086021,0.013005114616162411,9.733369895063637,0.0065121032200188755,-0.0030851004637769174,-0.0002980729956663602,2.86
-0.0929167101334438,0.07545101530721543,9.879166508141541,-0.015165719519907746,-0.003975170725489609,-0.015704960617021892,2.87
0.05151691737836392,0.0369434382065761,9.877532369555421,0.0009514459789455516,0.009965528763109785,0.0021538829115978005,2.88
0.0945575994098952,0.022038152319085114,9.774010387502708,0.0007818862818896148,-0.015726118335021487,-0.0055830009588055006,2.89
0.061519299360392854,0.046851089054484533,9.779896884815928,-0.001627629658041316,-0.0003617961122170852,-0.007871847068756042,2.9
0.04079377894776179,-0.14855362037813574,9.78466551348332,0.006654557254098189,-0.0016979154505454678,0.003487836591031283,2.91
0.1707962139160739,-0.12897126119002772,9.782767005801052,-0.0009345384783527831,0.007829217153369936,-0.004955286413201023,2.92
0.06562213326595155,0.00869042897009723,9.837432570699473,0.008366479340777796,-0.015685564660291706,0.0016626502229777965,2.93
0.019213475963279013,-0.03267246119020978,9.848486944302234,-0.007491626136775948,-0.010472180619032032,-0.003934935952270512,2.94
0.1853836824568752,-0.05380533009983729,9.911346772678888,0.0008431512043658444,0.005600580376545376,0.004600642027598853,2.95
-0.1426133707672615,0.011948094311358178,9.664321298422783,0.0003926058010298439,0.01140925319776684,-0.004336228356453814,2.96
-0.17611120719880755,0.01651182217835268,9.817277374448004,-0.008157827338386747,-0.013464655458372339,-0.009014801818969251,2.97
-0.025341497054588692,-0.04917868998539765,9.74351028935934,-0.006725430382905744,-0.0013417276214346826,-0.0045751477345025654,2.98
0.10666665654771351,0.06644413476874698,9.673900687687933,0.0038863685164290947,0.005713504286453432,0.004761929386648566,2.99
-0.036521529492236866,-0.02074475392192382,9.797296214876859,-0.006154962727682958,0.004478267097137923,-0.017944516580256014,3.0
-0.17528506493523335,0.03933187647893217,10.018067800680951,0.001168456573964431,-0.007802154109975014,0.0071733073932139894,3.0100000000000002
-0.055691724081706875,-0.20992141781845258,9.784586118042105,0.011466797327069312,-0.013098540632317723,-0.0018918020162512917,3.02
0.07266867618859987,-0.028561599376974292,9.838941079181648,-0.00036688641276065066,0.005736887585134725,-0.01962042338743349,3.0300000000000002
0.03792596873809875,0.0707840789267803,9.766473790141744,0.006837652818638949,-0.0030302560771304074,3.9023013302544385e-05,3.04
-0.025968678910984918,-0.04432663189025638,9.67863537318409,-0.00807055858049381,0.008902591781774027,0.010751240395826745,3.0500000000000003
-0.07201906185867714,-0.006154613489680568,9.815193994127252,0.005826722229058627,0.009624252969574957,0.004831277278811014,3.06
-0.021901390673397504,-0.17391080073790152,9.886391583137103,0.012541327993920978,0.010528445438069824,0.00621280278368831,3.0700000000000003
-0.054997948125217404,-0.05632240520656126,9.700297841948549,-0.015157540660661066,0.0064861950525765474,-0.006958581304382867,3.08
-0.0024669270114180027,0.10141998614257706,9.721896929910207,0.014379615673222875,0.009179548387400139,0.010424237764486605,3.09
0.0015104181318277715,-0.022841382817277774,9.816582928859992,-0.0022840992442127598,-0.00921798039999691,0.0019178583449275207,3.1
-0.02270489325526634,-0.16045961474036968,9.774815353072318,0.022811154833202455,0.004478483007385037,-0.007119289450561542,3.11
0.303425091579502,-0.22725696838502984,9.671636959181217,0.006612728449869542,0.002953027456767278,0.0037666405012402593,3.12
0.1006168608244005,0.1189806024741818,9.845978775857386,-0.006274602769071894,-0.005742826845825634,0.017204801898261023,3.13
0.07663791607221032,0.2201094360890118,9.697925742868748,-0.0065975456062192985,0.011322275748835297,-0.0014068658538899873,3.14
0.10246629583394684,-0.003729456966784178,9.912867186025695,-0.002407807361887955,-0.007546906016744335,0.008383586019431453,3.15
0.12910808857139502,-0.04926331259796502,9.64480269282169,-0.0025430374155355896,-0.00839651874994248,-0.0016851266178952115,3.16
0.08769370994956228,0.10486347996684656,9.924045571040452,0.006698216182410128,0.0018481999277914316,0.003944230960364061,3.17
-0.04404473143472118,0.03414323881671657,9.790275974419545,-0.011611610191418063,0.02075485257733626,-0.0001546530579403278,3.18
-0.04857492168527235,0.05078776757056606,9.75615839991083,0.007345476885700556,-0.004747412198767119,-0.023828138588974476,3.19
0.027627187341040124,-0.11659413703342009,9.848157016219497,0.00415866937107004,-0.011106164580851417,0.015232348601728467,3.2
0.08150575317598613,0.003994049911635594,9.677826951609308,0.009781723166849023,0.018408634404959944,0.009999356498831418,3.21
-0.017169111004638426,0.013920381456014328,9.696767679137968,-0.00045526060947536447,0.00974947481479105,0.006021330216955969,3.22
-0.07704170812822163,-0.024737805179081907,9.806771787578652,-0.010255202963170607,0.0050812532627593976,-0.013942122656341363,3.23
-0.005702586094342467,0.0374890821871442,9.721189488129367,0.01117248811388753,0.014260458249948352,0.005746832274512934,3.24
0.07562162279815043,-0.011764888287699816,9.934652549624065,-0.0046252095241998215,0.0016568855302089868,-0.023563415784099456,3.25
0.09346144874849255,0.15024845037005574,9.845689516793374,0.00047376701957909225,0.005997595846477759,-0.005217097189325907,3.2600000000000002
-0.24891810021690103,0.08240424044482408,9.662358352219416,-0.003920118624512042,-0.015291951756418105,0.007161007987709939,3.27
0.084565461660007,0.19422470290788074,9.901827781647265,-0.0060685467825483085,0.002970083354814735,-0.02111472705165052,3.2800000000000002
-0.03353253155346526,-0.0009291254035821546,9.616434113719635,-0.007041849222527819,-0.020956253142499694,0.007878652977855283,3.29
-0.02503921246932936,0.04998679108203178,9.836905073546722,-0.0061485067942972284,-0.0012931410963193746,-0.002515667740452393,3.3000000000000003
0.023365161831786274,-0.0068508026747033605,9.84719726438509,-0.02324146598135224,0.008129793599595357,0.001124653381320108,3.31
0.038850967594826424,0.08494484525866562,9.893666621381465,-0.0055660941386866955,-0.025257350414370605,-0.0021371535267614558,3.3200000000000003
0.17408020597800578,0.29088629301296876,9.818784692066181,-0.005211761237061676,0.00882047350726301,-0.0069195078542149705,3.33
-0.061702589687956146,-0.07744697761151223,10.014534198657797,0.002513298826737107,-0.027284237530363718,-0.007395991135372665,3.34
-0.1237533351239276,0.06449679409723051,9.620483188216076,0.02306834034791089,-0.0081902273875846,-0.02270702555614763,3.35
-0.03308013677625118,-0.04171098951666414,9.777138913582199,-0.001961241439922577,0.005734193856289537,-0.004685110141469638,3.36
-0.12624168575789624,0.10655082932511445,9.874931087254723,0.0017266881527202265,-0.0007962784798294806,0.008428701917819215,3.37
0.1173682931754869,-0.07006406698927369,9.94037830983185,0.0039003278437389193,0.005697394234939125,0.008930650112256801,3.38
0.06488854357696906,0.0947886412809968,9.906634719486025,0.0034571747143305504,-0.005040211633730334,-0.015516503084651743,3.39
-0.020730144383905885,0.13864212604949808,9.992298023674008,0.013164166308802667,0.009853951437673866,0.0009451306088627061,3.4
-0.0636629271965293,0.022113035290119116,9.747499475684435,0.0018658305735665148,-0.029324699513591918,0.011870445629895001,3.41
0.040058953493395444,0.08866278498439797,9.761503680049275,0.01724920038816378,0.0072619027824337695,-0.008968844056229235,3.42
-0.05080185353881719,-0.10235012381878746,9.726822476537883,-0.005351789052088116,-0.003093311760929919,0.004138622202058224,3.43
-0.10152208490425128,0.06564307341996937,9.903158450202547,0.001918775944379322,-0.010582460730027707,0.001554099501131212,3.44
0.07139710706286148,-0.10689156554686262,9.833840392703472,0.013865809439959229,-0.002242408990972784,0.0017630025231262926,3.45
-0.11992931973095476,0.08923078657756259,9.923745962454213,0.013056080071048769,0.0003085916440942796,-0.008728124406423305,3.46
-0.2634793083271335,-0.01755999883579824,9.778421533822867,-0.002952407255718673,0.024540722571205043,-0.006224774922671896,3.47
0.02318056985594076,-0.10608662259247977,9.71465578590223,0.0006391917828241614,0.01578913658222234,0.010642204933258532,3.48
-0.09554910182746815,-0.12299197187311445,9.857620874650241,-0.015618114925384903,0.00890930050261789,0.013895584525699497,3.49
0.1016542975545838,0.10213623683806615,9.846454958436206,-0.013163130013522,0.014853632095277399,-0.008516822231345313,3.5
-0.061158093289573036,0.06562779763282305,9.790511231009392,0.006603467580915003,0.006902570136681941,0.006565027582102203,3.5100000000000002
0.00775094297521331,0.021363286625924627,9.741312508898503,-0.015804456109938265,-0.00792012034748725,-0.008849351092307502,3.52
0.13122841309820463,-0.024729680439952884,9.848204686896512,0.010396520912493115,-0.015727100516436485,0.009646758088320153,3.5300000000000002
0.08964200732786164,-0.0795630014735064,9.774922838814371,0.0035777310440984296,-0.007293501262152947,0.024617516871219897,3.54
0.1410681705635877,0.06827448734438611,9.713527278705577,0.008181192133289448,-0.01553043100571115,0.012392543813631862,3.5500000000000003
0.09358126508519025,0.009357787492236992,9.812492681279709,0.017710235693199104,0.011556233714790917,-0.0016337492160185887,3.56
0.08641143715490535,0.07095250682579064,9.739313496288931,-0.01769457183402157,0.014915434763781866,-0.00629147138364636,3.5700000000000003
0.061841460058921195,-0.05166518876377757,9.894937763866677,0.005934799346434764,-0.006561724098717164,-0.020512591191242616,3.58
0.07405572820696792,0.008712065789900074,9.786516403251577,8.755499205222227e-05,-0.010145407994303754,0.002649216619051278,3.59
0.08645566968496057,-0.02841790797166754,9.804297470764215,-0.004372929751560352,0.013463425850247537,0.002431779036626911,3.6
-0.024725995624077745,0.051232899509740505,9.78045876906528,-0.010695240094505613,-0.0034001151953826905,-0.00711206599662284,3.61
-0.10392250154495707,0.07779076212862535,9.858740543103327,-0.013868764626659497,-0.0018087123732973662,0.008097697918287568,3.62
0.06649248961791245,-0.0049765454965104775,9.82176622759408,0.013242421053740534,-0.0012730273455903124,-0.004198798647220956,3.63
0.02017282561416001,-0.048583298417228894,9.771018479722828,0.004140883671270518,0.003273265775618013,-0.004943128082029455,3.64
0.08029932031022458,0.0356253538916825,9.696039911387125,-0.013011520176725598,0.003517042170236477,0.01440114935736616,3.65
-0.20770269727768512,-0.007496896966785203,9.954519528769461,-0.003085928280772762,0.001320011967884518,-0.014763727442049773,3.66
-0.08405642024598324,-0.10124627249230185,9.89910924261947,0.0017876056103537106,0.016943939454050254,0.006240171062617372,3.67
0.1272915536503192,-0.005710179082293569,9.78669427728629,-0.011003282444942511,0.013821981437032014,-0.007681521412835013,3.68
-0.05281588610644353,0.10251683456957579,9.823939622367563,0.016935923342307892,-0.012943484344549576,0.00995996622223227,3.69
-0.11211991933293397,0.1045686893987313,9.967413066480063,-0.01202332275160221,-0.015681851487392196,-0.01215756056735627,3.7
-0.07165644822811564,0.1427802935177337,9.95673391422077,0.019406937158729102,-0.011743362860037104,0.011055502178906128,3.71
0.03471069621570162,0.016031172376614198,9.787745881028666,-0.0006231181201565785,0.001440614301373325,0.014408685240261577,3.72
-0.1938529336914183,0.08824798563746711,9.877905566721308,-0.0048382969400727685,-0.012064401788125236,-0.012395010011410095,3.73
0.14699131117376674,0.05113972461826172,9.79857900642585,0.0066263213524451236,0.014942242205189034,-0.013890383692234495,3.74
-0.1386577757998392,0.14998228258710358,9.749390726896447,0.006450648609388763,-0.007113708280910379,0.009075609326405597,3.75
-0.03259352339819087,-0.12463407785748047,9.647412459466755,-0.02042966406475665,-0.02685371667213546,-0.018411828689982413,3.7600000000000002
-0.002001623587737873,-0.0026377025900087086,9.718213868091324,0.00551000613097567,0.012421373597194061,-0.0016367994148169035,3.77
0.015483791064654362,-0.11989373849123991,9.871028245469942,-0.006155171022809748,-0.0025934196042158163,-0.014879109497011387,3.7800000000000002
0.056780370408869796,0.061941949960878956,9.727573095608427,0.00552446608897324,-0.007783283429178368,0.013047334425391004,3.79
-0.004825369586646957,-0.044023349164018885,9.884410771645605,-0.0003385206745318581,-0.006025009524921093,-0.003912291283731793,3.8000000000000003
0.09489664182381505,0.059061272371764895,10.016586826491558,-0.01123398553566242,0.009574909011656528,-0.0144915828531527,3.81
0.013504148599634955,-0.11358838947792445,9.724351884973704,0.020271179526084558,-0.009720042839552344,0.004615422606288362,3.8200000000000003
0.05874019980167547,0.07835182427558234,9.784671690824059,-0.0017366429459477113,-0.0009002774727378251,0.002439373569205767,3.83
-0.07108726985386837,0.0240702534563319,10.012021953049715,-0.0035237000792812403,0.0026689194034796083,-0.009729132414205746,3.84
0.01943025665399374,-0.12869439023823545,9.769287026937539,-0.005605112738142688,0.000642964291075213,0.005408727741311329,3.85
-0.20488779813235897,-0.012853104164933885,9.85198746440196,0.007452381443313882,-0.0074212380642602795,0.01520539485956713,3.86
-0.09494524949590703,-0.05063921326593349,9.609723172802669,0.0028980459624889116,-0.0009691118428616649,-0.005402155722728738,3.87
-0.06660610383102743,-0.17182312522912296,9.804339093553125,-0.005918625788619759,-0.002726318538669454,0.005046663838369232,3.88
0.1424804195004622,-0.028865747918818255,9.880446553382406,0.0020226751041870898,0.0040492486352065645,-0.008811006354510128,3.89
0.12203448370858577,0.18858985031243838,9.677894505720303,0.0009496459963378053,0.0016801720131572365,0.007805696762269742,3.9
-0.05320282795566753,-0.08326314726827855,9.850349298907288,0.019765762640470218,-0.006520893474769656,0.00313773153240657,3.91
0.14659099127056105,-0.018690412250586746,9.935942522341227,-0.002599155283976852,-0.00025194768878805543,-0.0006979043031102931,3.92
-0.07938404512222537,0.049961303888958426,9.798318637837058,-0.005253431677410649,0.01095211135819504,-0.010226748700440913,3.93
-0.09138881876285031,-0.017128677149214826,10.008553357802583,-0.005775681678609035,0.0003757108519112341,0.010326052212541572,3.94
-0.09491677748176347,-0.013137174536212907,9.87094731168496,-0.011691451916330444,-0.0006315942765034659,0.00832739447619339,3.95
0.05300945827777351,-0.06999938018584437,9.856593349870435,0.011707021094257997,-0.00589991739402642,-0.004527303387810751,3.96
-0.01138622398990937,0.08827217603167287,9.738496521658853,0.003645645582206375,-0.005783339588918547,0.02375644524555563,3.97
-0.11192443004885477,-0.06907139216154848,9.75472153436659,0.004880015571069873,0.014972647723073662,-0.0019521095675670106,3.98
-0.32256669930085013,0.04493021934594617,9.87304507610043,-0.015206266120194836,-0.007128507866722224,0.004060706993941759,3.99
-0.04198071210343392,0.028567206214496023,9.817396473997194,0.010033515164140912,0.009544927734137282,-0.0015437404776763467,4.0
-0.04491622313436732,-0.14631898975157967,9.755588427062422,0.0024686577117743794,-0.005047633327351412,0.004978154420070295,4.01
-0.009617702697912386,0.1355981539024233,9.886513901621491,0.0021934429994667085,-0.008785881164907014,-0.005560413333251021,4.0200000000000005
0.10141553837262517,-0.06461235849543832,9.726322510537868,-0.011802732928221139,-0.01028574111377357,-0.011499955851687697,4.03
0.1703825383140149,-0.11589673971351791,9.651483250206827,-0.005506360517152106,0.007618996672797333,-0.00723733895511596,4.04
-0.11979944317688052,0.0012207142888670877,9.720137881245964,-9.739877066968174e-05,-0.0023105973364793563,0.002920545478191296,4.05
0.001282954874481506,0.17426258390141602,9.862126400342197,0.016498272505561472,-0.004788323097860211,-0.002679586282575358,4.0600000000000005
0.05812856554154432,0.015558355438048042,9.758152810198323,0.010103294703740329,-0.0008331055238236819,0.012197749960206963,4.07
-0.07452560488924326,0.11511905406766021,9.790141801025113,-0.007571175655310251,-0.0150475089764004,0.006405340187896655,4.08
-0.12052305642854932,0.10045101275696389,9.92839777850687,0.003074148067265309,-0.011456636481855067,0.0014170605916904236,4.09
-0.05446165463922323,0.07460551637700318,9.697322819254559,0.01217490961777267,-0.005245998003082414,-0.003982601477907149,4.1
-0.4051841797692026,0.17684659227916466,9.90202348831443,0.0075537498197204515,0.0024042458735668466,0.008480945352672398,4.11
0.13131155458573213,0.03891743693543932,9.729859583010033,-0.0042955652315031755,-0.0020596317308510365,-0.004197061930448865,4.12
0.02035582145012042,0.05521087177294172,9.863146072169352,0.015471594833007798,-0.007543975680844044,0.005627965257189669,4.13
-0.12563486871176693,-0.061425393441615544,9.665222786413183,0.021529667082922782,0.0006627078945970565,-0.001583704940255359,4.14
-0.09576576163680134,0.03011740496241316,9.849192211227432,0.009479727164010238,-0.006861418500283962,0.010841135937562654,4.15
0.03946862635789782,-0.11738184824893041,9.740439598518773,-0.0015668952009076991,-0.005700253350192909,-0.018004519360433246,4.16
-0.04656679688404919,-0.021434965414438335,9.777110427741512,0.0089964852372233,0.0008850535842581201,-0.017308992919353113,4.17
0.17254674751298543,0.18495939850354223,9.820893631140072,-0.010679051659747404,0.007441495452218297,0.016234725584741455,4.18
-0.027407899779679293,-0.11467190675771827,9.907654093214035,-0.005343976937799856,0.005870342821257188,0.011747503989039672,4.19
0.0432927518661866,0.016597367479439098,9.920555157952712,0.007165213628193989,0.01035115243213496,0.0020383997704772313,4.2
0.15816430573694928,0.1359693557111655,9.839669528796692,-0.0033192588605796226,-0.01322589284339072,0.003921236357572126,4.21
-0.11762666386414439,-0.04853334516012634,9.76200283944458,0.0017214300858359453,0.012952663077962969,-0.0010557060582044588,4.22
0.002570673040009451,-0.010446058638913819,9.663009492925093,0.011814055283998664,0.004483999586965479,0.0004724331150434967,4.23
0.0693772896612186,0.12446184056961784,9.758076390121307,0.0005270692783566746,0.007507508650036371,6.05744902870145e-05,4.24
0.06114338988252426,0.10854921234892784,9.843922126437132,-0.003141376213890972,0.003445422354447776,0.009899479050810412,4.25
-0.17871397313079146,-0.08930405643371038,9.883941977360276,0.007523844495656247,0.009722181430227581,-0.0006970414805878689,4.26
0.07684601531851105,-0.12398180617525528,9.870167468300139,-0.010386425068749284,0.0023708061325120157,0.01425099438423933,4.2700000000000005
0.07552600106290215,-0.11418674642449851,9.85335576699439,-0.012975615415159847,0.004862570151857418,-0.01198659861508081,4.28
-0.11894218600371512,-0.12419924984042086,9.669383747478488,-0.0007644936122080099,0.0052287614324164075,-0.003088515196018336,4.29
-0.10653995598263606,0.04368783089079481,9.916556322141304,0.007817794277752957,-0.007514082809489952,0.0020868905358944994,4.3
-0.030191002762794836,0.010604283774715898,9.801831060938367,0.0016090639434461784,0.00627283639798651,0.007672572957857669,4.3100000000000005
0.04332305363553819,0.18007876401168843,9.824875319636769,-0.010040178935044065,0.0006998774241929512,-0.011389770379149785,4.32
-0.09328978663274656,0.09155545688111856,9.974612965812259,-0.02493518559908369,-0.007307866737426999,0.0073063303391588666,4.33
-0.19634267113252252,0.005578104831472468,9.784850454686671,0.019810234520466433,-0.002537310307239527,-0.005194820768358999,4.34
-0.12236639859566333,0.07415170180387926,9.81567973574759,-0.010225520178343932,-0.008262561249511505,-0.002341136579504455,4.3500000000000005
-0.006612278094279611,-0.07159820115615871,9.952672568781614,-0.015478284629306335,0.004946450757215548,-0.010027340201101546,4.36
0.00428600004968793,0.1156552053273402,9.672401433155871,-0.019498145312011887,-0.0037822802926231083,0.005715300546028208,4.37
0.05821343738762611,-0.12964318747265866,9.707441677511602,0.0004991403550474336,0.0020506229317233545,0.0015750397362368127,4.38
-0.05563327429839215,0.03643329515981283,9.7044962831715,0.013799195015651107,0.014452190230248485,0.004713578962881107,4.39
0.04127317907412576,-0.06977141110390626,9.76750842943415,0.01592625492269652,-0.008933079001964559,-0.015459680564297877,4.4
-0.012107799761394283,0.16443659528331975,9.786437970053926,-0.01947115651319796,0.004203211572161746,0.003923348180551609,4.41
0.11158688107875568,0.04433758826813782,9.95417302216925,0.00452059346725112,-0.004656820124622506,0.012083076413236998,4.42
-0.11018827992714371,0.1421152401809745,9.876226878801898,0.008884342136895429,-0.0007536272243111953,0.01459360249904903,4.43
0.04711601253425463,-0.008532418757805707,9.789212961390222,-0.002878113516152195,0.008698594115792328,0.01992057027379327,4.44
-0.03558402129711694,0.1005323971222079,9.750024856413232,-0.011683375960004776,0.02325968341141698,-0.0033401815586829938,4.45
0.05458574221272259,-0.11602900559408742,9.69865846947176,-0.0011484724423451787,0.0007360355895269419,0.008772248407384605,4.46
-0.1912331529113501,0.06108087689235417,9.728360329890078,-0.020013169986423805,-0.014537513643103716,0.0028533740690890796,4.47
-0.018953030736129913,0.09129371290306382,9.947779929125216,-0.010062690837485422,-0.007127466861198972,-0.021315872653760965,4.48
-0.05725403772494608,0.1337576833615162,9.719451083774041,-0.00792946239120605,-0.0029142474602660458,-0.003017213431557999,4.49
0.03919388268861518,-0.13114211139133952,9.76839669091369,-0.007627823670172291,0.009573786878892864,-2.6263673056381234e-05,4.5
0.08370632694000167,0.012012219323109214,9.671177003353776,-0.0021651133801571815,0.0101260967355653,-0.004816302971040367,4.51
0.06239490554646321,0.1258128666275824,9.893074852492997,0.00040868088792463684,-0.0007683736195289641,-0.0006830051352127059,4.5200000000000005
-0.12870882757739568,0.2851542455697354,9.87974112708116,-0.00046356271750679887,0.005500442811343965,0.0094512697201827,4.53
-0.09328627795607765,0.055691951173400735,9.80179301414296,0.022029969523732627,0.015144928051597416,0.006406224373637645,4.54
0.027000611974698874,0.10240573882428382,9.839352648669445,-0.00859263104143155,-0.00609880353636508,-0.00149991455155642,4.55
-0.06326837551514732,0.0696894491147944,9.804759711059512,0.000314634903532339,-0.01427657893994604,0.007432359511893284,4.5600000000000005
-0.19115711292573095,-0.03511340288541882,9.889574618769487,0.0007129762714092474,-0.004937124448307453,-0.009571536221731979,4.57
-0.015395096651257337,0.15941002185983477,9.849053871041065,0.01089581981995576,-0.019461047587264448,-0.014366213463141429,4.58
-0.0249085695902692,0.07585987850145728,9.672020282229159,0.0021068350319580513,-0.013656528087770436,-0.004351155275843942,4.59
-0.01944170625969998,0.04994953089416211,9.804459374141754,-0.005758042178052496,-0.006420863283850639,0.009382961389819684,4.6000000000000005
0.09555161425741227,-0.1772720043540865,9.804633927593137,-0.011190040421320638,0.005463859474580595,-0.011842382720831305,4.61
0.03729754327156441,0.10759688022355318,9.84052901898801,-0.01572369274166225,-0.011422743709710666,0.0009015932726547546,4.62
0.06338853632092058,-0.2177684108068938,9.91619947202429,0.011772177182029019,0.018055831355424514,0.02413967068728133,4.63
0.13312424845677234,0.013526013456638317,9.82760843238635,0.011793816345178842,0.015759288945775076,-0.02356517728727015,4.64
-0.15965927969312602,0.17110628581767762,9.744350051342801,-0.0019334666122117316,0.0054906269775083965,-0.0006154773811936149,4.65
0.017356022237225942,-0.03831638483706215,9.614887424441696,0.018492128578630408,-0.00837874493436434,0.02921099018452371,4.66
0.01715059326606863,-0.12062040959399384,9.750401940238254,0.00590410553894015,0.0023699691910992427,-0.013773195149295892,4.67
0.1463392534597282,-0.0009234961414981791,9.823011937915995,0.005583615733046575,-0.008226473368261333,-0.0018763320821435002,4.68
-0.16060586687625344,-0.026936085827229717,9.88307887539734,0.0004045123394141515,0.0003141507514068133,-0.008835166689628117,4.69
-0.05757279893837615,-0.06847301162483953,9.99386919561767,-0.003183145235135895,0.0030868411442492518,-0.0043282245392708115,4.7
0.031487150605348645,0.055956418350395304,9.95318443965103,-0.010252294762885776,-0.001255111815452896,0.008063795508339485,4.71
0.0694791694999052,-0.21880298157294448,9.81024875083011,-0.005555654142653564,0.0021424076592937587,0.002362655642883454,4.72
0.048898107384975735,0.021731808183712398,9.795879369672354,0.00027930304968730815,0.013779776809031674,0.027104591133830014,4.73
-0.10161276961923603,0.07988891685312505,9.887867084387285,0.012591601845091074,-0.006085995803269766,0.012336254392443933,4.74
-0.04782305388234066,0.09422415480582669,9.754895347217111,-0.01620418731590432,-0.012041833180036423,-0.0020583426343369748,4.75
-0.08778840346646381,0.08185299694799242,9.696279126584244,-0.013317481420689652,0.013915950573002498,-0.00838726517334183,4.76
-0.040447557715524995,-0.17875539321991035,9.796464290497015,-0.011909347576225547,0.02060598861225774,0.001113001130445428,4.7700000000000005
-0.15007702298364872,-0.06663385547761229,9.980537537517474,-0.02064495052168892,-0.003193350173076774,-0.012272124119159785,4.78
-0.018820241120082053,0.045152356271784135,9.872740010021877,0.008644901274985291,-0.01733332067395226,0.016856755955833955,4.79
0.10204685330216212,0.108152682182908,9.798861540534078,0.003164975663156207,0.004917018516782274,-0.017814461171405543,4.8
-0.05878401745822908,0.00590144788371973,9.876245013873447,0.012867397970697166,-0.0073709378142028615,-0.0031636659346391443,4.8100000000000005
-0.0848173018433575,-0.06115921301744507,9.746044249248827,-0.0010989009230126764,-0.0034086622828862147,0.004510205915860314,4.82
0.035823700379206416,-0.013171110330482011,9.690267553788033,0.014882177385281343,0.011981581578187604,-0.008408546881370051,4.83
-0.026719624600379317,0.06806508624990473,9.852852275340336,-0.0036419852253370987,0.014474918368017712,-0.008376515793404348,4.84
0.0065181866649163065,0.002057155273719109,9.880416498434256,-0.0029953613677865306,-0.0026314593370662786,0.0004958252118178165,4.8500000000000005
-0.04687387773254389,-0.0803296200383492,9.799527318794146,0.004820099463676107,-0.02689660327390613,-0.006109936151445895,4.86
-0.09000623452143869,0.03628081747280611,9.621734480169712,-0.009433993696637883,0.013626243373454458,0.018257788532887377,4.87
0.1437926566518658,-0.02245868687124083,10.016056104016759,-0.008593728829547401,0.016959089241328412,-0.003158520111508379,4.88
-0.08857384327993173,0.1385136610841768,9.694679137041188,-0.0018243996748195574,0.0015472108731587782,-0.0027106813770965423,4.89
0.054517998445576824,-0.06818062493954274,9.796923347945544,-0.011984712325228042,-0.009324378880629152,-0.014642089177216756,4.9
0.06632667988596623,0.10128426731559606,9.672333458508371,-0.010317784023336381,0.002222609452161694,0.006875283264873846,4.91
0.07859440721574551,-0.1755520647768034,9.840049189448374,-0.010848642636997523,0.002083742230397988,0.010172133999576418,4.92
-0.06249931848007532,0.02291763387556825,9.846650572989649,-0.003074669683102803,-0.010396654715781599,-0.01324595878558062,4.93
-0.010534793306917251,0.0227912593690693,9.71325263044752,0.009420261245787976,-0.010518015791997397,0.007349881388961635,4.94
-0.0098517823848748,-0.06008487932578191,9.805207955305086,0.013074945751445995,-0.003263282617601938,0.013180099801374254,4.95
-0.14723202685512327,-0.0819439454879406,9.859112789831341,0.007081052579959074,0.005574545496579689,-0.007944104020468917,4.96
0.028936780801352674,0.18836040972996468,9.83414395002434,-0.0033055743368122117,8.258985309805309e-05,0.011909118109321002,4.97
0.022399525634183445,-0.01828255216207906,10.006043904639581,-0.008663696608919736,0.00785942133419619,-0.03497362011508508,4.98
0.06800873666661483,-0.08911897907415432,9.645818923800386,0.0047695528288326005,-0.006682588214563734,-0.023853048786601598,4.99
0.11034926585214964,0.1135817323388618,9.783405192740709,0.02206293229245185,-0.01202481699028786,-0.005331296284580906,5.0
0.0008678716494772767,-0.018499920087536325,9.803705647385934,0.002442376006252435,0.0029919957741373843,-0.014615626278366047,5.01
0.18349624608587753,-0.02633284231378248,9.842800061113874,0.002656651462749239,0.00183703509408389,0.0021447358397019846,5.0200000000000005
0.07649138375193616,-0.07871515633625842,9.963174785739852,-0.0064283611994670475,0.005942845985476487,-0.015463608588960601,5.03
-0.13996105723692462,-0.07454051041990724,9.64934609830619,0.0029269595766866037,-0.005264871077185685,-0.016883745112346867,5.04
-0.05145306377924287,0.13810466973343707,9.806178985838095,-0.00794641869862175,-0.014068730066943322,0.027350716690946988,5.05
0.12781228727416888,-0.045670100519628186,9.769400334247745,-0.007557727042290379,0.0004895037782157452,0.013428317464739338,5.0600000000000005
0.15529476693147978,0.03255528198710463,9.69800692661269,-0.004099510593064083,-0.01680673597825116,0.0016902975095493384,5.07
-0.07716598782817276,-0.046904994161988844,9.679987486747232,-0.0035808757305265744,-0.004774203602631396,0.006982166981194138,5.08
-0.014032708974283834,0.06640580098696951,9.702422390627472,0.013254838341784807,0.01724674508189129,-0.0008253553354820169,5.09
0.08074985464058465,0.03200304199936481,9.946638790471154,0.002053520936158588,-0.003366698659858103,0.007631710910796503,5.1000000000000005
-0.06691382296305758,0.11412201021553464,9.861406160411393,0.01084014602658312,-0.001771456662217824,-0.00647185873341397,5.11
-0.019038096203737438,-0.08732347808160994,9.799105229545622,0.01965170781928245,0.00801617079164758,0.02456579833756075,5.12
-0.11321721925826245,-0.165748537885745,9.82607232639571,-0.00929352461531949,0.012619589813103039,-0.004337219955591807,5.13
-0.21198255927778664,-0.039281379631385616,9.789170784308826,0.009643345311827265,-0.01931289422060648,-0.0025916963218224616,5.14
-0.10197097014955346,0.08371752403036516,9.822630292646258,-0.010743246340487898,0.00031617673681247,-0.013799050286853201,5.15
-0.07456216958951631,-0.11352128780526725,9.854227018974642,0.0037509624118934825,0.007218850342394343,0.007378028785622285,5.16
0.1309328221917656,-0.004859103940791627,9.991258555204306,-0.009302094538700218,0.01319482248959868,-0.0024797729571050305,5.17
0.020705458689478793,0.14654465933314056,9.915358422595409,0.006283100049563911,-0.012135222936539574,-0.0026566687433161613,5.18
0.001310119394312609,0.11736668485070732,9.938222308180004,-0.012778249243277435,0.00045474157074310717,0.013103532925034836,5.19
0.011650566404445992,0.12166933195116175,9.820060489177054,0.009288219510662719,-0.01945368374372156,-0.00917994660757813,5.2
-0.16290188033705055,-0.08482265978979846,9.837689135580629,0.005151738769703339,-0.009675485063869874,0.007898722557848004,5.21
0.13143530463544403,0.070829183799991,9.806045043593903,-0.005216929821526745,0.017177876326640664,0.009646930958923564,5.22
-0.07966937073590027,0.04677735392584014,9.897670705451768,0.014447061250536172,-0.009924837158432204,0.010587901952979118,5.23
-0.07029640597300187,0.08578937185874244,9.889916260900335,-0.0071187903674251145,0.009774330539328508,0.006808660602424619,5.24
-0.06936334766245227,0.049875057401692506,9.737170773260274,-0.0021775596805011766,-0.001201621773612515,0.01102730123040835,5.25
0.0008016108626349057,-0.03805488404974401,9.739667506894314,-0.0044252915577814135,0.004795560946342799,-0.011078868647989955,5.26
0.09872427365697474,0.05863548103949789,9.804568431197975,0.0016658868579760059,-0.0076235157881391295,0.006651416452976091,5.2700000000000005
-0.1383663702148744,-0.2271353614307559,9.744471655536469,-0.0006878847031020107,0.014960580220988048,0.0009262609460943262,5.28
-0.07177287479911895,-0.058447793020582055,9.811744439195193,-0.005878253902760426,-0.0025082503770219667,0.008269663512225104,5.29
-0.06674942652837522,-0.0359028955115139,9.93948618537394,-0.007404673575981059,0.011165692468426802,-0.0009987356850889328,5.3
-0.04628459202245145,0.11104592360463882,9.618629140035017,-0.02417303612439628,0.006629991098012573,0.010052311509257054,5.3100000000000005
0.135734365153202,-0.09808895861933214,9.891071920236092,-0.005134351526477236,-0.010405410622398916,0.013362293625189717,5.32
-0.03142370462936674,0.06111427406641861,9.749413862724396,-0.013739878876293316,-0.0019202748311165916,-0.01614982399258164,5.33
-0.0723858241641077,-0.033683227783175666,9.841201678308378,0.0016183724375477167,-0.022229841847978406,0.0160713063914344,5.34
-0.09705690260948474,0.1181592258675456,9.879686692941762,-0.005936316380754065,-0.010850654107688644,-0.005078812491324637,5.3500000000000005
0.009567296406555287,-0.07670600168639258,9.932071893211718,-0.0009751340798459429,0.014361754563989176,0.000484957324256095,5.36
-0.10740636200499819,-0.14718323437198896,9.77404816692996,-0.007642197002655951,-0.008563681754300447,-0.0019818972223012168,5.37
-0.19386143577958825,0.0200543861030801,9.676492551835963,-0.004880784318926592,-0.0014062577938443442,0.006421827393727268,5.38
0.07563447950471175,-0.07398125216904436,9.949502914269992,-0.006848099138030463,0.018965534626481012,-0.00019485594919187738,5.39
0.015138722597351202,0.03444963110349175,9.716110023722429,0.011244659469210215,0.015958296796843807,0.005326574960229231,5.4
-0.0019429029770515222,-0.1465415905764263,9.611207666035225,-0.024793435430614044,-0.012968734725515909,-0.01416965414218066,5.41
0.0426189888592057,-0.01177380993340179,9.744081025201595,-0.0006899962726181744,0.009861386082828756,0.00973887063054951,5.42
-0.05719310322766093,-0.1525470242621527,9.87937052250264,-0.013190557532955038,0.0010067620011961586,0.00026674859596238554,5.43
0.12620447609251964,0.06383830734561327,9.877429405571652,-0.007728226951921844,0.0149472560802792,0.014455118439577551,5.44
-0.12225981747174966,-0.26511434334742784,9.654508389685391,0.0019313736129322563,-0.006391350570299725,0.0050439744552659435,5.45
0.1265471517087585,0.20211195903569368,9.848252685016773,0.005440151382360749,0.002234575773221244,0.010338608921014165,5.46
-0.20873818101560124,0.04525365898072515,9.862511068735135,0.0024080974169406596,0.01005058978118504,-0.019928016451982968,5.47
0.007991096892214491,0.031918397594282354,9.654227883225943,-0.003776434321254805,0.008512108315545015,0.018100731491313162,5.48
-0.06514113930650364,0.03766672405265536,9.571222782571203,-0.0011779443385759572,0.018138565059806672,-0.014106610266213971,5.49
0.0820826428337569,0.009470309514093153,9.75891245087227,-0.007203154762654217,0.005830970179355355,-0.011029744336373958,5.5
-0.07755397245004098,0.0931608920921134,9.807765605610474,-0.005676361729129401,-0.002816208163705595,0.008053712910126134,5.51
-0.08615758986293981,0.021843315682198036,9.769861705488333,0.0056486936367888055,-0.0031706367891736237,-0.003590049046414242,5.5200000000000005
0.060176651597961296,-0.01814766821164616,9.899669019532745,-0.007319656808022479,0.00019049495689187187,0.005459269512589015,5.53
0.025459131233464927,0.09050495848595777,9.675682002021626,-0.003698918261534111,0.009059025051058345,0.00723964301899962,5.54
-0.07507048328223669,-0.07607107205025176,9.741958465407967,-0.013635621217761445,-0.021916370099025705,0.005508917291225172,5.55
0.027468540925315504,0.02625735359283604,9.760585595638572,0.011568598836124475,-0.000959948560343233,0.009944591565525088,5.5600000000000005
-0.004249518249992685,-0.031514929695586044,9.825076107061577,0.01848031574659349,0.000459172123685933,-0.0004508035602210955,5.57
0.17049754793674776,0.050901805633847996,9.697506590272651,-0.0019898512877149555,0.004767260526339821,-0.001754835109161777,5.58
0.06623919068110515,0.1387031864963366,9.722427075494181,-0.01971451550976263,-0.003503538264310846,-0.004229168590614413,5.59
0.07135275094481638,-0.0754717963059405,9.68462480792624,-0.011717090090024878,-0.017439592691567255,-0.011915728610306736,5.6000000000000005
-0.11366251963127404,0.06365817077305,9.738880460307383,0.013816245491045055,-0.00923783988066621,-0.02841780304774215,5.61
0.04849439018828233,-0.0640044911657766,9.933698573129254,-0.014724129883796002,0.0024946938991538686,-0.006497703614100583,5.62
0.08655996496910165,0.04286173778302441,9.770095195365771,-0.007767257544641251,0.005513053702587173,0.01933982437934084,5.63
-0.03990313991713678,0.15091073679908806,9.887113215362028,-0.006462788794086132,0.008394763145566832,0.0011026584481881507,5.64
-0.07356595151509428,0.12305869616501948,9.668087558465528,0.009994738489232326,0.003897385650578769,-0.0044919609624495295,5.65
-0.14119959987992567,-0.04348801581996645,9.630367311597555,0.004218163555583841,-0.004391215334838096,0.0009823059487802399,5.66
-0.03581663318964027,-0.015552976428883595,9.821836341766014,-0.006831836713384594,0.0044195835722522945,0.018861601334276553,5.67
-0.2015848110793837,0.07207519455232439,9.688901206784807,-0.005509289154102981,0.009038444241869512,0.0047060347470464295,5.68
-0.023126810252681453,-0.04890455176081948,9.878672176385175,-0.0023698756693825034,0.003641594190082597,-0.0035215318537762247,5.69
-0.11664103693012146,-0.03584059389109675,9.629771945728464,0.012396142064803183,0.009321567122313796,-0.004698239599589105,5.7
0.03558538599185827,0.04682818925936756,9.723603512970145,-0.020649216485494656,0.016631589066391145,-0.0005491006439176964,5.71
0.1317196119032406,-0.06506454118645338,9.925893075504357,-0.008408032856898864,-0.0036992842628164008,0.001326905951862894,5.72
0.02907803354110653,-0.16454570806139476,9.875124815224803,-0.007716218483046428,-0.0008986910780344002,0.0006501079622090144,5.73
0.08421477704370005,0.05538382927278251,9.834934495391625,0.01218959916398556,-0.004137462768641642,-0.0017492988743042454,5.74
0.02413350795047957,-0.15693242624912757,9.873400524359841,0.010277737303305959,0.007218173998687633,0.016241388586075507,5.75
-0.020421148649196003,-0.18959990563580886,9.757232670041144,-0.01854854117414065,0.004240212098806014,-0.02446487288236765,5.76
0.039413974102338656,-0.03283124466575828,9.714731109098864,0.0011838206378420556,0.005343050849923329,0.0029315414003712927,5.7700000000000005
-0.03506816305933391,0.126381852764669,9.832253692249195,0.004839139863077059,-0.0033487400213495677,0.003945664649099642,5.78
-0.17797745039817192,-0.08168281079051565,9.747645192561489,-0.003322053953557916,-0.004926210226386419,-0.012097829672127866,5.79
0.18615571376056791,-0.13052040472201565,9.820710910650556,0.00021425020522957417,-0.005956547417675108,-0.010977360036990924,5.8
0.09509682054509899,-0.10291015915539814,9.745974019364029,0.0063353055450360305,0.00649399050047647,0.014877808621263065,5.8100000000000005
-0.019970790498228943,0.014740125952065886,9.83163534746624,-0.003039553345139126,-0.006827464726509668,0.003174376706050805,5.82
-0.023130978583655978,0.05932159550446728,9.60364093415737,0.01707778287701568,0.009787841545890495,-0.0035090668272921744,5.83
-0.004577051003442942,-0.13478210786959702,9.897352304547635,0.004980239261079779,0.01173369152443723,-0.0047431347244175906,5.84
0.13829331337404116,-0.20252976636960052,9.956365311564383,0.010722394100046674,0.007608636143173277,0.01043848528938503,5.8500000000000005
0.019777539064477212,-0.28891627035176176,9.778469603292347,-0.006535224495485479,-0.0183054972636187,-0.008177551086910172,5.86
-0.15692400030166323,0.005216815188946122,9.890453557889174,-0.012429115448967245,0.010971842223637342,0.018597141978940003,5.87
0.17567045459334107,-0.12384856269485639,9.932993811861703,0.000779742206540873,0.002470862038548412,-0.0008955644631077533,5.88
0.05600256890444724,-0.02101470097691982,9.793997288537414,0.01874463532640924,8.328436825778375e-05,0.012811400129536972,5.89
0.09409778537806265,0.0038023812406936027,9.719508989900573,0.0007760426004512812,-0.002021026544962881,-0.004066927662160774,5.9
-0.10595177504620468,0.04723494023691312,9.752200786380163,-0.008423178584179118,-0.008187394830483691,0.00425406004605617,5.91
0.06480558858932849,-0.05383448219412878,9.67826497649857,0.009721984452483503,-0.0036370450224898227,-0.002007587227944103,5.92
0.0008778846899691124,-0.13277220475272966,9.839886101839937,0.005170494481887341,-0.0006641230104361675,0.021364926543418036,5.93
0.05125292930109872,-0.02113367166451652,9.862382662316769,-0.02240127443347776,0.0198480954681977,0.002252792059998311,5.94
0.03689556623497804,-0.1106965882096339,9.650735902349133,-0.0016837856380984128,0.003730894022348554,-0.008167022053331663,5.95
0.05855840074598152,-0.042389103958428764,9.938920217505782,0.014532639211209189,-0.011971831479681243,0.001050705626993178,5.96
-0.06807401799508339,0.07544110744201854,9.782841274111776,0.008313297054182678,0.0028604983151729645,0.007975299444441539,5.97
-0.17450407164252954,-0.07856633597046675,9.80250225957446,0.004943424941052477,0.01800933556083135,0.0018490316841689725,5.98
-0.10549210262068463,-0.07201344721114447,10.026880551336205,0.014439315457724254,-0.010970099598590355,0.0031297595419100357,5.99
-0.0028126070477914058,-0.08615387853194195,9.747293940626397,-0.007976703814240493,-0.009993583100806273,0.00045094863195577987,6.0
-0.07936180793803374,0.004411067103453022,9.803981922505224,0.012564319453115053,0.0017715513572347243,0.014291712656492093,6.01
0.09972549613476576,0.08820337413686108,9.652153233080062,-0.0027654303102695316,0.005276935418805512,-0.015048516903552633,6.0200000000000005
-0.004315637724461511,-0.05532878785462164,10.013022628274111,-0.0005632377329126562,0.020303510167736155,-0.0009185783840060269,6.03
-0.029893594843402205,0.1338817212441079,9.919036547335244,-0.0014678273495650769,-0.02308035838097936,0.00546186662998876,6.04
-0.053451365130658526,0.011241016584756972,9.804591650666197,-0.008481169346942109,0.002498296144286972,-0.008690294680088228,6.05
-0.05056732480037505,-0.08259003581850403,9.545896322357232,-0.0019588721632459545,-0.00429068018300392,0.002470397414497577,6.0600000000000005
-0.044541232936060965,-0.08550228753673582,9.79250365510629,0.004909163297688357,-0.006370915702556257,-0.0007429481243242241,6.07
-0.0730187351026365,-0.01918385852630047,9.754877303470385,-0.004187364087499861,0.01058462861375417,-0.00217280330187154,6.08
-0.11265398084106922,0.06900500272985861,9.72244147886123,0.013602870705643855,0.01400814723801065,0.010059534137196449,6.09
0.12385286409451113,0.06471651831181488,9.756855047112758,-0.015330673015280294,-0.0050292640091986395,-0.00944635879867358,6.1000000000000005
-0.06320489637707992,0.009901815694954443,9.629460271890826,-0.020446452116301778,0.0009883496776146034,-0.0050780730234374375,6.11
0.046734892735009505,-0.033023476784149235,9.926497846903109,0.013092628365042857,0.0035256081224541162,-0.018999090475028207,6.12
-0.06670052484723304,0.0068186310291328866,10.05419776255805,-0.006905585554082807,-0.0071230595846024794,-0.0054863133335971695,6.13
-0.08160938402936556,0.10170123479878296,9.767705141047221,0.006648578823925012,0.007863088519858374,-0.012914380263779293,6.140000000000001
0.18569502226688647,0.049730040797973635,9.687115960890827,0.013856095610680278,-0.009618322697495144,0.012753000886007984,6.15
-0.0019775813292517413,-0.06412196737406738,9.857515806759395,0.01009112450731182,-0.004948767554209683,3.0143986614552405e-05,6.16
0.05506822164245626,-0.03995796040034874,9.63044359271992,0.008391583016279843,0.005564191732200887,0.00569363672136993,6.17
0.03992023203196841,0.09529259438131174,9.849443489652279,-0.00096361553787647,0.014191570775152032,-6.679721069402586e-05,6.18
-0.07688911472902023,0.06474756343307811,9.83650131739499,-0.011303486753569448,0.0061853879072418586,-0.006034385240574895,6.19
0.21469222490658935,0.06307643626207247,9.7279434830526,0.00564411491167232,-0.005074988202047481,0.0023980107445541734,6.2
-0.15657921607959124,0.05337241353737348,9.760510201034746,-0.0032818808153072684,0.019069513309088456,-0.009221439956211773,6.21
0.11018611886081658,0.3220203099084626,9.704744343159753,0.005675021874688727,-0.0036855053703336227,-0.023995823669777892,6.22
0.08535711647899155,-0.18989250982705194,9.780933215661978,-0.006615870024930191,0.006412744255514996,0.015680941602308724,6.23
-0.006334994250347054,-0.008110396593978646,9.785504819076692,-0.007523828757326072,-0.006817566180238106,0.0027515351389082498,6.24
0.08942265089080387,0.1428597052082427,9.63456809905119,0.0042772838478024565,-0.0005484740401706588,-0.02225990415398939,6.25
-0.020889143153392256,0.05640452027177271,9.797839587760725,-0.011290546472086811,-0.010165156547967553,0.0007110303348383207,6.26
0.10245422706602628,-0.015094348617974885,9.727735988109622,-0.0017843626505974416,-0.007208119863687388,0.016562431689632336,6.2700000000000005
0.14497329917736512,0.06055731354920101,9.834283133919593,-0.0006372691132199031,0.00030519370239304405,-0.01375790828813627,6.28
0.028382324052221665,-0.02639432239033672,9.67930632327735,-0.0058124741731215256,-0.000426420359656763,0.00578937434334928,6.29
0.0790515496559824,-0.007607242206814049,9.852911232126614,-0.011448650329461208,0.015684618531636833,-0.005411250586010725,6.3
-0.07334805773278404,0.1931449982069367,9.800801807280179,-0.015917011444860872,0.001189390783355234,0.008469653082450068,6.3100000000000005
0.10159269217841603,-0.19020384390791534,9.771190847660213,0.002644504059748683,-0.010869795149927612,0.011238627970740227,6.32
0.094972417586692,0.006536179671023341,9.843135041340807,-0.008617524425753881,-0.017462839738107513,-0.02040233816095016,6.33
0.04024405332723168,-0.002141198503095543,9.847659017045403,-0.0092969548065499,0.01815960814424009,0.004009997372453856,6.34
0.15512713991392746,-0.1856385035718057,9.86796580298549,0.008412207114447673,0.015464031842188775,-0.004349109094621626,6.3500000000000005
-0.06739615183963261,0.04774362570631162,9.909340364067567,0.0050031360987123664,0.0021711054004792175,-0.010959492006957809,6.36
-0.08341655702285722,0.08195044207649037,9.733335256352085,-0.01153604377849672,0.008296177712891432,-0.013910740039886583,6.37
-0.009388444702961931,0.03486713988396579,9.762302336670192,-0.0009105490005126717,0.012555253831402543,-0.00960508277621216,6.38
0.1911251065558695,0.05186436304486267,9.946180296106373,0.002585669178777523,-0.01128727337549033,-0.005054590480382897,6.390000000000001
0.04977233270397888,-0.03386124390972864,10.042705556477571,0.023568739398507045,-0.00896279122378211,-0.0025886791843840913,6.4
-0.0765077380540291,-0.04235131786930621,9.708797826724755,-0.008107416804508015,0.017129674591513194,0.006616063578979544,6.41
0.1104571201154859,0.009646814567010775,9.63559253931889,0.004100622034450367,-0.006243669956472193,0.0067774196311012405,6.42
-0.08200218733265814,0.0333293132192621,9.674069971737659,0.009887738078577575,-0.012152656930685637,0.014007172682436762,6.43
0.1343090419293341,0.12384782974637083,9.92835103833184,-0.01462964303147304,0.021859831348676015,0.01253152784529596,6.44
0.06805817420555058,0.19709530034936595,9.635667264809921,-0.01274799723846793,0.007415841635622152,-0.00397238611631307,6.45
-0.13630526591348566,0.07992418237010171,9.98156928236352,0.016319890078739702,-0.005613651568978935,-0.009791807676834904,6.46
-0.05274188123034762,0.0069956502916464,9.931549632376376,-0.007828233734196072,0.004316135340349228,-0.013498579186880515,6.47
-0.00807769033780043,0.040952602582401125,9.828261725754148,0.002593299150916144,0.009912115204849135,-0.000338704558190667,6.48
0.07378324266659535,0.1403333805502089,9.892133853646015,-0.007260056266319608,-0.021062151257541496,-0.007874753144200332,6.49
-0.0012281836689950615,-0.04245529357074257,9.638906827245494,-0.007422257102112917,-0.007332093207188781,-0.014224153089907196,6.5
-0.019928701078509775,-0.004981256574207821,9.906562363495421,-0.009547994714791085,-0.007065240626029835,0.0035092593392662026,6.51
0.024657799274099418,-0.12059691939325641,9.785635894097583,0.004481529304316353,0.002099067828908709,-0.0005932014048905591,6.5200000000000005
-0.041094097250368083,-0.18316185455534933,9.791445848726143,0.004986058803675967,0.002958181562094231,-0.0014223819161556842,6.53
-0.029993403098468815,-0.01782526389492253,9.889757572911739,-0.0029048939456242486,-0.012085128244445307,-0.013726939990772844,6.54
-0.007794888856032445,0.058995596080828265,9.725226139375652,-0.0009391492760875539,-0.009362591670463471,0.00366012124133341,6.55
0.1279226143205307,0.05220036229083646,9.886009330056698,0.02865221131116975,-0.005910737812434861,-0.0006986458672123707,6.5600000000000005
-0.06158655441177912,0.07715534916123579,9.801583469665154,0.014291820448263142,0.019959338806746545,0.01806687864813371,6.57
0.058074829341229386,-0.2795037153612447,9.734874719105527,0.021814568733813915,-0.002153634364379819,0.0009989032732690014,6.58
0.001927466031311571,0.0034935835578432414,9.86005556625364,-0.023832967913104297,-0.0009941793911586012,-0.014639187414220076,6.59
-0.030571671651347318,-0.040755631614160376,9.903006340704696,0.020551112549410232,-0.00036752140465363606,-0.0031554733408146363,6.6000000000000005
-0.03673905780719407,0.10025777432033219,9.894841473059243,-0.0013281667461056623,0.0054433161822157365,0.000927465019377162,6.61
0.03502035458496571,-0.08904879390165564,9.762304109311778,-0.009258614540902961,-0.039322544959255926,0.011439602525735747,6.62
0.0639578135705121,-0.10333950536650266,9.886508062996116,0.00690736528362317,-0.004705392421831568,-0.008215816228076071,6.63
-0.13289849675904905,0.07548039073135368,9.746905676425454,-0.010476351199052823,-0.006326632328053965,-0.01770529350588958,6.640000000000001
-0.03327921520962004,0.020352676081283175,9.806683598901586,-0.006097899313429206,0.01707674151071096,0.020347873355435166,6.65
0.053370213728237303,-0.0353599701076139,9.821090174676405,0.010180897082490417,-0.0054423242130965535,-0.006063057625244842,6.66
-0.18778550377487946,-0.026283301112845648,9.817292263511899,0.005437551855016369,-0.009861615526135088,0.005294494468880856,6.67
0.02951310117711417,0.07301175433819077,9.734530492881385,-0.026052927440900025,-0.005489665113187534,-0.024737009391910956,6.68
0.17153836540533354,-0.05724633367866458,9.900849002285291,0.026325094171407933,-0.006259736274964558,0.013108261304939448,6.69
0.06275413478978391,-0.08046291463201583,9.829568365908342,-0.00568098360083115,0.0076648686363789,-0.0010738195093912754,6.7
0.09615538980570176,-0.09820810042060715,9.80830011770132,0.01239121067157464,0.00890387667928645,0.004463907697108447,6.71
-0.1653385257517629,0.19572988519121215,9.768765818225962,-0.019574667808244444,-0.002552845247225558,0.010671786218776711,6.72
-0.052758654687417306,0.19425046516785832,9.829150169910738,0.006307643879803184,0.006048849551864148,0.012179533551574733,6.73
-0.08410727659902205,-0.01105239372859245,9.811514871975646,-0.015470153420743975,0.007167692178540093,-0.01243993891419861,6.74
0.15481623683221296,0.13140657811751436,9.826008134828246,-0.008608658593477973,0.0023818732921973445,-0.00020917856570542694,6.75
0.04896826629912977,0.09151153064850756,9.805484497612582,-0.008565957672581672,-0.007969981078766205,-0.026988977191620175,6.76
0.08130772992457583,-0.05566820111153632,9.87347984418832,-0.01766478130982001,0.007666889341702914,-0.008098363905302872,6.7700000000000005
-0.1452301363678365,0.08970162498888293,9.682207017055106,-0.005149079170395035,-0.003695518810836179,-0.01049240369444607,6.78
-0.06329345132051645,0.07829541092192778,9.78320999622723,0.0011384782866250733,0.0009292398371344524,-0.002228735568821795,6.79
0.12196525666651464,0.15313789901574876,9.81827411724464,0.003353064575949983,-0.008824923157965748,0.003641017151349715,6.8
-0.00535620201498652,-0.1194405331234907,9.848121608405997,0.015981185178036216,-0.00316717689695152,0.01812066301810911,6.8100000000000005
0.052375754205997806,-0.03220663814817141,9.816649572050373,0.007336410063172704,-0.009121269389241163,-0.0013189065222330067,6.82
-0.14614838871026914,-0.04843670729938536,9.934426146956794,0.002474900038570488,0.006027367777906883,0.003062196550057958,6.83
-0.014878216417643307,0.1500618038410224,9.82538614958939,-0.0024948545106922896,-0.006906448805779539,0.010829706623801946,6.84
0.03503846264008156,-0.03211556550776729,9.697405043221387,0.004103505145713459,-0.007147984043703129,-0.0015088065492485925,6.8500000000000005
-0.05975418246729491,0.10072017118144633,9.809438721550388,0.01201817654190199,-0.009948696372541968,-0.003518897576445575,6.86
0.10780394665128053,-0.029437533052089293,9.837445641732296,0.0029485641170555856,0.004516780884365203,0.017239269262376497,6.87
0.04138054719545403,-0.08937943404628872,9.744876126852379,-0.005517590920047098,-0.010471282162502645,-0.022563628718297115,6.88
-0.0668699986183761,-0.032087587464948795,9.932484302402134,-0.003973281115007339,0.008811667085785438,0.013575309513150308,6.890000000000001
0.0715383213570962,-0.08016884745580594,9.711755611225744,0.002883106756822145,0.007874979019838206,0.01599957673385409,6.9
0.14143544226204227,-0.13721390336464034,9.854525016010152,0.00524379618177815,-0.0063510741346830745,-0.012605355924027504,6.91
0.11619686818009117,0.022144225064661377,9.815765418861155,0.01944612180223623,-0.016094897694296686,0.0062955564093678884,6.92
-0.012332986037493441,-0.09331344524469329,9.766833186513612,0.007387545363316333,-0.004692225785750048,0.0022411905704925804,6.93
-0.02276910063445517,0.1226045100517558,9.832165164093492,0.0006537828195697463,0.0003167690405896602,0.007536074093207603,6.94
-0.0548705195995632,-0.08302714572636734,9.748354344736821,-0.013833628592622233,0.0017711503711885898,-0.01906280721573548,6.95
-0.22406927474409974,0.05768160343165734,9.843006202031416,0.014847511018793913,-0.005145731111284665,-0.006564911355396686,6.96
-0.09426912594317814,0.16929512489504253,9.892303320192838,0.0069798025924940575,-0.00272451689454513,0.011817935559098642,6.97
-0.11001234213207155,-0.021249705057937163,9.695425400654953,0.010168312356708755,-0.007475938423307824,0.021876082063224916,6.98
-0.13247916351331154,0.10558879461030662,9.850578785578286,0.012020308480244098,-0.004024345706404942,-0.0026267146630236694,6.99
-0.08916562243647994,0.06966857022017968,9.815605049699451,-0.009456003351142888,0.002217884374571756,0.014362973822720842,7.0
-0.02785603847090111,0.0035316411163596687,9.79213232265315,-0.008463500924930761,0.0008005500947823244,-0.005037769141094054,7.01
-0.15493060092540303,0.07303480629414252,9.888082025999989,0.01692511431544974,0.00810393142462184,0.007084786073006772,7.0200000000000005
-0.11229002552874548,-0.20445981755832904,9.745403297296956,0.02627857205216594,-0.008594672176828333,0.007128976915988342,7.03
-0.05862968082276602,0.07116751148678756,9.61451273683727,0.015650495013698317,0.007678244262017963,0.0139384114231203,7.04
0.03305630836039194,0.06577227740328868,9.874193819460674,0.01960999640951601,0.006755837472951092,-0.0039857598430398915,7.05
-0.12950984042102498,0.09443478086247921,9.75813336436984,0.005932923067725511,-0.005788921543797414,-0.006041434974367662,7.0600000000000005
0.0667295411105469,-0.0026754678448994667,9.872426982183567,-0.007862212449748184,-0.010780151513736784,-0.0008033967118898852,7.07
-0.01217428503818773,-0.1641974918632919,9.981592224860353,-0.009299353395849877,-0.011581244907439428,-0.007034201862148773,7.08
0.1891898128230089,0.03742604544570216,9.917419687270536,-0.01267775062861034,-0.0013919123796560474,0.006643465927840112,7.09
0.004089617284677613,0.053867977726102495,9.713448129487075,0.0018148736335598162,0.005851825764422986,-0.0015944576904346225,7.1000000000000005
0.04453174116046332,-0.04257627515169804,9.969545910259317,0.015824539631280173,0.015600259019256595,-0.01666715816950553,7.11
-0.07317706345881368,0.10908606841708715,9.790341054700496,-0.000155420488054394,0.0023216352117324973,0.014788928253727105,7.12
0.08006954644333336,0.02818301534580489,9.734868453011922,-0.006505808227051876,0.012309675311808859,-0.0064076194619310835,7.13
-0.022143634944784937,0.021848562124945046,9.674949116201045,0.001455289522075027,0.0038407691725810397,0.013752550502643882,7.140000000000001
-0.1045712130263959,-0.08148632764313538,9.744043498306974,0.0008201001092664268,-0.0026382106011444864,0.006934668483200267,7.15
0.07913120907367738,0.10402819269189718,9.812215722000797,0.011478063603020424,-0.009871713534218576,-0.008820211211600891,7.16
-0.26656382359632086,0.006444854628649963,9.657480165253531,-0.007083937217700414,-0.01490970884846168,0.0011847724463715896,7.17
-0.0034211865345117835,0.008471760562471188,9.88253439737831,-0.007742855370946734,-0.013294497960599729,0.0026661115582799254,7.18
0.029260653976638063,-0.13337211229627927,9.688816507210866,0.010456661981328629,0.02220361678671593,-0.004481380178427584,7.19
-0.09414576941890648,-0.055952565445575066,9.874031804340362,-0.012861551578878654,-0.008191768105930645,-0.006715937470346894,7.2
-0.10230678286500408,0.07363703966908579,9.835278104712126,0.0058665536579432555,0.007501534750254702,-0.015137202243907981,7.21
-0.014997108302828355,-0.12042954636716532,9.734673777152599,-0.000325978977400506,-9.970507791311149e-05,-0.014626840081089125,7.22
0.018860243259985032,-0.09908037494669089,9.807009295842072,0.0030497309076696695,-0.011178815785897604,-0.0035984923371004686,7.23
0.07178511487998371,0.042229194612233824,9.808113072506934,-0.0006870535185761784,0.009874039385831665,-0.010898213083821573,7.24
0.04804725450336946,-0.02827772435075744,9.583016895743903,0.005368188660303046,0.0009904773322504826,0.013971820252303794,7.25
-0.011376421656736645,0.09819746472895541,9.793561973357034,0.008131106074819035,0.009341904325985343,-0.001506070458063591,7.26
0.08015322340045383,-0.0740512975776657,9.974586368069755,0.007072909935127964,-0.0017299267286087297,0.015459245286604697,7.2700000000000005
-0.06655204629429112,-0.029778684269398503,9.904353534373303,0.008339852092036235,-0.01582851487937696,0.00866415627907069,7.28
-0.10712516567754721,-0.12470226328221752,9.848071036264967,-0.00292153116800115,0.0013870892042688108,0.0027952575341763774,7.29
-0.04752138200722166,0.11846225284813326,9.883673585438544,-0.009173475656613616,-0.005329284484310413,-0.009309744197635647,7.3
0.08282634813698957,-0.2295894682961277,9.743481577613132,0.019853687015826942,0.004790499670187695,0.004531310069443219,7.3100000000000005
-0.03444913079703664,0.04971841242457864,9.717023551630062,0.0075622220382971774,0.008893815301378942,-0.00012483003634863383,7.32
0.10937643014353948,-0.22338157883737636,9.931122935937365,-0.01732747586766644,-0.010891282109743853,0.0076254924076073465,7.33
-0.192300725385097,0.07028411829830473,9.993203211958699,-0.005793306291106067,0.01933841128293061,0.003774239202368511,7.34
0.10107934384927192,0.07590874309832182,9.821300189603532,-0.0032492303215590195,-0.010943745461540704,0.01370456405844015,7.3500000000000005
0.15344267985708646,-0.0876650207922563,9.736024561403832,0.020043621599366342,-0.01088930366185491,-0.003847547113714592,7.36
-0.0826450342106709,-0.11395482232335924,9.78103266541445,-0.0045094688202308225,0.00021120365149382208,-0.005309336639271505,7.37
-0.2043108233797197,0.17881647401530035,9.788680150859852,-0.00024153061454339965,0.013501334582470737,0.0046428259375665346,7.38
-0.08652298270821523,0.09277329315992151,9.607351897838187,-0.01246488917441081,0.009509169948032319,-0.009045820326036473,7.390000000000001
-0.22005402674476052,-0.03252998179090842,9.97483757961711,-0.01025407250423874,-0.013208609886862737,-0.011010682720784903,7.4
-0.01401341278109301,-0.15482046357142407,9.679165873842555,-0.005935837752981883,-0.005422419196151896,-0.007431294804574607,7.41
-0.056732620633784814,0.02308091887168296,9.73499289244353,0.014678047662323364,-0.013659651271857648,-0.010715317889107194,7.42
-0.019995475153694688,0.02030640736957151,9.807350483255764,-0.012252755975135072,-0.014077164316953068,-0.005043155370794544,7.43
0.16866086107769912,0.2376063148451727,9.912069012802336,-0.0024748663368149098,-0.01462401991471725,-0.008779579389483063,7.44
0.06979476983263488,-0.012077531484131307,9.99197471948311,0.00612426859220933,-0.0010861633713542206,0.020599738436725263,7.45
0.0090183504825467,0.027043591337335166,9.649359065624443,-0.003424415320038045,0.0002691827011494109,0.0010486735133209287,7.46
0.10697819749661382,0.16953648172741695,9.761122630364268,-0.010232199566618937,-0.010527354295811888,-0.012992603998925874,7.47
-0.06491540121624492,0.05836884331984572,9.78611941272712,0.012100599027065673,0.015705996867650215,-0.00752153522177873,7.48
0.052955306059935404,0.014524462988979029,9.929635672980814,0.002280050705099047,-0.008689802742207282,0.002986430544389212,7.49
0.022902766273658535,-0.11511083177399345,9.763612326758597,-0.0024490516925822496,0.0189723425746346,0.01646079247155961,7.5
-0.03966923208935184,0.02882732265861416,9.714785276393346,-0.0073627669821003175,0.002493139875366267,0.015309856383302074,7.51
-0.04853769878018104,0.1841609913373477,9.752112533600041,-0.00800111889382493,-0.006012415774786161,0.0044357562963756,7.5200000000000005
-0.029736457793515476,-0.039769524937772985,9.873569452978058,-0.007706340821067627,-0.012247114744658612,-0.00047833998418865466,7.53
0.03478638611004723,-0.05903057836903595,9.869658681872675,0.0029330831307672186,0.0050723509555350675,0.015711778130082125,7.54
-0.06249816753564953,-0.11332719794254575,9.940875425117062,0.013689161553030684,0.0029072173787286506,-0.0026753225564892643,7.55
0.01537518095387548,-0.045828957356693206,9.9224686482435,-0.00716916523533049,-0.010928166199359133,0.003443324475260691,7.5600000000000005
-0.174110186241682,0.09610524336221055,10.025171138345517,-0.0021878303324229043,0.004016153011169516,0.02313227194353223,7.57
0.0982632516058089,0.21965758522285475,9.642015082753433,-0.008375058601164876,0.0120188647414635,-0.006093030464232733,7.58
-0.11935426357987029,0.056884458954141764,9.866691852190968,0.012457383343753316,0.010023954595924773,0.006174129815898132,7.59
0.06303470966709801,-0.027925586063894822,9.934208411349744,-0.00470760312011631,-0.017502183339683335,2.2111420204010583e-05,7.6000000000000005
0.03212707647540792,-0.08349275539711934,9.759938857738296,0.0010029566042122292,0.002364198577081938,0.00817244723801489,7.61
-0.010990715391214005,-0.21111428885338338,9.747418671525681,0.008117567941132836,0.0031782250325919576,0.0029259992006796264,7.62
0.04380841326776133,-0.019997152867663025,9.899525546903124,-0.021216301596532632,0.011730843765138015,0.014581897725529456,7.63
0.026126699450319476,0.01882109651746581,9.847686959257304,0.008891005865985542,0.013823245994078408,0.001121232109409781,7.640000000000001
0.030736874916018415,0.14804003743754618,9.831780008544508,0.01633634705131397,-0.002422753458568512,0.003378172795112792,7.65
0.05131523399412095,-0.045362627980621406,9.832971542926023,-0.004150543279988256,-0.008671425781655907,0.0028566651007817774,7.66
0.0015053562359447284,0.0744567878949875,9.84760009566357,0.003522463565458286,-0.009248740505926391,0.008953216869986807,7.67
-0.12876975256936163,0.15552969946830553,9.874742519722147,-0.014027508366665244,0.0020244665469743577,0.003150528139508052,7.68
0.030898339569284013,0.1787444095783131,9.738316050113552,0.015786875794565,-0.009973843716599085,0.007134574023086907,7.69
-0.012678085633306713,-0.09170910323112422,9.766444485811496,0.008718299252134288,0.014758838535980605,-0.0014213185913344673,7.7
-0.08952052772562161,0.02315998358908033,9.919606286150547,0.014509310199621317,-0.005462701675800859,-0.007680729076498357,7.71
0.0024372530198574554,-0.09839428131386425,9.912665065951707,0.010405353284792085,0.004328067247861925,0.0037411064831810985,7.72
0.00012886391497555922,0.08051107335844676,9.768265929202665,-0.00611214860468134,0.0020949799975613316,0.0037237804939385566,7.73
0.14870412990405146,0.039024126622051784,9.76081210199817,0.00035571334710612733,-0.006238653211110517,-0.004999566528596603,7.74
0.002793471183697929,-0.0027854440048314345,10.053849737434291,0.0040010727211975865,0.010692687955182868,0.0035733468567730707,7.75
0.20069074235579284,0.152884554374914,9.843545909260671,-0.020327209820912594,0.010156688770061807,-0.015210681009044762,7.76
-0.00030268796755487026,-0.04705088512995877,9.823123620028428,0.0011330554012111433,0.009114594954992545,0.004479567796385028,7.7700000000000005
0.257355225598499,0.04792182420603111,9.802305676151853,-0.011454832324166093,0.005243816195626698,0.006106193878284625,7.78
0.3008979027764019,-0.12164953527832817,9.81499974199868,0.011369748462652977,0.007256613421840108,-0.004408434525487757,7.79
0.02407565857873502,-0.05743508347272106,9.85227410698442,0.01804577881851922,-0.004858674120218376,0.0052286644245108675,7.8
0.07496515574292131,0.00683458732949009,9.798021066243523,0.02168116588407358,-0.014641621993108249,0.0032289481354055055,7.8100000000000005
0.14038110405174728,0.028549811658946562,9.749164535293641,-0.00902120863912019,-0.009009156789973338,0.006648801813780599,7.82
0.020145672909630204,0.016068139841607137,9.778482809456328,-0.00434441689404247,-0.004209471525998283,-0.012984099097752643,7.83
0.05842950449696515,-0.014398372589053297,9.923206797591362,0.0029365140839139672,-0.011715913695470356,0.0046543270780623905,7.84
0.048058029154837846,0.06722248628499473,9.658763080545025,0.008036585673430616,0.005178559928230948,-0.017573426992464208,7.8500000000000005
-0.12966424625614234,0.007142846784771405,9.832363253290715,-0.01091046261671391,0.003290004514709462,0.0017142896008184485,7.86
-0.04717634567356229,-0.05954741122532373,9.721867923610429,-0.00044605349186084743,-0.013707555819162472,-0.007025629896515653,7.87
-0.056435855764456026,-0.0991081503736735,9.919933124094667,0.0022722260081606493,-0.0010451605539302218,0.0134539002914553,7.88
0.2985384726102864,0.01765396547446949,9.952889589636406,0.0127592109897038,-0.004712248422392436,-0.005162495852894865,7.890000000000001
-0.10321894335152576,0.04507650894206444,9.766980417625316,-0.008276744462341347,-0.0076614333073123375,0.03461158819848891,7.9
-0.005299362268170544,-0.026061155860002967,9.68018423854486,0.026069643372251386,0.0064545923021587116,-0.009796876374957218,7.91
0.0048646998815030295,0.11642362700530418,9.810269517646228,0.006617243815178378,-0.015468349249411123,0.002870106046696041,7.92
0.010652331797537619,-0.0599823131496835,9.840084751046415,-0.020416932263626415,-0.005235759855292106,-0.013688018182551324,7.930000000000001
0.05712948671133879,0.019603608451838672,9.869971268320437,-0.009377273897379003,-0.011144410323683048,-0.009411850499742826,7.94
-0.0852472257812897,-0.08459892870915847,9.892544328177221,0.001548687967408206,0.018148630025269317,-0.009143338841173328,7.95
0.003943896217612,-0.1129459061019761,9.76701790284984,-0.003520709901933344,-0.0033446160594678143,0.000610010719028631,7.96
0.11018503877881816,0.04875382340328324,9.653043650232116,-0.016297816262211197,-0.004780812788648635,0.005447699723364397,7.97
-0.15370351310714486,-0.06623845311174253,9.78589131144741,-0.005165908020568452,-0.009299758934811893,0.006749652578316929,7.98
-0.11300742576479017,0.04354371652227908,9.871056654771253,-0.003661796910023208,0.007473162075684613,0.01049391958340041,7.99
-0.14268698022318216,-0.16912945372888089,9.817653727673536,0.012892512567468508,0.01049199507768428,-0.006219869659677282,8.0
-0.029551301116801876,-0.10796192492407336,9.717290952530394,0.007785383443983324,-0.004446062819910666,0.0027119423270017353,8.01
-0.06472516919219222,0.03954803502424692,9.843891137622897,0.009827489064053372,-0.011214491416856525,0.003574069163664196,8.02
0.0058343172457873144,-0.2183767324858351,9.785906055118959,-0.015537335145559421,-0.012859657252847856,0.003227543562495719,8.03
-0.009514897811863607,-0.021627745754995233,9.820636671382555,0.00603416926029472,0.006371922262068653,0.0010704045230248685,8.040000000000001
-0.2609465215060328,0.04837275065500005,9.775488922808867,0.015934173672906664,-0.00867724700335851,0.009329397175258172,8.05
0.03785669081525064,0.1164931273390081,9.648179186092376,0.007547174812685251,0.000292364090444218,-0.008539866234334616,8.06
0.04859492244248849,0.07622572567380281,9.84382344878934,-0.012483989450449172,0.007390364249309495,-0.0016854504522218294,8.07
-0.1592170463119459,-0.005006487118245065,9.842632119238507,0.004861797963246599,0.000531428650192329,-0.010818793148813845,8.08
0.12354604579443935,0.059316014241041326,9.678828119086038,-0.0030725021179488455,0.014955401127739996,0.0036284069343611915,8.09
-0.04074109271996315,-0.13740610030523684,9.614764672179678,-4.155976133160583e-05,-0.007275616624959084,-0.0021882740076356157,8.1
-0.125245891323549,0.12895560871808162,9.730495129468082,0.00025971594974050606,0.0021167453732721213,0.007274348060768012,8.11
0.05244454445642223,0.2216749769640338,9.965281511487603,-0.0022463882620297948,-0.008303548855637588,1.578524800863147e-05,8.120000000000001
0.18747537763242927,-0.19362629281605737,9.790861185098281,0.02254369444117678,0.011433856605938153,0.0033877017882854034,8.13
0.09363184947467362,0.05061091211459398,9.773079001402632,0.007887957644061304,0.004156609646837295,0.004121032322975475,8.14
0.2071571138937904,0.10543243748597737,9.737553127663027,-0.004995160443936008,0.015076830846958565,0.01345353450147486,8.15
-0.054934966620232686,0.01536688753653255,9.86399649726054,-0.008132516553462525,0.006518982929899039,-0.004087542608632349,8.16
-0.07088256545791448,0.02975930320534652,9.947251922149059,0.0008625506188728056,-0.0039418561861343905,0.02269065798816448,8.17
-0.012078362017301716,0.2770309685009,9.874079439549892,-0.007270302973224317,-0.0019376388052797344,-0.0030322524912246517,8.18
-0.07696428226712745,-0.021754957089424126,9.830301742425755,0.0005937117455181272,-0.0014565085240201953,-0.0021744152152027014,8.19
0.04745191629380901,-0.007504613184746933,9.758674383964207,-0.0064683750131965655,-0.0061650434139077235,-0.0025367641652871034,8.2
0.1302982653734249,0.003329805851556178,9.912446099496444,0.019292978749218197,0.007889011124388712,-0.004094238128189917,8.21
-0.17326982337848398,0.08625095723861419,9.822929477448318,-0.0028536688200327433,-0.00633126426400241,-0.012423386331221259,8.22
-0.05434185381292207,-0.018785185898112313,9.864101831148144,0.008203888448484275,-0.0023041406619584252,0.0018993286602355856,8.23
0.08759314247648768,-0.04714943938088062,9.856711555037142,-0.010223323672771742,-0.0017193931283907826,-0.005310943065314132,8.24
-0.025303223859850163,-0.04822855776437032,9.838203123970771,0.00701142506613958,0.014771140844873954,0.00384504989824668,8.25
0.02935293166155898,-0.12891399761971492,9.770131070684416,0.028011234994997056,-0.004378599738454721,-0.01269563673986319,8.26
-0.09937515162239985,-0.012493243157424498,9.897098323533482,0.009665954007804905,0.014959480474513072,0.008743770954562245,8.27
-0.17518016293374108,0.009346899213519045,9.90813598458538,0.011919439438103297,0.0019034477558993186,-0.002286226694544728,8.28
-0.0017335530596174185,0.06969384677454714,9.758089906011133,0.006233623276458579,0.014078798193169526,-0.00395879523822751,8.290000000000001
0.25706380488980307,0.04310782437454569,9.889558119304391,0.011909922403211665,0.007754060469929379,0.0072109555091640415,8.3
-0.22305657977586463,0.05020988084853805,9.990015930631607,-0.006545835413416502,0.002358948078897568,0.002553682803538063,8.31
0.043080360636292066,0.12791464161275778,9.823670057134013,-0.004984324654563952,0.0029957348127195864,-0.0009980224817562528,8.32
-0.11458720388346638,-0.0665697499449432,9.903776095333816,0.002650681160453719,-0.016644097111634885,0.00900961472429206,8.33
0.019303274363558817,0.18636899946561186,9.754872134909307,0.0025907846785138884,-0.013081548455259683,0.005110012095127883,8.34
-0.043263556620053246,0.02936456429305804,9.886183546276042,-0.006310387062567764,-0.011229907154674836,-0.005213118794428019,8.35
-0.12629021297432297,-0.025043291868534337,9.780825396045277,-0.007427342235274248,0.0006858261469738806,0.005556025690262318,8.36
-0.004819395528774279,0.029844237377811025,9.877563357616555,-3.950722932061087e-05,-0.001039051151824763,-0.017868251339361072,8.370000000000001
-0.016769837206138585,0.013004497017277085,9.812164179773688,0.0034220120693701055,0.007420206485085171,-0.008505679864136173,8.38
-0.02544036834054831,-0.06905241556855858,9.67541937317002,-0.00544076408571754,0.0019306083432885591,-0.014999417471685064,8.39
0.029028744495506277,0.00457753504936175,9.964156722842176,0.015517298700170854,0.010724751559164325,0.0032741891781369126,8.4
0.032395190834286915,0.07737669749087488,9.745310716763953,-0.0010276673043643479,-0.005186127161348712,-0.012679111899360147,8.41
0.02292149276703383,0.19665850140815397,9.88765564872189,-0.009207258707242356,-0.0021183345198453655,0.01690391835566164,8.42
-0.08924974438223666,0.08626339364820823,9.76929792209712,0.00427420960181269,-0.004028989745555636,-0.0058254881875776455,8.43
-0.2152065899142376,0.0656481108319118,9.838566222606326,-0.005916453870360675,-0.009483236721024019,0.007155774412129966,8.44
-0.08123615753910712,0.07606351305449358,9.706758477341115,0.005515268376481079,0.0038214966090780586,0.009967751853678734,8.45
0.03392251957129199,-0.10514939762693382,9.93979932939002,0.0024482671846504777,-0.007726348345454834,-0.00992626845497329,8.46
0.060803280192651146,0.021468699046421957,9.867475898984404,0.0040239763135373864,-0.005319098004325791,0.00748837696157186,8.47
0.1002489464747876,-0.00299700318615768,9.85402838389521,-0.011247303909849966,0.009707528806792378,-0.004598414857236902,8.48
0.17424182113579822,-0.1508325936263571,9.872287403199259,-0.0146134235394539,0.012725899679418742,-0.001815992088627093,8.49
-0.1373913591797082,0.10541063226625241,10.029403653480523,0.010138291130777926,-0.01137358826089663,0.0008929991935795823,8.5
-0.08269865470555249,0.10693413265237646,9.750562388299725,-0.0008215203860293113,0.0021467083119684196,-0.000520133789080359,8.51
0.08757659901042347,0.0066719298395905915,10.098148435461342,-0.0006312361429629816,-0.01333913066357438,0.004789993919678583,8.52
-0.06899140996836875,-0.04661440538587542,9.822660145663116,0.00686700984650982,0.002747774460498229,0.0049137636951473145,8.53
0.009664591209082835,0.07539709593654628,9.897909158405067,-0.006999175748408769,0.011058470778939164,-0.004264034561134931,8.540000000000001
0.09569103153350797,-0.048042113643412244,9.722165188149553,-0.0015553427496371247,0.007957743617058192,-0.012108398443563864,8.55
0.09389890656198432,0.1010056519447977,9.781219053300555,-0.007682580019514716,0.0037549609301244374,0.0034779202193440614,8.56
-0.14692862176680474,0.04355477275566327,9.712069617270698,0.009135135006993299,0.002793266777121102,-0.00629783578709574,8.57
0.07695828082778028,-0.17556214010900492,9.831524757863324,0.011133276258737564,0.002030791054064727,0.015585708891547966,8.58
0.04039418412596045,0.019790124907386603,9.792630115922414,-0.0025009558826299886,-0.004834847529081749,0.005943991180381864,8.59
0.07644071299885838,-0.06521551165464519,9.818469114106144,-0.0008346074501912816,-0.011710181115367167,-0.030267662387560738,8.6
-0.10815730323732747,0.08620069397237119,9.8441015342026,0.014092670392583242,0.0018505440754674044,0.004550461539263963,8.61
0.09778726458817483,-0.1675741217409068,9.75067346660799,0.012292089226806094,0.014569147596603556,-0.013510460304832477,8.620000000000001
-0.033423191878926076,-0.11038322959572565,9.861219894781712,0.010957494026527837,-0.009433000913471405,-0.0036818698614984723,8.63
-0.00843640776060383,-0.015535693506794464,9.838861548108275,-0.014064270109419108,-0.0085149850304205,0.012627824854189852,8.64
0.05278890965125586,0.07248239837781047,9.790915427605128,0.008689647333957254,-0.016449502050190266,0.006246129603920223,8.65
0.009423581749804089,0.09943527929207932,9.755319065919105,0.006409420709428664,0.0031974187614747475,0.0022538470183233136,8.66
-0.052643987518901605,-0.04370691173181039,9.684630181977214,0.007143117736534689,0.008233181536349969,-0.012389961549406891,8.67
0.038851373982539926,0.04909937689604521,9.650786733920718,-0.0006301659329737114,-0.01209175858491009,0.0011349573562993457,8.68
-0.036582982591544806,0.11784395846425605,9.96372546462363,-0.004580114523126108,-0.012862772643709866,-0.01973300465164906,8.69
-0.006484960830823768,-0.23489706331054927,9.858525328644998,0.024673625968058027,0.005116169044750053,0.013514637007832469,8.700000000000001
-0.018321000034563814,-0.06617786136711284,9.896985568396548,0.01404345832785431,-0.009267561067791355,-0.0034613285606834303,8.71
-0.07683080504455546,0.10346557605394446,9.825438082584984,-0.01691510440767518,0.01750973923747787,0.018041214596563066,8.72
0.0326335855284632,-0.0877681406767194,9.86026011602301,-0.010800282765246893,0.01432569176856504,0.004004653635940536,8.73
0.11548652996529292,-0.21178684883867135,10.003174940728004,-0.005827975120063907,0.020733363616047006,0.0028099004201378765,8.74
-0.09951452954588154,-0.1821950948080645,9.80705222654393,0.00872768204333987,0.00148468828498452,-0.013452664007972102,8.75
0.06162330052492226,-0.0906652601556324,9.728582518700067,-0.005945367311258688,0.020221385348863766,-0.0015220825689733325,8.76
0.06672784016505744,-0.05339088905672969,10.006036915968668,0.0018886981071445364,-0.004714113007898231,0.0021495325221701418,8.77
-0.026878957931962072,-0.3419355167920002,9.634382491724805,0.003184095832682504,0.01861882537471654,-0.005104802149882435,8.78
-0.08566895082329758,-0.012288280408690712,9.713943911071967,0.006036906323578068,-0.016145721209627425,-0.0028646184091657505,8.790000000000001
0.11055302046582832,-0.02908286079374266,9.94518973668831,-0.0053810083706403574,0.0006507032724632525,0.006605707274374697,8.8
-0.04270639267500081,0.09107839248823407,9.888508130040808,0.025524040473753586,0.005205981041539698,0.005790422846967763,8.81
-0.051270841370949706,-0.0697185336253384,9.916662085876474,0.0152596710682931,-0.007157872460924374,-0.015996853115735742,8.82
0.013492730867934656,-0.09477758596079496,9.848244730666709,-0.0033960488048516524,0.011333066025571636,-0.001572167664405399,8.83
-0.02904779517969174,0.05819642928562137,9.97750603063732,-0.006743732627423154,-0.003727929289721153,0.011514765104763664,8.84
-0.11057404031534435,-0.17594033281111293,9.872293052387423,0.008018895803250454,0.01921350967103405,0.004158895645198436,8.85
-0.018410263551661487,0.0670443205066655,9.638420502789813,-0.0256479179209182,0.007904643169723781,0.0009619044828721422,8.86
-0.08264839425600705,0.06570198464873792,9.88617117283392,0.0162016696128672,-0.0029091782166256316,-0.0008963667765190064,8.870000000000001
-0.0058951616266954155,0.023655719232282397,9.939676209604523,-0.014854701186101207,0.01126893372280378,-0.007306908276191416,8.88
0.2742707297885192,-0.11660632332035936,9.776561413626753,-0.00016780306418272007,0.001726964792524498,-0.006819609238428744,8.89
0.06964994878753085,-0.3197717094530732,9.740220864939081,0.005426052583596908,0.0010045518533505179,0.008661635261936243,8.9
-0.05471286899868073,-0.2555357819810221,9.776028785327586,0.017368383666178287,0.00414298235004755,0.007522283450224761,8.91
0.054620588090020565,0.059835927871247044,9.920485705378665,-0.004916934382070264,-0.00013893685795465674,0.008525496029537474,8.92
0.07815482037507486,0.09578291890676315,9.756677765269968,0.005796749812806071,0.008884332299180038,0.0031628307952353556,8.93
-0.0584840494961886,-0.09382516557134134,9.84358588611552,0.0028152052922402683,-0.00909200522347279,0.002261051768133833,8.94
0.0932562851307579,0.035968252844940526,9.735399382987634,0.003663367101153073,0.011717488218517756,0.001916845623598826,8.950000000000001
-0.02106275466070568,-0.020791533768181873,9.906359396406527,-0.007988334950837016,-0.014679973103222532,0.003984252658193858,8.96
-0.10278004255003588,-0.07071296203772277,9.777534466020283,0.005662144771205203,-0.0031586952301260406,0.004986521373337444,8.97
0.12500577803133056,0.05995789610150781,9.831228167920344,0.0033818726495806156,0.008438099480300325,0.0009366114225663019,8.98
0.007015740686431658,0.028048073319932483,9.708419313468996,-0.019474019129303216,-0.015195385445308318,-0.00454668366650393,8.99
-0.05670997079478941,0.08714582094368391,9.493332930655637,0.0072726653506778,-0.006663976040280938,0.013800523215080676,9.0
-0.05952787731928116,-0.036158114662118726,9.979465860227283,-0.0027832495300323533,0.007858610526803929,0.0015368903389204802,9.01
-0.013731202879315561,-0.016808527793706743,9.643127336650927,0.0056560325980924845,0.004467260197933953,-0.0028980605660510884,9.02
-0.17365245926856956,0.03293412648833285,9.767433370138782,0.013575984117449445,-0.01644069367718898,-0.018809720803395668,9.03
-0.05402292900996891,-0.014142160196827791,9.774063856792303,-0.0044962006521416225,-0.006617862795741736,-0.0183530253915779,9.040000000000001
-0.13534118245028878,-0.017040976339886667,9.759586273200236,0.018043473990488806,0.014865866536795853,0.004850252649893165,9.05
0.07157547485625824,-0.041296703453565384,9.668486201671405,-0.018485477460304364,0.011157989080217798,-0.00505493610947304,9.06
-0.0362345165477608,0.1169261966663851,9.758252406726731,-0.00270356527078393,0.013804319443615138,-0.0007517821843115373,9.07
-0.17553695594223068,-0.129775238735761,9.978159578919952,-0.004918854179419357,0.005187118932009915,0.00894903551224756,9.08
-0.0839541570748838,0.025219878638010385,9.684255052602028,-0.0033856403758627707,0.012732782034446104,-0.035550994002894735,9.09
0.006802778920156981,0.06239701978700867,9.86977093076382,-0.0054895049271914435,-0.013278256113021792,0.0007080808734898893,9.1
-0.05183386694816956,-0.10260831725796127,9.753863036516947,0.004458307953442557,-0.016966154932722265,-0.004039637477782126,9.11
-0.08037524958469401,-0.0024826972746287705,9.656300238362585,0.0047426781915141415,-0.0032941853793632615,-0.0093214059683006,9.120000000000001
-0.06445396818991382,-0.04709418344845887,9.833987663396059,-0.006458042984723649,0.015735026729134606,-0.002399319763640267,9.13
0.1302395413647273,0.09732657046469244,9.74840590067423,-0.013366553778031583,-0.010608661921989873,-0.0025253425884902733,9.14
0.014343836856107205,-0.14012358878535422,9.866190042246386,0.013633577586167818,0.01944682466212101,0.0008807976162026419,9.15
0.12345619546393263,0.13258275874967243,10.020472236531761,-0.011209419380444601,0.005877362328175859,-0.0017876996272147131,9.16
0.0795937714531733,0.047898694067784194,9.832792148633436,-0.003040555152247623,-0.00017417026325014146,-0.002139288316978226,9.17
