ax,ay,az,gx,gy,gz,timestamp
0.005577469695611827,0.08684343427680727,9.847815921078945,0.0015904373559519314,0.006072254096296952,0.005129187167364257,0.0
0.019263701736264436,0.05213152871893892,9.8791588131876,0.004865838689801742,0.009121394229599424,-0.006173966554055377,0.01
0.19400867735178182,0.04432591153633836,9.715940969933731,-0.026236719415168922,-0.022723374129347333,-0.006748421550029186,0.02
-0.10209227697948489,-0.051927218695245775,9.887540653974346,0.011012707680256403,-0.004900649669969129,-0.002825391951042992,0.03
-0.03341048640826454,-0.03258524825533497,9.791682133116254,-0.006046277350297518,0.017767261321247826,-0.004639703015449157,0.04
-0.03165095734092687,0.029646888928873256,9.665072101866008,0.009293845185004182,-0.014981935675574216,0.007275724453456078,0.05
0.027725973524491934,-0.04893654409353229,9.837994244002056,0.002406846495099,0.016388406598424925,0.005087784859694509,0.06
-0.01650418498522233,0.010395181753047723,9.909726348110018,-0.014365858960612415,0.01748938292871542,-0.005097708389987573,0.07
-0.010852202111554356,-0.079921114519918,9.841183454384481,0.0004147197196109337,-0.014055071346572712,-0.0101557522878662,0.08
0.04323864536550568,0.03871131079694341,9.863093896775915,-0.0019231727612031167,0.0005053448637860256,0.0021899880356540317,0.09
0.10391840966776933,0.0042122628755354025,9.917373057106735,-0.0030390147944030412,-0.0018426366520073098,0.015158654532133265,0.1
0.08438756630851194,0.036636949006404955,9.864820272603641,-0.005277666167235802,-0.004715438949330672,-0.005545427201222412,0.11
0.09520115536439035,-0.06371038643948544,9.790188693705261,0.0122479241354638,-0.016638328104197127,-0.004521631174468609,0.12
0.09922821806634294,0.07922747877515919,9.680270659449338,-0.0038420165233825146,-0.00021196502995091842,-0.003221352868027297,0.13
-0.052692562322253014,0.011841143603539231,9.835143269483169,0.013198849002592633,-0.001059137939110521,0.018481894838036094,0.14
-0.00988718301141702,-0.08728912602314304,9.620809145822342,0.0075816720009987005,-0.0017059973762675576,0.006931237528042524,0.15
-0.07520419430039016,0.0003932983334577508,9.667494618802042,0.001662683033277475,0.005184419570710233,-0.01119686748536046,0.16
-0.014873086368032404,-0.09101001227990652,9.774668621238439,0.0051617387582623235,-0.006804017917056238,-0.026553326147252473,0.17
0.159823033509119,0.0025095571653650224,9.794335599608287,0.008856760557635358,0.004834813623645096,-0.007537435258708774,0.18
-0.13565684570276937,0.04725178781580505,9.924266870448543,-0.018438020332427876,0.006662476846952489,0.0073492468087176304,0.19
0.07159753473594353,-0.0242621747656033,9.811069906547784,0.0012810622488717192,0.0012930346768184708,0.018932744441781613,0.2
0.008476466693650106,0.024408258687253593,9.768991349724217,0.006520150380052514,-0.006463448145733856,0.0080568456612246,0.21
0.06654374400779228,0.03608509418004446,9.836501661074061,0.024184888202167396,0.005548502319670998,0.006963111280691618,0.22
0.13058538657386767,-0.15961111392193,9.674077638736632,-0.028590878449923366,0.004686070393122804,0.004868689172768855,0.23
0.03050764423543726,-0.04204648714094377,9.627454505870785,-0.009461714511075364,0.003796862002037993,0.012237999520196401,0.24
-0.12086180205093462,0.052518969916400995,9.932020840532338,-0.0014876264640948777,-0.0035066160676962615,-0.017305985662691592,0.25
-0.008223761773843047,-0.05239665628728074,9.761460113893722,-0.008227256422743214,0.0012576460207090081,0.011817976749550265,0.26
-0.08961405939261949,0.09661910046098378,9.842806558096195,0.002324785177196242,0.014224947580146375,-0.0056657068234528905,0.27
0.013496931303337796,-0.04775523973091057,9.724353256976896,-0.024734559975709995,-0.00032024981323674345,0.009867611396454147,0.28
0.07238701805300442,-0.061943829928450204,9.858463001425699,-0.005790104711132406,-0.002236762912391172,-0.01638222321994094,0.29
-0.12604638600571147,0.1692947974974994,9.6990072578624,-0.0032772381516885008,0.004668559908053715,0.0018183472417982313,0.3
-0.042686093346588294,-0.09031800766357845,9.816131284861216,0.01012384842918843,0.006956391792170455,-0.003884677492030966,0.31
-0.03633579180951437,0.01639709671744517,9.708284271245686,0.018471218597261755,0.013108995987305933,0.011500504285733607,0.32
-0.07360851102840059,0.0876317477553687,9.887191953288257,0.012437722741363264,0.0036490147320563165,0.005015097890656168,0.33
0.12156586884323223,-0.1372279715545088,9.864278315354447,-0.006407627827491971,0.0072052907659212705,-0.0030920342520707163,0.34
-0.08113217871316447,0.1612725914798991,10.112977315439254,-0.0013467458485223347,0.012705117328404698,-0.011980025473235251,0.35000000000000003
0.04112857129040666,-0.010300193561747257,9.75448876870012,0.011289545787521433,-0.0030266184319879953,0.0159153654388976,0.36
-0.016918404818005293,-0.031101054197147593,9.993654943840005,-0.01191697344611907,-0.010790190001852775,0.01707425511024778,0.37
-0.03600441110571861,-0.0029065759174348943,9.825615973611932,0.007273141816231413,0.010706343206093273,-0.0056319161934013096,0.38
-0.08194790621058333,-0.09689993661150723,9.874674240808638,0.01950598553871718,-0.014932202051679342,0.001205431041713581,0.39
0.20629597614076356,-0.18463317331176188,9.649486322224128,-0.0077350462241417995,-0.0007054057635306889,-0.00023423775156423458,0.4
-0.005691204887981877,-0.052738565917515426,9.96490419484594,0.005909592105814614,-0.00014816059996614165,0.0032014177400054066,0.41000000000000003
-0.0057652941217321094,0.16445015772945495,9.8639141541939,0.014302043536799995,-0.00205806536022388,-0.0024431441251869,0.42
-0.0029879641597043614,0.05376953330280815,9.917675526101418,0.0044542314744180755,-0.002999884549549367,-0.009222763192465816,0.43
-0.032081341702176906,0.10393240326206254,9.787374156455398,-0.0013536601958557418,0.00890485744375812,-0.014408503517423015,0.44
-0.04683004095857608,-0.024058733495047058,9.731210434340955,-0.008456865670134636,0.013104987049812375,9.705069109335287e-05,0.45
-0.02415472644536403,0.03858798444589209,9.806158829972688,-0.004627919012814801,0.010028355472255808,0.01836407819402403,0.46
-0.035407241252488196,0.09418760426453691,9.906001233704721,0.0004070152355453328,0.0026431165641363653,-0.013992680866657678,0.47000000000000003
-0.059138898611585534,-0.0190814668403404,9.72073753161094,-0.00719441812012339,-0.011437028211282644,0.013290128735416889,0.48
-0.026391468514985673,0.07017544171986709,9.838773797855659,-0.004441338079448341,-0.011309253687261385,-0.008624843864190232,0.49
0.07867743430119184,0.03153136338311006,9.885836396165027,0.0072983268481260875,0.01335523032735563,0.0062590467532345866,0.5
0.028726997453370408,0.24805999600669382,9.79588803563493,0.016087419883307398,0.010908242122480242,0.0011609472197148707,0.51
-0.12021810120177473,-0.0762701417251615,9.874607909178058,-0.0015277065332548695,-0.0070362845091843495,0.005042080692787027,0.52
-0.08404802126255584,-0.020100268503267283,9.77243927132371,-0.00445668817854787,-0.01073863128962829,-0.0028138004429769854,0.53
0.04271559948591414,0.09948827264594945,9.905038902079792,-0.020205290293040183,0.01653001791891885,-0.013142377787647135,0.54
-0.16742316243891134,0.10338771419507604,9.892996005776798,-0.005197965128686396,0.0052631692745137675,8.339029093060509e-05,0.55
0.05052652979836665,0.07462042060007794,9.894629773032193,0.007252470216860723,-0.003403010269973967,0.005927858147429246,0.56
0.03593806958351186,0.12859787440959894,9.715908773949627,-0.0012062070911607198,0.009371913081532962,0.022943285541880222,0.5700000000000001
-0.14152098188358098,0.1958443857659724,9.857654650836526,-0.018834164009118495,-0.011442981781392263,-0.009448234457001818,0.58
-0.07741165934970512,0.025744332888193194,9.716355358749153,0.004365739221760507,0.012630428437564083,-0.0003142802436101518,0.59
0.061298717773423717,-0.07341404407000653,9.806840865414996,-0.004096067355082386,-0.015767524189884523,-0.0024534795340132778,0.6
0.03276232762691295,-0.06077920932694811,9.672127894577207,0.014337339138487209,-0.01320885799762476,-0.011339790898373293,0.61
0.03392300610405654,0.06427430272934197,9.905689161516383,-0.005821771670509263,0.0019919527864243236,-0.002622847235466668,0.62
-0.002166110238120787,-0.1268473239697254,9.889917787341089,-0.0010097999461504822,0.00142224993133964,-0.008626240918058966,0.63
0.08900911754896633,-0.019402471987646178,9.758276357262693,0.019984164550664964,-0.006367364414269692,-0.0026048811647440555,0.64
0.09049549845164884,0.11277954089984643,9.677086876619871,-0.010845496646661054,-2.496272630806624e-05,0.005750192033638766,0.65
-0.08144293782729606,-0.02608566170878847,10.016779391214467,0.0071926683681425374,0.0034375250539537203,-0.003920806916677983,0.66
-0.12704252643363712,-0.12423998685816502,9.974778822210332,0.002757951180092191,-0.0016257497788836385,0.009054500864838088,0.67
0.07581372316295516,0.0888004101370848,9.733143255537684,-0.004545566719200209,0.01735200742902426,-0.008441598900400901,0.68
0.10220192218646224,0.1736251401045025,9.72247934421558,0.0074418695671948365,-0.016129845470774958,-0.00407256884481726,0.6900000000000001
-0.016473379359707854,-0.08680595953530296,9.809580003066488,0.004321594285516894,-0.011694905874652495,-0.0059184855455252415,0.7000000000000001
-0.06139835303672541,0.03758156131972272,9.669655747201983,0.01069358081781764,0.002508904368924455,0.00010768984653757675,0.71
-0.172967851622857,0.11317159072344869,9.732785175287225,0.014309927289244729,-0.006051317513489255,-0.0017728119973417994,0.72
0.1219003044053751,0.003598352166056785,9.58803522944454,-0.011073020472033141,-0.00029249849880375544,-0.0015902929053833142,0.73
-0.11198129725726935,0.04824358841870061,10.002760648230918,0.0006390617998021856,0.004625143479920405,0.005477799683963768,0.74
-0.12226755739493277,-0.02429551932420068,9.957719850182885,0.017393238275044794,0.00480381333862951,-0.009924182300470758,0.75
0.06442215814730044,0.1025102645345377,9.885086782856494,0.009977733317329398,-0.001922572874176897,0.012295708959965474,0.76
-0.06819711712071286,0.005306908656425442,9.933846604261948,0.013207848218640197,0.02633172368652919,-0.004728937364271005,0.77
0.049904304260028814,-0.11516876468046114,9.774738258351434,0.006275880746301435,-0.00924119969561236,-0.007546125744944742,0.78
0.020197581439463562,0.19140810422308768,9.956786480372742,0.020763045183547265,0.012160718213069978,0.0012076113274652994,0.79
0.05833916683193128,-0.02903048930675325,9.736440095339079,0.010289124849486657,-0.006011264210163381,-0.005286859009466249,0.8
0.07848789257678847,-0.027675098077102167,9.926671975645666,-0.00046395023658146885,0.012216421403864346,0.006734087758774979,0.81
0.08539443328091324,0.1841743849992384,9.723298878031692,-0.0064072407744772296,-0.022338358651706764,0.004406224537260207,0.8200000000000001
-0.10681351434032914,-0.04825232379166384,9.730108833570013,-0.005491552508215642,-0.004364506828684851,0.014946811921034857,0.8300000000000001
0.06080549742180089,-0.14055737034775437,10.060359841103676,0.003781376786678895,0.00460575351997166,0.010780834015007321,0.84
-0.05714084388037181,0.05058886956714529,9.86452058525992,0.03322458189351508,-0.018490522685021278,0.0016996504207718933,0.85
-0.07574540801321096,-0.0782949193800124,9.702276180878966,-0.000443370827317354,0.004595598716687783,0.01892029935839506,0.86
-0.05501705846435239,0.07920047014967396,9.740598571372294,-0.008868240987936126,-0.0010141292288084938,0.0033196867123289264,0.87
-0.02850407070656337,-0.01832825955520268,9.698624127555195,-0.027478032431848286,0.01132778849849554,0.02079502198847831,0.88
0.011589020169537733,0.0073261308213281905,9.789618610242485,0.009799127571269972,0.004771831979879478,-0.012139327422718754,0.89
-0.028668461313900485,-0.02949962492817126,9.760432831299605,0.002718785075678151,0.00524070516045136,-0.0034618507453685076,0.9
-0.11680681508676256,0.032231469051916505,9.618743781274949,0.0020987536927606276,0.0018396503458239487,0.0032451574910773787,0.91
0.01376895423522012,-0.1254654641646876,9.844486440439262,-0.015461289211198041,-0.009780679845441708,0.007559294630052683,0.92
-0.0009908321238939332,-0.042128651717297724,9.748012271980555,0.009284908920759812,-0.0004802264457992925,0.016270841851738802,0.93
0.10901906309462756,-0.13784947254031252,9.854263448172901,-0.007349164696675759,0.00864896938464488,0.010448844096851826,0.9400000000000001
0.12923786195285553,0.01955591865977519,9.914652954106838,0.002257719745001784,-0.013044254995601927,-0.015416860042206017,0.9500000000000001
0.13970904251891111,-0.0696392493986566,9.728723645483251,0.006616099850413375,-0.012519107914274817,-0.007830980528153736,0.96
-0.05360778527829733,0.1465201713636247,9.814626213977894,-0.01530663009189106,0.02612519370687035,-0.009192331128046058,0.97
0.11152507304950805,-0.2313378183707843,9.8462965435025,0.016538556953219284,-0.0060749432441901535,-0.014279647577186352,0.98
0.1658818726194905,0.12175621875556848,9.645572701094293,-0.004358957643127129,0.004955060943190418,-0.006471652809422484,0.99
0.03236907696992625,-0.10360514726975237,9.855643849173715,-0.02074277602971724,-0.008629566699805772,-0.0019327177826217012,1.0
-0.16116838512014833,0.21415577245243209,9.957820773864869,-0.0022313826408100275,0.004519837735355306,-0.010167620158282913,1.01
0.047673863825675955,0.010377151532721732,9.657920280247296,0.005925627689032506,-0.009373627803334568,-0.010042976965973043,1.02
0.043648168525078176,0.08470613329718332,9.676484866270938,0.009295406295741954,0.008183152786757904,0.0053663028681760205,1.03
-0.07541316209043011,0.27425639951669756,9.75085176172757,-0.006140174462175063,-0.0012435113405091667,-0.0040222075793203286,1.04
-0.011066482820270965,0.03974723904122993,9.896940470343441,-0.006924739039256943,-0.019800803480196996,-0.02374459728891861,1.05
0.07424208738680725,-0.0007780779247755854,9.773280802616211,0.0026283720527674726,0.008398292806835787,-0.024749653107290107,1.06
-0.1088712507591163,0.0044642089183378674,9.851237762709392,-0.005646564745788131,0.007831407199944667,0.006020425065464771,1.07
0.10304429832762237,0.0422391005288377,9.758986535984882,0.019831658499942315,0.002767599027208449,0.02364058477837189,1.08
-0.017719528756928237,0.05484890916130186,9.848971396192765,0.002157523085262439,-0.005407891775937785,0.00268528119747591,1.09
0.19524528605700397,-0.17664656409877516,9.707459604292229,-0.018253906800967487,0.005329540136601066,-0.021934243602971585,1.1
-0.1071974207897712,-0.11943649735284015,9.712201571501542,0.0009660778403753002,-0.0018468599512272113,-0.0038149934272736882,1.11
-0.07148862275778338,-0.11996850187394376,9.853769196630582,-0.010246306091408511,-0.005255327064746892,-0.006793434059708693,1.12
-0.2043587635836016,0.09978089541306079,9.646721264350012,-0.007558798242406894,-0.0087478161569271,-0.0018211273591390062,1.1300000000000001
0.044992147743700986,0.09199949083196483,9.773097376852398,-0.015405621623492762,-1.1496109728793843e-06,-0.0029892317104978612,1.1400000000000001
0.058620864962462854,0.22134552182541134,9.689735146396853,-0.02156162106192687,-0.0008599507723983574,-0.002953572669626475,1.1500000000000001
-0.12068266028966175,-0.06534772274098903,9.704676010844729,-0.003590145008941915,-0.005294554278701556,-0.004373205688125235,1.16
-0.16079555625522066,-0.12025171686361691,9.769249903060418,0.009303853341050406,-0.002176443030974626,-0.006916585804424227,1.17
-0.13932317608304148,-0.14875667999640138,9.81218449051152,-0.013687353853358166,0.005167909144729862,-0.015889272787994645,1.18
0.033843513351793225,0.17190915275547447,9.728628454801198,-0.001660921582795822,-0.015878070222393743,0.0010955624832048592,1.19
-0.06385661180842776,0.06376216865161169,9.781435244716649,-0.0013658212992960328,-0.009900185650794353,-0.019973027105878154,1.2
-0.11085578642786936,-0.08950763889110516,9.854356031496614,0.0019086635809583547,-0.01889229284489274,0.014416113634577817,1.21
0.1849345712129219,-0.038985584722548955,9.687292322909311,0.005844101835855895,-0.0063656629447320905,-0.019022099981847566,1.22
0.1289525712827659,-0.002326852299552163,9.83060154107477,-0.018127485619972385,-0.0029504664149094767,-0.008941588454641566,1.23
0.28858372615603767,-0.004319673913686656,9.745936127113495,-0.004069588196010211,0.007597033592367137,0.01326306214284694,1.24
0.07578009100727934,-0.1559450628031685,9.646228050824941,-0.01822866197070451,0.0013823963495683694,-0.013543740665096213,1.25
-0.0026796675989992167,0.10165274484923788,9.72094547633045,-0.009368445252651158,-0.010646921663906317,0.006845723668347902,1.26
0.12162252976319826,0.0014357606521604132,9.907844910233488,0.0010828102382104254,0.0003523289149635275,-0.013981480539694174,1.27
-0.03230252563816106,-0.132802047524732,9.933550878682505,0.010255566840694612,0.015871157148074983,0.012261298893627696,1.28
0.02931578886024304,-0.09396596906025366,9.737358619406814,0.010208167279226724,-0.017781753640947168,0.011099936008213504,1.29
-0.10604226662195824,-0.026543496922419203,9.833801173605064,-0.006076752745297373,-0.011886799699909365,0.013468333116970726,1.3
0.15116946694580755,0.009688963927187742,9.620952210413163,0.01028433529604111,-0.002958734372703622,0.013508645229457814,1.31
-0.0991814444092418,-0.029808720095494703,9.60273951435316,0.03067350715355673,0.0072418878045759395,0.00677154498852241,1.32
0.018553901307416267,-0.05627218400351343,9.873615250081013,-0.022167310277171632,-0.00968631932103398,0.0009460256920453775,1.33
-0.042084875012513456,-0.07971431054697933,9.68811259703745,0.009330038337051825,-0.005958580407452911,-0.0020827696172941645,1.34
0.07828144013503915,-0.04619966615514648,9.801599032477476,0.018526382751998596,0.010159672647839069,0.003618557208482775,1.35
-0.19983808635453457,0.01649572823168047,9.970263929813012,-0.008037358503468093,0.007723563720116209,-0.015089857102917641,1.36
0.08760166734435058,-0.18966209695130365,9.707199898818516,-0.0033560626406623,-0.009688707747065149,0.00531673897001948,1.37
-0.019593807037444642,0.0026270404640684275,9.783493187887707,0.012084939753262811,-0.012987558644908621,-0.003899791860838967,1.3800000000000001
-0.07941257324163575,0.016490310136017587,9.715900118289062,0.012144838009119719,0.015009207300900407,-0.02199440771448919,1.3900000000000001
-0.0593898447972566,-0.11907823376188663,9.714958121503528,0.00025547421047867626,-0.009541180756326581,0.0006608284466177424,1.4000000000000001
-0.09687089118308508,-0.18549641200613898,9.76533500325179,-0.008728365615888297,0.006910098139309655,0.006324483029078623,1.41
0.13386133545183657,0.00012535206945377153,9.812501260891608,0.011181482476930881,-0.005953391725824796,-0.011592269014083651,1.42
0.004941661644687422,-0.061037123604736225,9.787829557703281,-0.012890107393622702,-0.0027976376822727005,0.004328275533323052,1.43
0.057501918360581744,-0.12194233388949674,9.907978133765955,-6.763580344007096e-05,0.009052528135093068,-0.007471003545816729,1.44
-0.043517057826579955,0.07366232540383526,9.816999415287395,0.010297696510355132,0.016232216682758392,0.017037003079249605,1.45
0.062498040035028395,0.0797643407525287,9.760163333214603,0.013377366688847503,-0.010449222150506103,0.0178671706440937,1.46
-0.1090813821960415,0.05144540950542886,9.771595721756114,0.003396879697760018,-0.009126034256565177,-0.0005642570140236841,1.47
0.12577002351032282,0.029859219412581774,9.794958257598317,-0.00542871901811623,-0.0019880975186547262,-7.033978910801125e-05,1.48
-0.07980748239295708,-0.06422124803297023,9.868049970872592,-0.0016051584256177732,-0.024518099149642078,0.0051577344804555674,1.49
0.02405044203243329,0.1338979297968822,9.872321813605607,-0.0023884089342701563,-0.023565827623637542,-0.00011879130472721707,1.5
0.1498643379101735,0.04911466692885776,9.912008154055712,0.0024736527144029238,0.000700024937404445,-0.011378382215471572,1.51
0.046322456136207286,-0.020378092846885743,9.931542135412482,0.008067676145855853,0.0001759719569583791,-0.0025963189717236714,1.52
-0.14064636298083819,0.10151961696288817,9.943577675282128,0.002671746022754728,-0.002476209481086074,0.004156713981994652,1.53
-0.07592564594788719,-0.09044200896001657,9.913542654861256,0.011652608721778358,0.0020916461417535455,0.0032501799774403532,1.54
0.022392909942887906,-0.04194679831404705,9.85495512438268,0.004104043012292259,0.009602666122975527,-0.013986582809926143,1.55
0.024166653712458706,0.002386534543220675,9.833262131891066,-0.006958068375715247,0.00682695112027104,-8.21110943390604e-05,1.56
-0.07439267422542788,0.09167159747542059,9.833309235603057,-0.01140956090940258,0.00133341028615641,-0.0011727315947197164,1.57
0.006127220554219829,-0.029069716373190432,9.745666343267931,-0.001752380205529703,0.0032634288117835753,-0.010893089190130769,1.58
-0.023109644982399053,-0.11960737140752009,9.980335800934814,0.0008298040633505606,-0.008473530312359702,0.012435481174940435,1.59
-0.13128320987848494,0.10184102898950947,9.88816036503156,-0.004719945443404751,-0.006927189404240931,-0.005369261099414533,1.6
0.09709395564203517,-0.015851560067767008,9.894213934328741,0.010935148580757144,0.027690624297592864,-0.015809738916944666,1.61
-0.24382118060288838,-0.05435195063083634,9.719900574045843,0.0014983619676910735,0.001985549608112542,1.489878033868477e-05,1.62
0.09349164472734224,-0.12426952955710763,9.879242778866505,0.0035709998980883255,0.0003096407572776981,-0.004578669809124466,1.6300000000000001
-0.05696114856372342,0.13177804855248196,10.048946928388956,0.0002769872076419385,0.016252156147591575,-0.008042182175776534,1.6400000000000001
0.03051703626824134,0.04176965490862388,9.64049520362484,-0.010700624171312494,0.0019727607176576144,0.008225479142414767,1.6500000000000001
-0.06229912183608708,-0.07966713435198808,9.778808876731533,-0.014835903832633873,0.000860449447541886,0.0030618413966805387,1.6600000000000001
-0.06432819051647234,-0.10850666685712058,9.639576301207073,0.0038493108233801873,-0.0031287435669401648,-0.0017724001117009277,1.67
-0.05671302884531609,-0.022810357825274047,9.90259970067696,0.0029224308169717044,0.002584352973917342,0.005390755369531954,1.68
0.01570010014734512,0.08617193578547983,9.880362003974682,-0.00378314524945767,-0.00027223414694983717,0.008139320550633742,1.69
0.1488583421260942,0.0041465877519544425,9.757172073458754,0.004410236506575597,-0.000988630943858521,0.001017618319587591,1.7
0.12704270914415972,0.1324645220659053,9.919406386023985,-0.006716660368826945,-0.014539717710649472,-0.006951423526788663,1.71
-0.010417586404427782,-0.11847674547585628,9.829369531773242,-0.008373186605299274,0.006022463943450688,0.01657760766358549,1.72
0.12798329130796524,-0.0788314371358052,9.862348282412412,-0.0012124996090185681,-0.014446123105331374,0.008351793433920139,1.73
0.10153876921380889,-0.0013162982604271655,9.647356716032862,0.017056148777774397,-0.012395344299368947,-0.0008990423969408607,1.74
0.029940789361618994,0.21456380210297854,9.80616358955625,0.004343041492857345,-0.011084252096305027,0.020219865830683536,1.75
-0.07948972481533848,-0.050292796708121645,9.862351668291769,0.0033276317751929625,-0.008802925891761852,0.012127038750778668,1.76
0.008131423400798306,-0.047335422101624634,9.900033799378312,0.012625976518012784,-0.017294601448009782,-0.0024382879601957835,1.77
-0.09452200540266559,0.22416322083964407,9.932712595309333,-0.0010908220722957186,0.0024764342592357206,-0.006958438541611307,1.78
0.015361405925887,0.06493685585697138,9.628182924775848,-0.013491192208912955,-0.003221760682977428,0.01833395710782188,1.79
0.007658747229191132,0.02485017844328083,9.611230557692258,-0.017967865900960882,0.005693126088493396,0.017567092913814444,1.8
-0.007425912046707938,-0.13313582854828682,9.839033974525833,0.01222700395900355,0.019846885790139705,0.011465972565903775,1.81
0.05527023371742626,-0.18540983702750075,9.741826643115827,0.0004063102934381903,0.01447353510207295,-0.0022749275138298124,1.82
-0.23013059163663852,-0.04362817632303183,9.757230713018952,-0.0001510149101829668,-0.0014023509997279984,0.006071990995200116,1.83
-0.19523531602682728,-0.1416331805541355,9.855442231937218,0.006756805203384061,0.005138747250539393,-0.018765334267495663,1.84
0.11367674379161315,-0.22307504172262696,9.975130676079768,0.003777425308873384,0.004679098049485627,0.018882197080771754,1.85
-0.031081162444536094,0.013417317720172434,9.90411560490479,-0.010124581270996245,-0.031190198145086168,0.016922589958385293,1.86
-0.058228165338489915,0.030534787602196262,9.952463230461797,-0.003641327033024272,-0.018068887719132808,0.017088450110601342,1.87
-0.06911827869759951,0.15222538935668228,9.638236693289922,0.01864052223920747,-0.004967117233622694,0.005583446858493931,1.8800000000000001
-0.04729769342410303,-0.15828495013130617,9.817772667856802,0.005623512765054298,-0.003780520172462098,-0.0032548907223354353,1.8900000000000001
0.20414520038301173,-0.04360672727891532,9.919126447420613,-0.00246579324188752,-0.0036721173577106657,0.002710857706447695,1.9000000000000001
0.0713474667184305,0.009169783159493667,9.62803789856713,0.002059474649312433,-0.006902096585427761,0.007399034208529114,1.9100000000000001
-0.013896455814452655,0.029639067952747372,9.706310745768294,-0.015926672067924186,-0.010302710259954382,-0.0076024229444335645,1.92
0.017904700168552272,0.04306035078449644,9.768880319647433,0.0071391715014968195,-0.00020284480697455888,-0.007679794447225874,1.93
-0.07727651615771317,-0.052520574717770135,9.866690548648652,0.005427546064502449,-0.009900599013639672,0.0059852807868831575,1.94
0.05522418693401639,-0.16116691038446473,9.638113113891192,0.015283862836054206,-0.010335779923154147,-0.011705089959638164,1.95
0.07938417319510287,0.07017240918084121,9.873928867187033,0.007751050328648213,-0.003151185492306988,-0.003926384506461354,1.96
-0.09284324813461418,0.04202480922134998,9.8784193619376,-0.008089580127411495,0.022376354396005868,0.010268392056541455,1.97
-0.03902492755661962,-0.06493564259818019,9.797997947615276,0.0070037303242303384,0.00776177486642855,0.0003206807720272362,1.98
0.01100736985973823,-0.009763531172902445,9.958510680247999,-0.003455666630545719,0.001268942533499809,0.004326857413883014,1.99
-0.04699526423259504,-0.08077443145374935,9.791457251025799,0.016017025460963723,0.010341773863209369,0.0086549936456552,2.0
0.14905915133266134,0.042016983238951484,9.980706941212311,0.007337584505951617,-0.0023802195906773484,0.0073719336967989,2.0100000000000002
0.0046566009302126225,0.050481434181292764,9.941657536157129,-0.0009663051505823007,0.0002593971840929954,0.00218617625206457,2.02
-0.14496109082406303,-0.01695565109443869,9.853830058281922,-0.0023489990632081636,0.0031490450726416323,0.011050447309667812,2.0300000000000002
4.654763383917757e-05,-0.008039751798305716,9.856295028230777,0.006061023832581118,0.012735191257103163,0.01335897749805623,2.04
-0.11796113893417651,-0.098182531773554,9.898906798020821,-0.009061848885955239,-0.005320481823393016,-0.014919239760089378,2.05
-0.02766360389984701,-0.13270469906530866,9.756577772124897,0.005210146238399179,-0.008032402553779183,0.012715526419053347,2.06
-0.004342539626606178,0.13148639798572465,9.853283596396661,0.015105622739453364,-0.0011143083122046264,0.005703873436366658,2.07
0.0889074191128754,0.0018656048706779942,9.574836489291474,0.014151138416365623,0.002034024813971071,0.007445189054954296,2.08
0.18369271329506434,0.1306495802279759,9.79345305538796,0.007099339065275251,0.003622432828560833,-0.009907358507663895,2.09
0.16328787143540002,0.07480523002036372,9.679633681543407,0.0030732520124118175,0.01544287556732272,-0.008474016809234751,2.1
-0.07569641662993044,0.14284258454655321,9.837653823971786,0.014179492870795984,0.0039639504387970976,-0.000533377574965366,2.11
0.04004570940359898,-0.13000789832591006,9.867305258025539,-0.014811344271201666,-0.009112393936170794,-0.005292849538460833,2.12
0.0009687088951396511,0.07241053284108133,9.873008670559681,-0.006766933472558516,-0.010958119680235167,0.009782021939297428,2.13
0.032807670402672504,-0.011184576354440517,9.81050345345249,0.0012003708985477805,0.00790724567500838,-0.012487184857920197,2.14
0.16356191086400404,0.1391034585860969,9.885967594139093,-0.004454729391362899,-0.0023623090269541823,0.0009716134410694419,2.15
-0.008638340666922989,-0.007666325297828136,9.842153694964919,0.004489202528734754,-0.00020899153793673385,-0.006641982096476361,2.16
-0.02333746331099015,-0.09868463263591944,9.789940916538837,-0.0028293562096922725,0.010365975398756397,-0.005240647047182577,2.17
0.021786782872185703,-0.13463360498786694,9.780502708141517,0.005869870741173948,-0.007374506399384889,-0.01635189441771458,2.18
0.16721673412051274,0.10569499908547436,9.912354551100423,-0.01512514335939243,0.019809336112127096,-0.0029025112694440374,2.19
0.06577630814321467,-0.026586565435926114,9.863953400622096,-0.008206118809450881,-0.0127030318252112,-0.012869430571463187,2.2
0.038833292331157565,0.12868344150897756,9.81842258131023,-0.001186128777179841,-0.004710147270745626,-0.01002860730919393,2.21
0.013556072118805999,-0.1743185137203539,9.657707481381909,-0.013968737989200387,-0.003854686805134629,0.010678433386827788,2.22
0.11787104707238989,-0.07007540097777051,9.557439207063753,0.005896442521226924,0.014062001940335737,0.0032863685470177423,2.23
0.09951823287106845,-0.06371031474199872,9.751087393980372,0.004252715306046011,-0.010871171396494815,0.0042704790781520775,2.24
-0.10975324672274261,-0.05768459861351266,9.806010801059957,0.005538031884852752,0.013614927674647346,-0.005189073850929192,2.25
-0.05326226717408048,0.0011600029010879213,9.791071975354782,0.007308797934471613,0.0024320253757795134,0.003038652108343281,2.2600000000000002
-0.11819038072976994,0.06756694927977083,10.034320858238862,-0.007494545875598657,0.009688117039815813,0.003544146082130144,2.27
-0.15750085541027803,0.25939697441567633,9.89247981658317,0.002600256302364492,0.004548896988231461,-0.00438190819425418,2.2800000000000002
0.0867972554311382,-0.13008319454011424,9.793128505624837,-0.0017284634630502249,0.010384897027627696,0.004380518726677178,2.29
-0.10770990173296908,-0.24754367789809156,9.889237809656407,0.0006233983468711113,-0.011726630023274629,-0.0013421754535879577,2.3000000000000003
-0.1087993201510288,0.06428182855536442,9.908486199973032,-0.00584155064156604,0.008295073939755601,-0.006404167054451019,2.31
0.07587308490232907,-0.010130266361101453,9.765727629274704,-0.00047721169443491887,0.01181500580228379,-0.0015499488847087928,2.32
0.09424724485181474,0.04052218786297996,9.879587543933573,0.000814620133231467,-0.01575504385912165,0.003006655512329108,2.33
0.012625730286508081,-0.055252117517092636,9.79033265810556,-0.016652638925106867,-0.013133452668189827,-0.004491427340864457,2.34
-0.062339107683757645,-0.13634162148670043,9.681606399286654,-0.009217808364303066,-0.0014626496073130056,0.0064301502432617145,2.35
-0.1600362756387272,0.07097754665295168,9.719603551740914,-0.018247811227705912,0.0016961002683456808,0.017028280947245712,2.36
-0.0421113842271757,-0.040012623407019436,9.749636474643404,-0.0023261906496865473,-0.002321068696786668,0.003166769014214251,2.37
0.1652939084291985,0.16664303765138272,9.840496924697591,-0.006313577783722736,-0.005666167544309837,0.004638202263490718,2.38
0.045424110138068845,-0.07422560072499301,9.79171100909577,-0.014414272664120122,0.0033933845559458125,0.0002775749203396152,2.39
0.013612825496329,0.05438839796608963,9.717938829014923,-0.005724474823810172,-0.002674032273422868,-0.002116072484947583,2.4
0.033714371175744905,0.1729462320348405,9.751193188478737,0.005082723984901886,0.019921052903271844,-0.011250616744086709,2.41
0.07765993609057342,0.0975086132269592,9.736812283984445,0.000734130207661403,-0.005045210982675597,0.008086057211363943,2.42
0.05008131064971441,0.016620676578894166,9.685599269510341,-0.007769913246425676,-0.016982097928966104,0.013946782848886702,2.43
0.07869006633967315,-0.05218887651233617,9.76008123341952,0.006838593763711059,0.002657020536627591,0.007751143043962543,2.44
-0.03387694597169363,-0.2655115330453915,9.76995620421995,0.009445049610433734,-0.005988027383562409,-0.003084717193066523,2.45
0.22322484363917192,-0.09354488284293784,9.913835737509945,-0.006342592414292889,-0.003958799833000819,-0.019920247660885404,2.46
-0.05989851099240165,-0.04698105808600038,9.856769353793016,0.013231212286819139,0.00027841116595768564,0.0200682024590717,2.47
-0.12857520978982864,-0.018920846969803392,10.033993641766683,-0.003739450913684621,0.010679695099994498,0.012212074651611239,2.48
-0.052621079966599954,0.12588146424992241,9.841127525241339,0.009171315711556478,0.009164338523878223,0.031156446560894953,2.49
0.08051557108508602,-0.019447720305049203,9.840635885198271,0.013780433770916692,0.006809290994035451,0.002290002017918627,2.5
-0.06937055750207799,0.14465537314244312,9.858701098713176,0.0073394295635302795,0.005258208051337691,0.0034720954915787375,2.5100000000000002
-0.12836182344004982,0.011240760415165446,9.925149109842074,-0.014275038136556737,-0.010299210162415575,-0.010839514221978753,2.52
-0.07230358308898642,0.11256583390226094,9.740220913929578,0.011048783787775233,-0.012325146565154843,0.00038576968772084555,2.5300000000000002
-0.036733500840625814,0.08482860119896099,9.853112101648007,0.013786975963791942,-0.001956415902621427,0.0013331877180531465,2.54
0.030726560508751544,0.088695927632938,9.872377637814022,-0.007881101871023411,-0.005006054181517153,0.020607171687365797,2.5500000000000003
-0.036977744207116595,-0.04860931671612736,9.784551713627145,0.008099623916479034,0.009468727153500067,0.011108059288503985,2.56
0.08591542450842582,0.017132755832421596,9.820006432572782,-0.00017207084486956615,0.003291581846684785,-0.0014597423682329621,2.57
-0.015828132642221222,-0.05313646539687558,9.858095337946615,-0.0013861306928854684,0.024199535795669382,0.0051063525667877216,2.58
-0.09008539959993543,0.08849278897727902,9.838037093397629,0.015188299627246667,-0.0016174244506506911,-0.012545801473104039,2.59
0.07956920221411072,0.2534460212330327,9.72488395274595,0.011745216050035676,0.0071745748594498875,0.003893682050762356,2.6
0.006359363920717479,-0.0874798267692213,9.889384807361978,-0.0015581566617062816,0.0030498854441268755,-0.006094075838332616,2.61
-0.06942296244439924,-0.046050501644385594,9.923266024447356,-0.010356549701654387,-0.002841188505309627,0.014698724753525152,2.62
-0.03415525059377019,-0.11949854757910912,9.779902271829094,-0.005987810189933456,0.008519315253543127,0.007877128719679615,2.63
-0.015726936962822305,-0.05901696093375783,9.778805024020006,-0.009023320861902131,0.0063227459045959306,0.006322735244658584,2.64
0.07693268678193486,-0.05087671878383522,9.858735687752526,-0.005933105681777135,0.0024110743631204972,-0.018517416447825157,2.65
-0.019441518476097,-0.10149239608768801,9.878442535870226,0.0020993432087369644,-0.00124190297240969,0.005121567938592475,2.66
-0.061573566415949244,-0.02294692748661134,9.725362597022126,0.009957604116838197,-0.008175270581351231,-0.0055648398871528375,2.67
-0.12294483686218782,0.04489461413263231,9.839172458124356,0.016467842501142665,0.003234083319516144,0.001026806836424418,2.68
-0.06692141309425675,0.018984672149607477,9.926361068922384,-0.0005126725355052661,0.006226767215326626,0.013800193146523176,2.69
-0.11296618494419322,0.1145404098323256,9.75395287441103,0.003066759547271877,-0.0005479265907807338,0.005896196950229041,2.7
0.05297225958734281,0.018051042224671944,9.713582562918017,-0.007666209972365158,-0.002041085849572806,0.01201916223787983,2.71
0.14047815897033206,0.08718645743444346,9.75689033753661,-0.009044383131153093,-0.010006891223404476,0.0024666074921983376,2.72
0.02168490130860953,0.11937496192692759,9.753515326049119,-0.01114930495132657,-0.018348536942001028,0.0031924221655385294,2.73
0.017983657969049802,-0.042589511054084185,9.639385840611613,0.012298070813301865,-0.0012733576082640248,0.005778621336252199,2.74
-0.045328026637893,0.015564633500398443,10.103738703385714,0.0017262543737699976,-0.003916003466818437,0.0020956826725961196,2.75
-0.020522565148232235,0.06523952587505709,9.818099928519656,0.003649822597138499,0.002315438491291476,0.0001992556275437917,2.7600000000000002
-0.02997786977051652,0.03211649626663756,9.791964536552936,0.005220264325247327,-0.006433128218939458,0.006967163978551976,2.77
0.020655480067205478,-0.021238130634466168,9.806112715731585,-0.00886269927840079,-0.004306228047765299,-0.008019339577266454,2.7800000000000002
0.047571005951439274,-0.146851105889922,9.733067187210377,0.0010852195023688172,-0.006643104934621165,0.003985986829380994,2.79
-0.001502883360468138,0.010508086263717836,9.835480513634613,0.001188754961989939,-0.008156575969082775,0.007910075849031669,2.8000000000000003
0.12969284956913366,-0.021029213230352596,9.533579230643406,-0.00016405057515682413,0.0004333910757593546,-0.014485340736555363,2.81
-0.05731599564543444,-0.06658538269588347,9.936799622507584,0.0017928816887783174,-0.006173382557062608,0.005761250926020053,2.82
-0.027209021833466737,-0.022414894471214517,9.828190148847785,0.009793108937270261,-0.021844455433407038,-0.00309785301849706,2.83
-0.018106726742249765,0.006788722947327769,9.699037605927842,0.01439196474729866,-0.014188171094515385,0.0024429329044539424,2.84
-0.11192152415240358,-0.036157450478493273,9.729083941668858,0.022818350662429862,-0.005633931409012414,-0.008005792787272035,2.85
-0.1629825903730844,0.02900099354039098,9.767682225855216,0.016884470964386597,0.01758241715195377,0.010915520550906943,2.86
-0.02831139519909744,-0.13300475518519556,9.693514325011826,-0.014477655046472906,-0.016501077677249322,-0.007632513437372228,2.87
-0.10440040969973839,0.19107514158677538,9.838375664359534,0.010095054747046866,-0.013160618567135716,-0.0168247762913555,2.88
-0.030905266050307897,-0.03890438579551826,9.924527776868693,0.0005862334411905438,0.01137775808613858,-0.009885817372782203,2.89
0.05187470001650834,-0.07569384349499925,9.81256128243325,-0.0024762871255409047,-0.007879999322863781,-0.00846871468559475,2.9
0.10331607271537394,0.2861731305383514,9.817016720031933,0.00014753677075703196,-0.004092458302178524,-0.01641059050130467,2.91
0.058499981638261915,0.08798346576150451,9.691451385984287,-0.010713958742450791,-0.002638459603598008,-0.0004664661724747881,2.92
0.07941510113197356,-0.12139885130832678,9.87675749181876,-0.00983837728396177,-0.004963241688573143,0.007539501337713872,2.93
-0.08292348740124664,0.1261426196751879,9.622716919048932,-0.007936939375997544,-0.009469318425214698,0.005510280666827385,2.94
0.056547296820830886,0.0013610074542926732,9.948725474679904,0.017567314800859723,-0.001864996661726202,0.007056318743886626,2.95
0.10408867493129258,0.04823507177461053,9.827626467865652,-0.01091151353258617,0.015612247439082278,0.015627546135776257,2.96
0.015728102548484463,-0.18866416772512437,9.761506781750192,0.008717086804049255,-0.009342967082405085,0.013791231757135612,2.97
-0.008780067152025646,0.0027289856467897855,9.760270639104245,-0.008730999725606245,0.0027754676737618894,-0.013680792748524977,2.98
0.16908060938251576,-0.11489800309473715,9.811703448708103,0.011360100944171468,0.00832064489798073,0.003338372236531849,2.99
-0.09353491312880831,-0.0024707482241112257,9.679123802156484,0.0010486255630280388,-0.006961503070658702,-0.012522392527525959,3.0
-0.1221523199427642,-0.05570870739718695,9.991749606097644,-0.004365781291677934,0.0012109241000873914,-0.024315882491216533,3.0100000000000002
0.03641210340696687,0.048023764842207814,9.898868126841469,0.00512331214844843,0.0007675565982530974,-0.005870375948088995,3.02
-0.008918943020735181,-0.007134809653887098,9.877402589541605,0.006041628627458538,0.006158106201728907,0.010781986933598772,3.0300000000000002
-0.015520440230814093,-0.046487539098438356,9.87267909436408,0.006980100352258194,-0.006325653702219225,0.005257776937203817,3.04
0.13780355054398796,-0.1118183111951447,9.859893757552992,0.004389678990457264,0.019264157890045045,-0.0016310683122098487,3.0500000000000003
0.056662983487558376,0.0003619010859852174,9.883871968498887,-0.0018296662505142033,0.006812570528233526,-0.0036590768665694983,3.06
0.004939647072749416,-0.03344946898386522,9.892808473640748,-0.005625861480644922,0.0016522579633882167,-0.00384913984111387,3.0700000000000003
0.09909107210112539,0.010848185977369059,9.844044299181949,0.005774652569548712,-0.0034369906520358364,0.013844009268815795,3.08
0.17451575347807438,0.12624951446513094,9.872011609742732,-0.008403035462646603,0.0166460453983577,0.00061558195831744,3.09
-0.049673176419397724,0.0015423377811624752,9.811630316374288,-0.020377067618788876,-0.013854949409038957,-0.013345971825073006,3.1
-0.044528831889898715,-0.045710983021577944,9.861852128281772,-0.009530573683349048,0.011695979309153864,0.0048808517350135425,3.11
0.04787651047267111,-0.022068314340818282,9.954878255858668,0.0029745011808536797,-0.009370600187956622,0.003063006854923974,3.12
0.05490257100064275,0.22765353889137355,9.796696290998415,0.015705523670781155,-0.003335608480658177,-0.011553009164602389,3.13
-0.09321997392846657,-0.17329778494916692,9.797012349586714,-0.013613060610990635,0.013636186473906653,0.01210795040833755,3.14
-0.011687918082048353,-0.05571956218327581,9.86322739524462,-0.01397499574587155,0.001420945558465673,0.0044546274903496915,3.15
0.12423091656497492,0.12320259267596789,9.869156665420043,7.031244722905232e-05,0.011597534694197331,-0.02074921463201037,3.16
-0.01778716803657652,0.11235087403466588,9.63530049813192,-0.0010880562259355396,0.01853997007494319,-0.007224691057702142,3.17
0.038804282932784616,0.009491708529152286,9.88936165088556,-0.007245429432115034,-0.003387017719512769,0.03483314946418949,3.18
0.14682990152015615,-0.10110836377133288,9.550309180364534,-0.0015601629611218999,-0.003267063986474634,0.032731941235678894,3.19
0.024409583753314507,0.0686329183924957,9.784202155355972,0.011384617285803257,-0.0189161858402183,-0.0008780254727813101,3.2
0.10956438985439575,0.03110542652018654,9.782070920703038,0.0010479339271858305,0.010798450786336478,0.010814257867422935,3.21
0.16232218057249503,-0.04305904958607677,9.786636095904846,0.0025467932968366177,0.006096183021259991,0.0060994989020464975,3.22
3.2357041139363816e-05,-0.10378876390426045,9.806767820606527,0.0013366354077809072,0.0049963329971138525,0.007716943680270297,3.23
-0.013885754481277808,0.023683776801755624,9.956575637372321,0.0032488339010583954,-0.008790358659192409,0.007007393802516899,3.24
0.13202424701770762,0.08168787163533017,9.805356584965299,0.020509361127032576,-0.0009078278556885223,0.003124522205432068,3.25
-0.017399953814376697,-0.21456327654454352,9.667649095265165,0.02100435559543106,-0.004528488064014727,0.005469669630167203,3.2600000000000002
0.053980756304818314,-0.0826065373966004,9.641322037961919,-0.0161892099688114,0.03439659925470179,0.005907689789151219,3.27
0.025779536629259744,0.0039007218358068914,9.724025604490926,0.010180951490161568,0.0005617595356394102,-0.006444224810976339,3.2800000000000002
-0.04838491857850212,0.04501064602001877,9.773290398936075,0.0016357644996696436,0.004972304105057261,0.009145887074815845,3.29
-0.06997919493834062,-0.054200850970766615,9.783429554768455,0.008097332797582523,0.006118687174363903,0.008871173767151234,3.3000000000000003
-0.06907673324188648,0.11475714238093943,9.907638595335586,-5.9839042024757176e-05,-0.006635787803420484,-0.002491112395149603,3.31
0.1250900247627613,0.08242182852297107,9.74209690082828,-0.005486932704692796,0.01557634172424323,-0.0059851107787043225,3.3200000000000003
-0.18534656953755924,0.12962133377366306,9.57817914203973,0.022621155143676307,0.00918357990414104,-0.014895961019473419,3.33
-0.07053839703640986,0.058930607935643656,9.876949537304961,-0.007759198158486392,-0.004951665836603071,0.009914832521324557,3.34
0.11780791898774937,0.012521505880798457,9.63804723546891,-0.010049618410389817,-0.0181830002553452,0.0006429062953538173,3.35
-0.04166098215060418,0.06903833149167408,9.79211325802428,0.0021106604460662797,-0.0024082233207488343,0.01793573434347823,3.36
-0.04172813814854964,-0.06886570735495973,9.720382019265738,0.00653998087204232,0.016443818823628126,0.007552857770909315,3.37
-0.03677347924689247,-0.17936273593759722,9.783116460384445,-0.0010011503172780967,-0.004949366742762063,-0.003797542039643051,3.38
-0.06245723762960839,0.10434916426616597,9.937205416754615,-0.005555661506600787,0.008421363679805213,0.0019601410600512377,3.39
0.24640324903170732,-0.06791223286609972,9.877596941880604,0.0065574780772318635,-0.004838412900277979,0.01332227763610956,3.4
0.10775253730394514,-0.05953191549100087,9.80108465301278,0.0061896630648619255,0.01115181860602246,-0.006735128446644017,3.41
0.039929613633402,-0.2423676993233137,9.915756215443933,0.0035507613399272516,-0.012205279901664833,0.020254051874856547,3.42
0.018937673799042057,-0.09421551402304583,9.664060637688587,0.0041422447371186515,-0.01560300708754865,0.004718451514040569,3.43
0.04467927198653567,0.08879704000177106,9.734489636585652,-0.009552402131826593,-0.002903619336355694,0.0003338202273184585,3.44
0.016886353441704416,0.10713039407920365,9.879609622603997,0.002653608524455483,0.0006930826160445568,0.026246058846299457,3.45
-0.12395123130987498,0.03705389140888094,9.763562751046074,-0.011394788088996024,-0.01258880185443754,-0.00721094215500415,3.46
0.29277396890773194,-0.029185261110927896,9.854141439751096,0.010136387757406362,-0.0017867639286918732,-0.01274273122003021,3.47
0.10813112338625397,-0.10023723002776992,9.86667824102149,-0.0026949195119713378,0.002560562705088573,0.0024821456990327057,3.48
-0.09479937779468811,-0.15119306543028047,9.768958744609689,0.013333110917070585,-0.00823765398561355,-0.006698183504815266,3.49
-0.2028985148068717,0.052259855941467065,9.896952309619136,0.002078028927113077,-0.003081618547784542,-0.0005516347136380677,3.5
-0.10160074901613958,0.011919943163056324,9.82875161734515,-0.010993010938248456,0.002946485001739499,0.001842014134206804,3.5100000000000002
-0.05488554144232223,0.21768615884560583,9.957712999789727,0.005724699219646126,0.006507769300092494,-0.0019404086317624174,3.52
-0.0025977759096694458,0.08434056841566487,9.884670192556909,0.012057230085805727,-0.0013642253198135768,-0.011637143914927517,3.5300000000000002
0.10808818583845303,0.06319097687438287,9.862793253383762,0.008577760345108348,-0.0018482602883172037,-1.2193315886455546e-05,3.54
-0.003620595228285287,0.044256475261865186,9.798058793861168,0.013478457579835092,0.006898952957569907,0.005713635734441978,3.5500000000000003
0.07736417195176239,0.14804160015743326,9.921763946552446,0.010696941689047543,0.003225070842902541,0.0006124702998051464,3.56
0.10441410498652169,-0.05163904073296868,9.833664591714458,-0.01095288759638863,-0.02047144470670241,-0.0008834454806831163,3.5700000000000003
0.03065659998900197,-0.06946651274501842,9.699922241188753,-0.015108252960939173,0.007210755496517916,-0.015428124892924536,3.58
0.025040650612314586,-0.028915684466148197,9.768511802782612,0.0027973206238167503,-0.01660571496316047,-0.0002511871244004238,3.59
0.00858494829034489,-0.13547177746431788,9.74337309406514,-0.002772817232142558,-0.01694932755861337,-0.0034730964205747054,3.6
0.00997632374019589,0.001604382273797744,9.947100817223772,-0.0036090273030447233,-0.005083144721840427,0.015276111582188185,3.61
-0.10491273113938693,-0.09612513196869757,9.871989890434534,-0.0056559828666109336,-0.004111676463776227,0.0030695416094299937,3.62
-0.22443686301800458,0.15905830745848681,10.001964112549706,0.00765100053093119,-0.01850245994919457,-0.0015260707698762455,3.63
0.03292162008119417,-0.01105286568027396,10.009958501524574,0.008768220291917725,-0.010854206388434588,-0.005102316784390006,3.64
-0.12405560734003943,0.20992238087868895,9.794282891348024,0.0009420273704765518,0.003859133681533699,0.0048533160574656,3.65
0.04142302650778637,0.076460545231184,9.736052099682505,-0.01354192784805568,-0.003360792175770883,0.01034325039655023,3.66
0.034245925379192244,0.1561583561078007,9.724500785633367,-0.0024152064883358215,6.74126618875911e-05,-9.121752809393752e-06,3.67
0.06896354558690154,-0.02417136866841553,9.859064211537724,-0.01564154911090619,-0.01538517065056197,-0.008348936068875143,3.68
-0.05762892451189175,-0.03084816540873608,9.964312764245264,-0.0009112607766071259,-0.007708764243156379,-0.00476114633336415,3.69
-0.1309673266679192,-0.03818363974674182,9.789954357102854,-0.003248340017600586,0.025617914863015616,-0.00944485948250353,3.7
-0.0017052395309621726,-0.04234393631856353,9.724541280350724,0.0012584513893948391,-0.014355719960979577,-0.005139096030639437,3.71
-0.16269740400295585,-0.060392558969115544,9.992545905026777,-0.004082343988207232,0.00843742501174725,0.009176358292844427,3.72
0.032772007150813846,-0.015311774148213317,9.691579339126575,-0.010031124918304405,0.02466009005472531,0.0030573001539120777,3.73
-0.17360736602002383,0.10687950772662234,9.959308908327221,0.013836336364516613,-0.010308366295255231,0.004001130794585474,3.74
-0.08585138391582109,0.16412968541829553,9.754784767230214,0.011330968581079895,-0.013672045243319426,-0.01837912523718553,3.75
0.07884767583827329,0.00140911932979252,9.922616031342567,0.008055875624204093,-0.002615397039691516,-0.0028511429599245588,3.7600000000000002
0.07659470723285738,0.036688726907501426,9.663846085989961,-0.0019982882498717773,-0.008445962661580172,0.005994002529956658,3.77
-0.22191801338412495,0.06303377739198489,9.911575626679824,0.01634501266137142,-0.015745765658872472,0.0008369298945549259,3.7800000000000002
0.01921300739506443,-0.0382522465415705,9.790410617541188,-0.001970181920254257,0.0010249406173818533,-0.016909824892696306,3.79
-0.01856002130938787,-0.11459055158504766,9.935146702915189,-0.0010880393864691744,-0.006567995799233393,0.022787877450291684,3.8000000000000003
0.04381330596018226,0.040545303901263846,9.809506867835976,0.004016304127013743,-0.01346094117021883,-0.007929414692136228,3.81
0.1896386825733333,0.11759304402495743,9.862682511342125,0.013114064250093321,-0.011634403877014537,0.01247311156293165,3.8200000000000003
0.1602788146523311,0.008593555306872641,9.709908511007264,0.004151250166391491,0.011019606652823484,0.008569508984303172,3.83
0.144607068281795,-0.028601830345058865,9.676052060364906,0.00896937454772269,-0.011603523279928958,-0.0009227269163376479,3.84
0.06716836131689526,0.08789353763251004,9.891841532672583,-0.007344366632741063,0.003890540645618715,-0.0089599262099255,3.85
0.15771507966671094,0.1093370253007512,9.819599623142217,0.004174114591428879,-0.017376051031898637,-0.012359242978784886,3.86
0.13181741499821392,0.04115632286692679,9.771818142242175,0.006074674476291475,0.005333711976990285,0.017610809871494604,3.87
0.09542860052902981,0.0258443644767078,9.771712836484234,0.004053414937912242,0.0036505802852639857,0.005470747668298342,3.88
0.07969656269301352,0.009734620307232711,9.765496835280398,-0.018477731009161235,0.011344333603454198,0.017801949682615777,3.89
0.0017064670557640105,-0.10021614237868975,9.845964320490086,0.004074347039214214,-0.001822211243606483,-0.01486846075633111,3.9
-0.05323929466402427,0.10819664541355865,9.857481812158262,-0.0017556429080794072,0.000993282742835836,0.011687588863878069,3.91
-0.1384482648239271,0.03878852060758962,9.691171298172733,-0.010013234869000432,-0.02459934967428888,-0.00048297332466533085,3.92
-0.009238484146985207,-0.03731409018284285,9.717534577545342,0.004623085627278214,-0.007486458654235602,-0.002075913151941401,3.93
0.31178836138996574,-0.03317752101401266,9.929310089086698,-0.0017321854981018027,0.002233598633122484,0.0024664864633307908,3.94
0.06753284119956696,0.14842338187559104,9.837513850171382,0.010792027876216812,0.0012183179153580153,-0.002605994726932047,3.95
0.004480981641111906,0.15016706915640374,9.74690173832157,0.01538795810483298,0.0033305752567765086,0.0040215175818696085,3.96
0.13971832364375691,0.08876379593266875,9.573145334534681,0.010170034683424383,0.002425961153213014,0.0009444639966371818,3.97
0.1323388488050291,0.12882192083368693,9.811883822328046,0.009303874652358376,-0.00860157494123211,-0.00015169310624020142,3.98
-0.02562009936777875,-0.07707578040195558,9.780693317995999,-0.00753119233132189,-0.025942639050675655,-0.0021520866814674954,3.99
0.09011266810672251,-0.06573686204337237,9.824599766996004,-0.0031399404739743636,0.007510404501270131,0.009426470867286835,4.0
0.043024554979815444,0.04391428851048817,9.824673993078356,0.007785772625075098,0.0014680199894389534,-0.008621275271772966,4.01
-0.15279846075705666,-0.05691496922751284,9.85916643535506,-0.0038972655665990316,-0.01384036758743438,0.004801123808515414,4.0200000000000005
-0.1102614306032424,-0.07667760225206222,9.740758511125298,-0.004571151740087717,-0.0186749175445105,-0.0024730036530880056,4.03
0.10569673211910527,0.039649096625924536,9.902633870382198,0.008645592359848797,0.012133900793227775,-0.004725072042947016,4.04
0.0711024180778209,0.04044395526281973,9.763779277775313,-0.011097363181023855,-0.004612386979561014,0.0038457572643543665,4.05
-0.0626467440843526,0.04689079240679753,9.696918044886646,0.0020555465487961558,0.009451644498899122,-0.008802922625877022,4.0600000000000005
-0.039583483197352415,-0.1526165160380223,9.865203395126896,-0.01856526698323659,0.01049050758296707,0.017692753037562944,4.07
0.06959289705480248,-0.12275217309036608,9.782106024148275,0.01649350455847443,-0.004355555733646759,0.00282968942815042,4.08
-0.20135673816076985,0.08657887847229567,9.766643734392023,0.010810175608669776,-0.010992337253387637,0.006674761756593039,4.09
0.04445489070798965,0.044481715697928755,9.923877562823035,-0.007502972351378002,0.016950948991847493,0.018232205565769318,4.1
-0.13619534101627515,-0.01995534406266694,9.713189658160436,-0.005058236584616996,0.012414221873575602,-0.006412505734497189,4.11
0.06546250892862293,0.03164794313862346,9.794657683414071,0.008717731084375954,-0.014218650534732105,0.002315340758915659,4.12
0.028769205721802013,-0.04506111949378094,9.730549938205359,-0.006087645929005554,0.00758106431147557,0.008112060434574029,4.13
0.07316784976568222,-0.09039864051317466,9.70871426390835,-0.001131227053216764,0.016229147344121713,-0.0029488127743393976,4.14
-0.05950089816940157,-0.12392595150935826,9.801525010330101,0.0018000050092732212,-0.009885755805628362,0.004593724075604099,4.15
0.11327692733363376,-0.05925404756646675,9.776296326430504,-0.01188230195078642,0.004204114773354503,0.00573581122425154,4.16
0.04769153912426733,0.19564733486023145,9.726781045142223,-0.020970153743211664,-0.009488998372382169,-0.0027125831683279525,4.17
-0.172717657655501,-0.07287076787529717,9.835610429520493,0.006668460170251201,0.00660365747216212,-0.005696472541439473,4.18
-0.041141845330439485,0.02651732380822829,9.669115604354445,0.01168789150667371,-0.00527322308908568,0.004911486543833683,4.19
-0.038992877901246614,-0.007119889688259998,9.853318485532345,0.017359318882174842,0.008654770546095585,0.009572809306948923,4.2
0.030497817787291073,0.10581301304629004,9.716825408238757,-0.008298498506825978,0.006442442513780811,-0.013376206182248074,4.21
0.046138326997326735,-0.3008043534036926,9.641971313390822,0.009850444608378797,-0.011645715285778459,0.0018262428636443661,4.22
-0.14555631247196768,0.12084732146518946,9.710739045779764,0.009267806101525018,-0.001647101982613012,0.021711701349240563,4.23
-0.1348511154172231,-0.27978062666366016,9.848775606114359,-0.023350949768615382,-0.0049712830080104265,-0.0024370820925772975,4.24
-0.02147327470909705,-0.14090250198095755,9.983346865936928,0.008509386145467406,0.011793987741279256,-0.002372516935029595,4.25
0.025684443079418275,-0.11294155172064468,10.008055839505372,0.003122916712196238,0.013085343433974612,0.014841342221173457,4.26
-0.13383929627800223,0.204211448730224,9.782985620148088,-0.007021575689689439,0.009829985867561704,0.00035205411024752484,4.2700000000000005
-0.012520650592743666,-0.054409085445274286,9.811226982553231,-0.008874038700420476,0.018556008649872984,-0.017600915864463555,4.28
0.023225632180005007,0.011437214033363978,9.645732945924578,-0.005721390209939059,-0.0026729098602841423,0.019815633402033895,4.29
0.06521439568542707,-0.0692853127793694,9.88792432776031,-0.005699463145138531,0.0014204074002540745,0.009892036299863521,4.3
0.0959229931151849,-0.05201583258710185,9.760316747581994,0.003561113737806187,0.009288066769269816,-0.0011386443085291355,4.3100000000000005
-0.09508758477799012,0.1711119389409769,9.665843155329217,-0.0006832197796539631,-0.006597156855193751,0.018631035720965864,4.32
0.04010885760903766,-0.07175248092837981,10.071347386412851,-0.0012510384159809193,-0.0032310359921661103,-0.012673761675794116,4.33
-0.007265392528966167,-0.005237274213693409,9.923076827740998,0.0003968829532979557,0.000456301583242497,0.009273785267900096,4.34
0.1083200633141392,-0.10810808766113163,9.741846415208567,0.002249543115722876,0.011915450958166816,-0.006659140577809527,4.3500000000000005
0.09656296119922915,0.04777118953620735,9.735950167192378,-0.0036447993259013482,0.011844266312547124,-0.008699818784792588,4.36
0.045996474701712795,-0.16842299139513234,9.615509805026884,0.010129144782383795,0.007271552921458008,-0.012737296275944688,4.37
0.07962138644498451,0.16896212402686978,9.692811914564244,-0.012457794870378259,0.007861778726012346,0.009193229082204019,4.38
0.07452357238132204,-0.08394705973714983,9.986262413421903,0.009087980247060293,-0.0017890977927735327,-0.009912762701764869,4.39
-0.07482017716536878,0.10579899623010017,9.743390876364774,-0.025108814803453117,0.0004459469746797341,-0.004033645397536209,4.4
0.06335696198209122,-0.02434883269420692,9.917417322087152,0.005594272237695446,-0.017788715157808076,0.008289678322833364,4.41
-0.024714726368175205,-0.09141252075859489,9.86904908041949,0.0021217861635388136,-0.011835364811938889,0.00847774495923036,4.42
-0.1040170820246144,-0.040082991046412074,9.659796815179005,0.002437157178569832,0.007672693118835462,-0.009220033966626181,4.43
-0.07652222785965396,0.02083037207304858,9.847848533010438,0.009289255623691765,0.0003503976865134924,0.011495961320119472,4.44
0.02900679451165394,-0.10675190157043009,9.941591986540002,0.0027443650074214197,-0.004647668980695206,-0.008126218220368478,4.45
0.26099684114318145,-0.008630518149305325,9.897187359093705,-0.010301048161250121,-0.007053159189437481,-0.004554762242523722,4.46
0.054226797705243725,0.17192363328976593,9.778293953199006,-0.013947590711000633,-0.0015198611671133977,-0.009975793996522158,4.47
-0.15091623350585906,0.07640925539501094,9.77522246589264,-0.0018090304066866755,-0.004983180828443334,0.0135933696738514,4.48
0.0033879722428410337,0.00895593111754416,9.760362653233324,-0.012674345637566928,0.00632034096955382,-0.005910202113187358,4.49
-0.050422409675254534,0.021995192414455897,9.663894694909315,0.0035188294867387043,-0.006512997622211993,0.004329555958926702,4.5
-0.06063674052250826,0.1057008118087865,9.71445761007751,0.004078111076678899,-0.002726211633487818,-0.00047436885103326623,4.51
-0.13354941792264652,0.020327313463485153,9.945771944599748,0.003315774074506413,-0.0030121812256805325,-0.0021262277343695518,4.5200000000000005
-0.2088805143240832,-0.16887221238780037,9.880681423801583,-0.01786847507444258,0.0033485866922080233,0.01296871127510175,4.53
-0.14020021082949438,0.007065376825467911,9.716722883918127,-0.007233088835680463,0.018678017868787384,0.013401816452931767,4.54
-0.12026366484444768,-0.002522658137955155,9.932483594845518,-0.008165413519924631,-0.007676405317345875,3.8001940678910096e-05,4.55
-0.03600223887662938,-0.12515587735911568,9.83940585775296,-0.007133692213707146,0.005597124721393168,0.0015874041336777101,4.5600000000000005
-0.14440618237467048,0.04829461067522993,9.775549372885463,-0.013157635507923844,-0.015131941774576036,-0.004256378218049882,4.57
0.0518322676900535,0.009067389475734197,9.861299893225592,-0.003976686855648047,-0.008170827446591809,-0.007859052579585938,4.58
0.04133411556389341,-0.04059049959272244,9.92123484998914,-0.012850351462330618,0.010231715125068392,-0.009292029970411368,4.59
-0.36937818275466927,0.16077039384090377,9.729564469071033,0.006169283637363135,-0.0029317592290823624,0.003860760443539031,4.6000000000000005
0.04008738244526773,-0.019365570712273378,9.756534137182229,0.004449275818325833,-0.003436596567341225,-0.005348627152654844,4.61
0.005814076133995795,0.021995972531105842,9.905116239167226,-0.014039574056144019,0.005119455879443648,0.012909073944987099,4.62
-0.033953755291422964,0.06520760377387444,9.814337945628687,-0.004257913833624805,-0.009188169009690121,0.000783167152911623,4.63
0.15996326578833067,-0.0390830104945261,9.792697596505468,-0.007460187639393755,-0.015890160103730604,-0.0013168750788326142,4.64
0.054512544883101303,-0.04132170039542262,9.802318765450122,0.0019483746882377087,0.011794031798807583,-0.009287377824742631,4.65
-0.008691972004690213,-0.07374082576919756,9.828666395161576,0.002974702366386195,-0.017772624879519333,-0.009305968531971655,4.66
-0.08082743035411627,0.11060378412668122,9.845384996661542,0.0028486243475333486,-0.001664397287707236,-0.010567092104959265,4.67
0.10216435856250171,-0.22762917891568826,9.808974029971633,-0.001437338012293147,-0.022766308801821535,0.010664981696736365,4.68
0.003183997976401983,-0.039239091128393265,9.72581582301683,0.010332259585560648,-0.015277521442026999,-0.01497478376330714,4.69
0.055736188344315984,0.1439788771256519,9.872958706163816,-0.00307988172831618,0.008891056104018271,0.008259272401920495,4.7
-0.023012986775248795,0.11791631619740664,9.774588841015065,-0.01396223093515844,-0.01658677075548505,-0.014715113598127707,4.71
-0.016726966425881628,0.020767205290024782,9.826373533976481,0.0017130889207864917,0.008672100404360757,0.010207884560090037,4.72
-0.034047241736563025,0.12412316542225564,9.693614623692094,-0.013759456392363305,0.0069742971041170535,-0.012773998751447177,4.73
-0.1290243616549965,-0.03458441388155353,9.703595960353756,0.015059027798430932,0.011735889970409872,0.0035584064758815504,4.74
0.042308199416101824,-0.08309599229405043,9.859868604827085,0.015175734425660328,-0.010713539666862441,0.0013327574352559241,4.75
0.04132648954735167,-0.18262000302576076,9.838631495088071,0.006723225259503377,-0.0044565391175584905,0.009635800073306146,4.76
-0.012050673770744043,0.02390527277897482,9.969983815217397,-0.007541346736360563,0.003614416840948949,0.012227146072590591,4.7700000000000005
0.22209231982026748,-0.044241214278586856,9.897371360738191,-0.0010583836418588662,-0.0041365456433170855,-0.006446490037834788,4.78
-0.22840848299968936,-0.07079013790066162,9.716206400372146,-0.002962261414765376,0.005434929307581809,0.0008773359619636851,4.79
0.03443293096957434,-0.09670349167036124,9.653886242726452,-0.016434297140512758,0.0009780657978882817,-0.000378828850785394,4.8
0.022176487165064044,0.027830610638557674,9.726140465570047,-0.0035691866217281987,-0.0011561484693356492,-0.0011435330551493963,4.8100000000000005
0.08386765468703436,-0.004705199270481348,9.897245606888363,-0.0007822183777578154,0.001954131421370341,-0.0003518448903617219,4.82
0.007531825852769943,0.050235339177441246,9.649517952056172,-0.0019401697607113468,-0.0157667114408784,-0.0006696048468195838,4.83
0.009574317485487528,0.04739615608736826,9.745610222741993,0.009522976677466755,0.006961398900940346,0.007315879990786803,4.84
0.03144744603677807,-0.03147894886148121,9.758095760369311,0.00032287653272317557,0.005579348754782656,-0.023601141300567993,4.8500000000000005
0.2071023369614483,-0.05512055014065209,9.730247420042572,0.0022770336079240413,0.01823059780770178,0.012888642087519926,4.86
0.03347292845500249,0.10707124871140083,9.782077651731548,-0.012003872523062717,-0.002877003597967343,0.02160064742523832,4.87
-0.09528815397126164,0.04845371243019311,9.736833847264181,0.015890485807082848,-0.0010971072112315428,0.0022066990738207975,4.88
-0.06743467553597071,0.049289226377206,9.620960057242067,-0.00660629663781712,0.002365047557629115,0.0035835094012353864,4.89
-0.04863180625145165,-0.06668054044540092,9.82308249562616,0.01423239344615555,0.022000579057437332,-0.0007053797261631949,4.9
-0.09542971064716878,0.14402402096824662,9.754976673892179,0.0004771448157977523,-0.012652209963522072,-0.0028207784254376234,4.91
-0.012255237776342671,0.1691248958703221,9.73589569015272,0.012757417539330193,0.0028475776127147795,-0.008440851198138546,4.92
-0.05884168112735613,0.08697790961873243,9.909780433842796,0.011467440929367348,-0.016412317099506663,0.003078401957956768,4.93
0.11354061278970184,0.13045671418924912,9.79934711881623,-0.004199406806874816,0.018705210323972328,0.009551540345269059,4.94
-0.11171532948801428,0.0949954317606082,9.891997526704506,-0.011781459204356273,-0.006249138333210382,0.0012518109005330857,4.95
0.014495945019007056,-0.15128496558738652,9.866335525159153,0.006435151048901545,0.01216947694021874,0.0022056516730946923,4.96
0.10815508878554192,0.03923503334743496,10.03486441582444,-0.013017205264457123,-0.00043550560931190067,0.008606857313707528,4.97
-0.08705164012264038,-0.043742418779169165,9.585873573963774,0.0014638894825416144,-0.013530956869183127,-0.008322392369171937,4.98
0.055225171853705735,0.11374984986586763,9.805596255348512,0.00547976257081543,-0.00817838215069873,0.006698132683281043,4.99
-0.042735161486918714,0.018955718556438718,9.714996467202598,-0.007719815667933726,-0.005615190847735571,0.0016495131533593643,5.0
-0.10313222916083623,0.12220365788356541,9.98645630070045,-0.016437908079361407,0.013105588142402001,-0.004903799233364518,5.01
0.2076413214101721,0.07052857230716619,9.670540985909,-0.003218186591250641,0.002432366485831568,0.003178473755777126,5.0200000000000005
-0.2314048971295026,0.08801120557474346,9.942152758666891,0.00020665221421904716,-0.007466649317321526,0.011639323164012741,5.03
0.09114257196783059,-0.029061472876809075,9.936711870736854,-0.003316208874174087,0.003802946690138057,0.0014049009603942018,5.04
0.08118992866524899,0.014535705858573328,9.765164272992308,-0.007787277864949062,0.007505857715196248,0.0017026254939963115,5.05
-0.04771208141608611,-0.13035712449308656,9.940516845122392,-0.0015787147727619325,0.009392202874840569,0.004829227449156801,5.0600000000000005
0.05049448977540438,0.10637524213346353,9.877889066385194,0.014683888734931419,-0.0006722619120525223,-0.00102252805665437,5.07
0.08318050802176234,-0.13211424704305413,9.617551409665577,0.0012669519142633574,-0.006915714268685877,-0.009900150112431333,5.08
0.054296415783942224,-0.03932099855919924,9.712358513885738,-0.007326063123743537,0.011203539257682185,-0.002814046110576328,5.09
0.10867592616491056,0.035956560399546623,9.735652360734408,0.0023588176426648307,0.007809641898157053,-0.002463811487261418,5.1000000000000005
0.0437600218672643,-0.06519064957825906,9.716737260115389,0.006626829829779195,-0.0006253569884553016,-0.013070331647656698,5.11
-0.11791706769603671,-0.0917389238619552,9.746192823143138,-0.010914418487489091,-0.003966952771441659,-0.000221272540747685,5.12
-0.09805911721734567,0.07658879723052792,9.843902270517457,0.0015504378259165487,-0.012391418888730585,-0.005687432555836588,5.13
0.09371957340165679,0.11662705483696954,9.746834978639553,0.0178188710384268,-0.005222763802137096,-0.012064962939843287,5.14
-0.17402774393488063,-0.09743431971237597,9.77070096651133,-0.007538833923333044,0.0016496698001597068,0.002908799086675255,5.15
-0.05579093239389457,0.1352456511745273,9.92144210772577,-0.011716981492702729,0.0027750534080076645,0.0027024792964312613,5.16
-0.04264588236738878,-0.17310103540069538,9.789076825997293,0.001322631775678987,0.005887268157432441,0.0017042414032384062,5.17
0.07160097746180055,0.17746454925028027,9.963563785221831,0.005597059379910452,0.00047930899962992296,-0.015792935070828965,5.18
-0.03357196972306161,-0.05730601630578769,9.528218123667886,0.005838482239477082,0.005108974162290978,-0.011551955284653106,5.19
-0.11332456413314018,-0.07537643813090741,9.784937619416258,0.012981737930067261,-0.006755874056524989,-0.006293759899413388,5.2
0.07605604402913113,0.11721889604240383,9.948057433879027,-0.013226865101252745,-0.026076672795341666,-0.011139518028900505,5.21
0.0038199064469198437,0.06922014430045392,9.810687339742673,-0.015125977404269257,0.012689443817304006,-0.0010105058160585405,5.22
-0.16893027146031006,-0.09018448131722019,9.811159461581312,0.009870815306826328,0.002651321235549698,-0.007344048993953559,5.23
-0.042421243312220046,0.0657591272533908,9.686874036152783,-0.008084073850312009,0.003853719662351855,0.004271641600450946,5.24
-0.025327420590574815,-0.08780338383556367,9.827889936180304,0.01701129641921443,-0.0009777496716104242,0.008863394687470284,5.25
-0.053426640120627415,-0.08805954432909878,9.910724877805928,0.00319327558810959,0.004297194833333194,0.0012082729794842572,5.26
-0.19855159500978034,-0.06557054277217793,9.763261761755645,0.0016182405887932877,0.0045727497275181855,-0.0010823535016318397,5.2700000000000005
0.12243618971099578,0.01463023672312131,9.804584156488122,-0.006083264170988592,-0.023616276698511424,-0.0002566761027247426,5.28
0.13155999432136564,0.1427881252449893,9.843548484877934,0.0003826213839281609,0.024818796113026575,-0.00022142078509780462,5.29
-0.07655567554683913,0.15218079947718383,9.712915937395127,-0.005953280965488491,0.015112675557616686,0.002286327875631899,5.3
0.034309487623698974,-0.17345658215702747,9.891550503551526,0.019122363173684265,-0.004338227813929155,0.008173827339054352,5.3100000000000005
-0.07143704785428039,0.07666724273409234,9.676860646837083,-0.004662886382962131,-0.003121917806012806,-0.017652449250078462,5.32
-0.052527065072647906,-9.944444254393844e-05,9.858982336096956,-0.00010232208800596288,-0.011288016662763817,-0.008765744679856942,5.33
0.079407930151662,0.053277040998702035,9.93430213275873,0.0005861425855775902,0.0007778270404109874,0.0028396474938924706,5.34
0.13489692586891863,-0.05148368242895656,9.895524444670219,0.004800797171497339,-0.005890126425051815,0.009427119393054016,5.3500000000000005
0.057517429555616895,0.11545143462009287,9.965462366646287,-0.003967462999000447,0.007293583707989402,-0.0002764366755257633,5.36
0.05184943187618962,-0.0015052913213734215,10.048355370044682,-0.02116830864936677,-0.003150435584215409,-0.008008806083449324,5.37
0.0024844439268747595,-0.05043054510778447,9.739550803433518,0.0014606112490747867,-0.009334137977845332,0.002163286333536807,5.38
0.08435231302550754,0.07071250249127024,9.90315003403054,-0.016927571164802157,-0.007449177208252619,-0.015135647064007504,5.39
0.15057228439916626,-0.04471706484886442,10.008406791700068,0.0037336963558962316,-0.009837031383072714,0.007757927748178261,5.4
-0.16046700078931697,0.0001648759846079831,9.722995270006432,-0.021065655179960622,0.0037271908836077738,-0.0035319988397364004,5.41
0.00033115653522024636,-0.10744795561909973,9.955714237200324,-0.01204811026274655,-0.01185284610611439,-0.015988551768735287,5.42
-0.015312098033027492,-0.0793092138839646,9.913624281897933,-0.0013752136281892163,-0.005448605498139774,0.00031366434637026657,5.43
0.06073774184012888,-0.0353157088859686,9.802999794654278,-0.0277116385092628,0.000287554321361156,0.001597908600499752,5.44
0.04501946243425556,-0.09068955308858125,9.91748021955223,-0.014147458415329255,0.01973722492414979,-0.0031926947457275308,5.45
-0.20290027577150327,-0.1151261670856548,9.740438044317077,-0.01810573655659704,0.010271230569960677,0.008043624637145618,5.46
0.08555476791269905,-0.060938585916479875,9.736739230386215,-0.01018009590435827,-0.018738438573124003,0.020566469350288098,5.47
-0.03761121920255328,0.10256902445024776,9.813171585265668,-0.01031508188282719,0.01137605190669295,-0.0010553548650573718,5.48
-0.006422980475491279,-0.017642691385896615,9.792694908135724,-0.0022897756797197726,0.009380722153527601,-0.004912642828149221,5.49
0.09798872343190174,0.10422188940145197,9.717227289801917,-0.008234807932970937,-0.013222288948759365,0.010252916378380663,5.5
0.0016347013184543737,-0.12223538801143408,9.73067468686203,0.005445995264485072,0.005635323887672759,-0.009485683800632338,5.51
0.12839517238270612,-0.14726507216138712,9.723796794755925,0.005644150160619791,0.00011629814926798114,0.0021993432378617263,5.5200000000000005
-0.13564549321302719,0.06718202671939169,9.616690200075805,-0.0157256563082297,-0.015071634337773617,0.01652124335887339,5.53
0.11745893495896574,-0.019609651056395904,10.000709461541708,0.007618443039993083,-0.008228327403581495,-0.01635004253305546,5.54
-0.04803947779904566,0.02583799648893151,9.823850589939443,-0.007138783862309023,0.00660745506238755,0.008746337887490636,5.55
-0.1217693501842736,0.08146721456613544,9.842273254315462,-0.0015111577845333451,-0.002032568126260211,-0.0011747087067127146,5.5600000000000005
0.14418741063304438,-0.11150821007330432,10.109682005899579,-0.018768018310093587,-0.012027247371127441,0.019692982523811003,5.57
-0.14319316691793532,-0.011203020919144,9.717181175181972,-0.019549671061656775,0.0017198822657731733,0.007346792735651122,5.58
0.06911123319143268,0.008310662730650521,9.766285879164004,-0.020316302799969016,0.0007464534297263677,0.015413592805977825,5.59
-0.04125598850087897,-0.10150889420517417,10.013147320384586,-0.007499387076728718,0.014843487507936997,0.017924988254397322,5.6000000000000005
-0.012172870500573245,0.017367533458642156,9.871116330235251,-0.0008331891216623744,-0.002463565293064485,0.004093040793945632,5.61
0.06166288088261537,0.02264212926327163,9.865958243701181,-0.01444875517484027,-0.005237638230839168,-0.007671052290003438,5.62
-0.03357403651068592,-0.0676502478252647,9.792906222694567,0.01726208280187408,0.017295282734610777,-0.0032373375231937304,5.63
-0.05299907406071739,0.066021415937654,9.981062970576554,-0.0008656333295486715,0.00824786810116827,-0.004025835003130809,5.64
0.06848899835019688,-0.05173329085412168,9.836330453814938,-0.00537019508753406,-0.00232750566210323,-0.005546744681530258,5.65
0.0379704712374168,0.08770472030031864,9.886155516448737,0.008947994431055213,0.009753293392995471,-0.0015260450350131549,5.66
0.0048949849444990265,-0.09886942895802452,9.716866140517016,-0.013467575489937557,0.0073310957335961996,-0.01370846520458178,5.67
0.06392051659061475,-0.0130615774156498,9.868401378395665,0.006095336163819274,-0.01043728124277739,0.0045844187136470415,5.68
0.00011310230705059001,0.09071555827107812,9.818503229145483,0.01042128665170735,-0.002051800175811647,0.004407301471949792,5.69
-0.06523006459685733,0.0865451297317819,9.67574598127225,0.0040023239210590115,0.002350330746534087,0.007564940736108328,5.7
0.032628679307399815,-0.08212320157424739,9.702323385366057,-0.016334398200235144,0.012462890785494235,-0.01830376305421732,5.71
-0.03353936685473777,-0.046441441412190566,9.752752045406025,0.012488550655389846,-0.013117595213600992,0.012095427314185567,5.72
0.14278042870754032,0.004548285261650006,9.930830159560289,-0.01272983276151055,-0.0020308387826738993,0.009696994840100183,5.73
0.01876948173063275,0.026850054611049445,9.882401684015731,-0.00026095878998570775,0.0023950788361781165,-0.013489630698580887,5.74
0.05375840531193241,0.040044191739722734,9.904252392375971,0.0071933272513917765,-0.02724265110861745,0.003234269943123642,5.75
0.10642818956922517,0.05301982971632033,9.728116845564365,-0.0028556739375382467,-0.009842214040631063,0.00252575683778656,5.76
-0.0356125377073689,-0.15461635415765654,9.798493195685374,-0.0023041852166883637,0.008138949443642792,0.0009756752170657149,5.7700000000000005
-0.15085446365275512,-0.19591186381690598,9.674298177712913,0.013987888382922357,0.0013683074384845428,0.025840984115180664,5.78
-0.26155364503883555,-0.16644870140927334,9.662072551027043,0.00603160100700757,0.0004428648493945392,-0.016026493784786974,5.79
-0.18847637778123694,0.13910226822436106,9.85737275853125,0.005907192092641721,-0.002345882134117968,0.0037546904815741523,5.8
-0.21271310572982946,0.21734029029595947,9.816178614980384,-0.002738597722109695,0.011192656321692194,0.006743465331142303,5.8100000000000005
-0.022858340474433206,0.108267843387244,9.826848495832097,-0.008473200983402537,0.019667643522922728,-0.009544564954300646,5.82
-0.06294995395386342,-0.10493781212393094,9.715766699170732,-0.008292732056594589,0.00047325460606217033,-0.0014001321983041154,5.83
-0.043343786568232776,-0.03403531145217308,9.952464296448662,0.008881455594208451,-0.01039565438105483,-0.006541670579605077,5.84
-0.05991070881967323,-0.054174874843067655,9.89522147650521,0.01249898323934024,-0.008824983440650448,-0.004451370791806715,5.8500000000000005
-0.06452513851472073,0.023815176104953737,9.7594780574682,0.006166354905415533,-0.0030305622936656414,-0.015180064234280104,5.86
-0.18044666675294024,0.03128118416641972,9.757044973983291,-0.005737480761564085,0.0014293952074120658,0.002466082683359252,5.87
0.0029011366835509063,-0.06403698995495342,9.759885580170845,0.0034753508751597766,-0.00631308795347517,0.009807972040597537,5.88
-0.12562186242548598,-0.03838018023505607,9.937166577963728,0.010285267041508013,-0.004762965629219801,0.000864216919510101,5.89
0.04156005875489116,0.23766624002857983,9.949104287863356,0.010908256437804858,-0.005293333363640433,0.015856721366848334,5.9
0.03187153923086566,0.004622621401855973,9.86345749454987,-0.006553051956255156,0.00021579646696607942,-0.0009339798802396864,5.91
0.044019506609762005,-0.028735025166517804,9.740760273584781,0.002692432793206501,0.022527283079528004,0.015623215939664804,5.92
-0.047448893589192714,-0.08848360681219897,9.79839527008624,0.006580172576203739,0.0004962977061869909,-0.007510810146447658,5.93
0.0725636979243041,0.0188476595058353,9.778534647167834,-0.008367107930512105,0.012872916878235241,-0.005936938374076961,5.94
0.09614133213761841,0.053833472004901455,9.785044304293047,-0.00032931278734265533,0.01612278348399697,0.011781988602562988,5.95
-0.05854020514871094,0.011464309390864812,9.746294767948124,-0.011529159482967963,-0.01240251903550142,0.009018858174001512,5.96
-0.0333220538440639,-0.019488412817448116,9.690433158553814,0.000842461883813134,0.0010261665818108636,0.007780860031389034,5.97
-0.13316517947045584,-0.07238442140549846,9.664004747036648,-0.008111540839767778,0.0037042846806380593,0.007948445323267453,5.98
0.12460154654169937,0.03156601628159471,9.882524475384967,-0.01544303220240085,-0.001544061352283107,-0.007830486802887254,5.99
-0.1479979408052796,0.09437005928312234,9.88277495907382,0.004200432405842196,0.013507499029140455,0.025310932602596037,6.0
0.10469203600831532,-0.19021954589670537,9.850051868423282,-0.013175129851564455,-0.012889648700639564,-0.015267064087146683,6.01
0.25649102745474794,0.06917598341413243,9.823803768203241,-0.004169146095861277,0.0018955763751930597,0.013000813745847968,6.0200000000000005
-0.17104752198758022,-0.09501683630528134,9.809707056086792,0.014688038346527937,0.012327210594388478,0.018255278031155012,6.03
-0.1900959166560078,0.04541477752347191,9.898844765715868,0.0001359043369605613,0.011154669299955804,-0.004929348149573108,6.04
0.11738193910801842,0.019375688441787015,9.57628098280646,-0.01260482822184009,0.003567528796481082,0.02666182866887678,6.05
0.05267298645447034,0.09353625146098903,9.879194112886236,0.025518745243640794,-0.002209166880891395,0.018928030120371062,6.0600000000000005
0.058281241430934064,-0.052078243803053016,9.784340185774628,-0.001278379654890792,0.012040760288244162,0.0035871435819101287,6.07
-0.0032873033357311483,0.025347309744401955,9.793427851365164,-0.008509870088651594,-0.0022489158816940513,0.005827993460341515,6.08
0.054860961839526025,-0.024348776560292242,9.724383213853635,-0.0017445657450432157,-0.01367222605090769,-0.007756862635643625,6.09
0.00021873030581134173,-0.09262886464155783,9.617233284948416,-0.008060647113558613,-8.174197286678812e-05,0.01693212137260233,6.1000000000000005
0.06745299502941292,-0.06058865463756692,9.858941156648111,0.0039845435668804455,-0.012033109780263174,0.007971962327850125,6.11
-0.1928685749379704,0.07742373566733862,9.87983006242047,0.00045723255242339285,-0.0020608627000127644,0.00792467543950153,6.12
0.006991349966349031,0.025539614407796646,9.836378125093105,-0.005993316960098871,0.004834267227830856,0.00020720268293079349,6.13
0.08567673842470049,0.08444524279597893,9.74953500690041,-0.009860183705007871,0.015177403730906532,7.864029559366533e-05,6.140000000000001
-0.14542927376878562,0.03561831817619045,9.828206051650449,-0.0019381336979350922,-0.008686543569733309,-0.018908127585252926,6.15
0.049780985160039946,0.029848704664679978,9.546046122410342,0.00126214347496603,0.0024513474680309265,0.0017234001610402774,6.16
-0.14693415372577032,0.024913917256642142,9.766324735842314,-0.003421201950998471,-0.007149339878578649,0.002213197407454987,6.17
-0.010075683427715296,-0.22242685474192034,9.667713075086192,0.027546727689680025,0.005420288767154121,-0.0022025996036727663,6.18
0.01650838393615929,0.011482174120057715,9.913068646223953,0.006122025466417848,-0.022581134855647153,-0.018000463629549376,6.19
-0.09542529538488997,0.1492280578524746,9.796669308653566,-0.0010074471008060244,-0.009241598839643038,0.01737217802634452,6.2
0.1372625480656988,0.08473909284375727,9.720582611906845,-0.005494480336929408,0.009345962566426072,-0.0007774111785172348,6.21
0.009413453531063896,-0.1046203759687153,9.649568763569091,0.0033589438634598263,0.0025577174792163556,-0.014116626609439156,6.22
-0.09189880554576818,0.16616798717942702,9.855136035294013,-0.012482676447231736,-0.0017511271795561715,-0.005202358213087459,6.23
-0.18856539565640917,0.13020155177306528,9.698483256539017,-0.005814415450975729,-0.00966113240060904,-0.011345773074902463,6.24
0.09751917712239917,-0.028171909638960404,9.64837341254165,0.007327767134180853,-0.011328443269147663,0.0035603054964892674,6.25
-0.023652509779595144,0.02705187549260465,9.778443111764068,0.01135800770827307,0.003894784558657462,0.022355661184122893,6.26
-0.01932321070861394,-0.030578193501034828,9.96635003655611,0.007930260162103953,0.005528129113476592,-0.007978715461400842,6.2700000000000005
-0.12273601589062376,0.047426482090827504,9.824676719767828,0.013408055280682849,-0.019472937400351338,0.008612321048475443,6.28
0.06517881882234366,0.09428976042602401,9.728436658872273,-0.0006389746882251223,0.01398336757537097,-0.001460921538789181,6.29
0.16885760743227243,-0.08581246934468982,9.762063436062883,0.029594618058625826,-0.013559749850935233,-0.0021479377212029363,6.3
-0.14130670328149253,-0.09189300545227289,9.927056951652272,-0.011254207997525346,-0.003990351830261341,0.00924267131225541,6.3100000000000005
-0.11460047652950096,-0.03812394397838297,9.829822421059713,-0.014990379860493452,-0.001586157662877112,0.005386981276506795,6.32
-0.0005973196218940911,-0.022926654831688847,9.807872505882216,0.00410033638693246,-0.013126927118589283,-0.009876719153776994,6.33
0.048284712690492074,-0.011700579797810367,9.787178459719977,0.004193481619529899,0.010826384258639288,0.0054313335782130425,6.34
0.13834948769543987,-0.07179798446075679,9.896639722774163,-0.009027299823693059,-0.012451072715107356,0.015795924670775327,6.3500000000000005
-0.023158092166606137,-0.005115897557365166,9.703371308161854,0.00255434749939448,-0.0029931337443122805,-0.011768656613452168,6.36
0.009941152440163449,0.03384503151514299,9.751184600106537,-0.00041145755220325995,-0.003587363121482229,-0.028649224359855393,6.37
-0.04764956481254553,-0.018294549852831733,9.7327753754094,-0.004005486737837447,0.0012472804983703083,-0.025760712543096462,6.38
0.044047133694945194,0.1715019834680733,9.573439137511272,-0.010882412109764615,-0.006068730199339212,0.0006653573717919372,6.390000000000001
-0.08750323205379804,0.10960956768557036,9.695143851605668,-0.008646859124330164,0.004792604291876824,0.010904228618311189,6.4
-0.09433982300650134,0.11544283358494117,9.769024977770211,0.01421553366840978,-0.01273021690925074,-0.006278836415416802,6.41
0.1499948923153869,0.13550803279655593,9.743869817517004,0.001210220912793573,0.023296575220842594,-0.012325608720228554,6.42
0.07956092656483398,0.05627256016955116,9.739321620977181,-0.003678741664588513,-0.011786078534198123,-0.007287346991416425,6.43
-0.0013832854668898566,0.0015211532925830627,9.897988510604547,-0.015905423672166616,-0.0068577731011228915,-0.009115575872975819,6.44
-0.05562153493820098,0.18316894256745042,9.778271643415108,-0.008601388409039,0.004940417347764237,0.0011748549523439844,6.45
-0.12849574322745716,-0.00555318742356932,9.922509486324957,-0.004902348673653719,-0.001235217162558975,-0.005757677090525402,6.46
0.10760700132676876,-0.12559118850620285,9.879064571712586,0.008762965916558528,-0.015356626970025085,-0.030444129027809647,6.47
-0.0025376609563774197,0.04382736404132632,9.886612351087285,0.005172142393645264,0.030605250241661417,-0.013313542400483686,6.48
-0.10115976826532808,-0.01064001160487188,9.838038466163173,0.014420382997096064,0.0008838865245602423,0.008660310121000245,6.49
0.12623002283995408,-0.12630747482756202,9.788410715089276,0.024953653247967403,-0.012130485350407066,0.002257406087962894,6.5
0.07662573229082421,0.07267698237570772,9.88435161032844,-0.0005730557349352977,-0.0018330174988541396,0.01504145644344996,6.51
0.027974189976412007,0.09209126373030993,9.805509997662412,0.004378398356056549,-0.022662513029151326,0.0029782390006909106,6.5200000000000005
0.051075891516257015,-0.07103975907174047,9.740704501119442,0.006909278422484794,-0.0027010398875183302,-0.004771763647929945,6.53
-0.08285934432037038,-0.013583012661157318,9.820319595362289,0.0011456615023386742,0.012848522594596345,0.004369537287139861,6.54
-0.06128283501110107,-0.17715732167375217,9.75765762419615,-0.0010586740545177427,-0.004059138932314182,0.024564269935048646,6.55
0.03912010745026262,-0.024873231504028877,9.78008229221486,0.025858493488061362,-0.000365153031297925,-0.001440050162973611,6.5600000000000005
0.07578560959684169,0.08959024117120379,9.928318620357558,-0.0029516539423786988,-0.0014858182045435111,-0.0058362284416783395,6.57
-0.014343702145944985,0.05380830308152701,9.89908786968732,-0.0010938869579454012,-0.007576921234984748,0.006861016050360355,6.58
0.02090151058026279,0.31701619729238056,9.61909866275742,0.016441573151981956,0.007546209527649921,-0.009212599284719179,6.59
-0.12624210747509174,0.027376097772891544,9.816879787213825,-0.020858887874185092,-0.01583015571080617,-0.0065235127389988955,6.6000000000000005
0.10491249361312521,-0.07403750206124146,9.813845444340553,-0.004968576647157124,-0.007375307060999835,-0.004323154390915152,6.61
0.11652611683561981,0.04499825899068914,9.881784879971686,0.013362580225093082,-0.0026000602868040384,-0.010620260074565506,6.62
-0.1275961220358463,-0.055353685930285515,9.863236404464546,0.008268164032558489,0.008093509268943446,-0.015673846702730018,6.63
0.02748312741797443,0.09729968786028201,9.69107699585343,-0.0004140805052218249,-0.019090736126826373,-0.007463005273307977,6.640000000000001
-0.19059899241554606,-0.14589898642753263,9.76537465614451,-0.0041046500753132015,-0.004853662819696817,0.01767137802798214,6.65
-0.03659283492362016,0.04512876664485331,9.727304038338488,-0.003023633809536424,0.004861907071955606,-0.012626188220007257,6.66
-0.010442617895248264,-0.19178728443063292,9.681274518072582,0.0024112133882980436,0.006480183742871411,0.003490910285418288,6.67
0.08127192314673964,0.03652781420106129,9.770124269760915,0.011015483837498367,-0.0005228380634539688,0.0011759733185995474,6.68
0.2114956875102102,0.017148072427902568,9.83814814050378,0.010114941899546322,-0.014418143145691934,-0.017633589389947437,6.69
0.18155189723005571,-0.04039871046410806,9.729971347923305,-0.0016606987839270085,-0.008755446704083614,0.004355368975776686,6.7
0.11000428506107329,-0.0783500501439872,9.824924383301186,-0.0011988570608479955,0.002127282333466169,-0.02225053158918274,6.71
0.14643034882691774,-0.023807855521711708,9.954545848158046,-0.01557992491817818,-0.010441355770911143,0.004366031912569449,6.72
-0.046251722394241586,-0.03141234360853118,9.992729629388705,0.007207688976273029,-0.004776445205302313,0.0021427349005215942,6.73
0.02208614569859638,-0.10692412602184193,9.739190754649599,0.0012447895687214027,-0.0014414382021311692,0.002720929434507619,6.74
-0.15671807780499733,0.10003223476161832,9.832684030235926,-0.006651140337953605,0.008416686646911385,-0.004739848556683696,6.75
-0.011467637676698573,-0.0879384306513255,9.664686823053684,-0.006494889846370573,0.011809849221893676,0.015626232011300666,6.76
0.048254651358592325,-0.22868799797855777,9.91846470143778,0.000693315361736942,-0.009707039521075538,-0.0027855878997682347,6.7700000000000005
-0.0015052691572639987,0.22836923195687708,9.771749620380685,0.010693368270058212,-0.01317983443696041,0.006691933164743329,6.78
-0.07818565099774988,0.021754290229671368,9.834174557082159,-0.005422141166241671,0.014803462553150966,-0.008362781844477245,6.79
0.014143582181581155,-0.062012909007271515,9.890055041754099,-0.01312600796376845,-0.012507987382995585,0.021684126605016747,6.8
-0.04378199829608638,0.12842694706348434,9.758145363477176,0.016392891436499663,0.009709165373896055,-0.003202183499573846,6.8100000000000005
0.042457746578040106,-0.09060990704089544,9.824299902598105,0.006849145802376487,0.014906162749732514,-0.010362414655889952,6.82
0.1140656016931722,-0.060981854770840276,9.907165355824603,0.01053409064307118,-0.024253305675507694,0.007053634044286685,6.83
0.19342605521655476,0.00843400319847879,9.796548181099858,0.001499564145847866,-0.010272974821246623,-0.0048653795358464084,6.84
0.05065345650870373,-0.042161507207364786,9.961678800844124,0.021079443954054526,-0.00809166708546456,0.005742641189263074,6.8500000000000005
-0.0032222363119055507,-0.07292908934635388,9.934308942848787,0.008391258077940715,0.012200655230593887,-0.010130420273513345,6.86
-0.005127647122901482,0.014609224887950007,9.57603992494457,-0.010063236051673535,0.005300628646327913,-0.0027563354232375036,6.87
0.005537063285064497,-0.008539227941411797,9.74110487318978,0.009035515594083677,0.002767069831535397,0.006142367227541032,6.88
0.0008704398157914879,-0.14057467797558884,9.85675620828503,-0.0007352108368005728,0.0006794479314146082,0.006624073152348486,6.890000000000001
0.01974045113783872,0.06311481233753727,9.824803318041397,0.020169005685030907,-0.004372522177322723,0.00336751154785809,6.9
0.06779535017891707,0.2217480455552356,9.78468759646222,0.000283565215825913,-0.018387324139651592,0.019120239007147734,6.91
-0.04552644114492306,0.09134424613117147,9.85570447482179,0.005691162035932366,0.01134607171849891,0.007244820866737055,6.92
-0.017007989672419285,0.025933273861873326,9.706017724033035,-0.013735333331952457,0.004835448141264376,-9.949258811116047e-05,6.93
-0.02724683410532729,0.21028942099170386,9.803414957937157,-0.0026582217496500145,-0.010683282782601897,-0.005858653367765761,6.94
-0.12250419897586101,-0.14648510647324273,9.695039838158937,0.0019938767855512,-0.012408920297177925,0.008360355117545825,6.95
-0.13976404454681818,-0.03732652746164174,10.004718288631969,0.01639092988259989,0.001005095345112589,-0.008579271799145083,6.96
-0.12954680429540086,-0.01777762233838967,9.813344955014434,-0.020702247374271687,0.0026459945715390726,0.0029422641310503928,6.97
0.11012515636497155,0.1939349611998309,10.023375303586528,0.002298932912002633,-0.0018246082061286046,-0.0017757189496525275,6.98
0.19289915848086805,0.06678692200446774,9.914438067384035,-0.003858911389864726,0.0004612061555699455,-0.0012458482996175735,6.99
0.11042060910214047,-0.05782991831022899,9.880769084037746,-0.027476620690748525,-0.006991998452571042,0.032060076152306334,7.0
-0.10582943548351953,-0.016955768539118617,9.658209320911931,0.0030498064251352802,0.0065681451028565445,-0.007996673076356766,7.01
-0.02379460456021662,-0.00018635512870152164,9.665314681069038,-0.0008815120445571459,0.010018845001459567,-0.0030067336054349705,7.0200000000000005
0.03734485178171164,-0.020125013301454747,9.903266250760236,0.006869127933326414,-0.009827740518500147,0.009790436396282506,7.03
0.051141050771775956,-0.14742489528604005,9.763212255088824,-0.0009441284198574447,-0.005136009610302409,-0.0015148794948117233,7.04
-0.10010005257988064,0.006053620076250548,9.706924247762267,-0.011436524727362393,0.004647669586196144,0.004693721625278032,7.05
-0.07006190661434224,0.21058081615776592,9.880048241728254,-0.011697566857802402,-0.004542911428937575,-0.002788037307239794,7.0600000000000005
-0.16128200789509858,0.007105490811702738,9.762657048385469,-0.000588923232379487,0.009164801387668746,0.007316627380158142,7.07
0.05560274030246375,0.021621193005121546,9.832755856605804,-0.0007443752783460341,0.006826889503240577,0.011266323623525558,7.08
0.056111717289247846,0.02221434425272675,9.886881853812058,-0.0015407179661731196,0.008534055238882543,0.01678037658138174,7.09
0.04589037825411364,-0.1663662435070836,9.709698490697466,-0.006546673627084549,-0.004758135959150739,0.0180375744628476,7.1000000000000005
0.0479331972498869,-0.08998660230321259,9.853834498049327,0.0031592436428210242,0.02544907095628929,0.006026027863114252,7.11
-0.015866334338934803,-0.015968252470118082,9.637030580988915,-0.009338622856693887,-0.019127218312593605,0.008907860692896199,7.12
-0.03801720848086165,-0.019150990549951084,9.772045110960278,0.003498975925519384,0.0011929924937428174,0.0027583641089666206,7.13
-0.023640210899066705,0.11385701992840297,9.806964212619716,-0.007773761834372248,0.0023383090302318663,-0.011523092222134705,7.140000000000001
0.0075462887665754185,-0.13030981016980744,9.942175677607354,-0.009598343043316552,0.00044461958843519406,-0.02171755276686653,7.15
-0.0361351463088077,-0.11002471494414433,9.67187746824292,-0.001401702614788135,0.003146117912653486,0.015860430310360125,7.16
-0.09816640215333863,-0.011494458523298851,9.86670852732893,0.006649688622893677,0.0076849003712168434,-0.009854110377528291,7.17
0.010666147718250257,0.06654623506497813,10.100173878369223,-0.009158570118225325,0.011449473655014187,0.015430650877472214,7.18
-0.1643533080876266,0.02858341147366691,9.872671520728504,0.005639839619900478,-0.011548800547202816,0.005880067669159245,7.19
-0.06974228507748566,0.08783506565690707,9.813060292813308,0.011914598941062123,0.0004496347515288227,0.005213425751099586,7.2
0.026612451731397174,-0.11160294981446302,9.763429779153354,0.01509125276549197,0.00438569234801515,0.007250197839126235,7.21
0.06776731183479091,0.03092951971646521,9.752396022552567,-0.02099705965690374,-0.00041752096798113264,-0.002767394267365295,7.22
-0.197692808837576,-0.04538270333046649,9.724882439048491,-0.01915456119921604,-0.009516602264060994,0.010122968042560139,7.23
0.025684663320416273,0.09092575433025678,9.80725469890135,-0.009672363121462264,-0.01310732638695268,0.019681810166036963,7.24
-0.1748169364841997,-0.0073051748323795076,9.974914954660848,-0.01584055080334771,0.005079856749010407,0.009150722159766225,7.25
0.19538949798925676,0.07992840997824459,9.774019050327059,-0.001513984119215021,-0.012730138569218508,-0.006944859335152036,7.26
-0.13080331294638536,-0.1770800336089511,9.986257113619546,0.0013838487662962288,0.0028146218029263493,0.0035306985095662144,7.2700000000000005
-0.06459571210669927,-0.15571147756008363,9.872758287733419,0.001927704887476962,0.0006086560804323546,-0.011541818879962654,7.28
-0.14622849375339728,-0.0076102155755043135,9.736958766603038,0.018039765659025455,-0.022323987553792755,0.007447912871003424,7.29
-0.14160945864254568,-0.12176469283829272,9.900496494243816,-0.0053292574938743585,-0.00894887503999276,-0.017492711690158168,7.3
-0.14386633671106117,0.06862566659547065,9.749466684485594,-0.006130345751843336,0.00725652955157896,-0.001209706261738006,7.3100000000000005
0.1247749101449766,-0.09281796438757994,9.930959432118767,-0.004334874859006234,0.011178050156367463,-0.013532444511905682,7.32
0.02048071032463701,-0.12719294436827622,9.660666147693387,-0.021037584161541313,-0.0176057711356079,-0.006530756594855679,7.33
-0.07787138687869781,0.17267580275215572,9.849278863019661,0.012339479944707906,-0.0071664948459815945,-0.019998118003586682,7.34
0.026670649130291525,-0.10806113223503787,9.661906113334418,0.0038342923459787808,0.006758533635465853,-0.00914338220856103,7.3500000000000005
0.05153061425850983,-0.02625736618103146,9.94478554636419,-0.020010043372567583,-0.005513151394599657,-0.0032294688680899707,7.36
0.05486045258911826,-0.06134577404782565,9.663818959779228,0.005974995827552904,0.010360948176736587,0.002586073758761205,7.37
-0.08815465273650668,-0.018259919012474875,9.692739272850122,-0.004438844172095004,-0.002249261266822002,0.010876496339432537,7.38
0.2443867562466162,-0.01820849241808929,9.82931112618864,0.002859435552080444,-0.012278136156415155,0.0001932826771972657,7.390000000000001
0.04634617076566864,0.0417022679979312,9.625593002292119,-0.01539898808379303,0.012534168735182063,-0.002184565981041701,7.4
0.11882915403810333,-0.07249659845328611,9.761895786262288,-0.010943977459715372,0.0035038785440805725,-0.013967924602424284,7.41
0.01338353561316516,0.05532503022037388,9.661557887784404,0.00236720726641387,0.007673602036271589,-0.01902707859623806,7.42
0.14724375387202124,-0.004664055854247544,9.829401407950238,-0.02211782566067696,0.010900964054750537,-0.019114605087878444,7.43
0.24756545100654642,0.015140124561174393,9.919410852689074,-0.0018137420160318307,-0.0068650254245482345,0.004436543976791836,7.44
-0.1374124802808455,0.1984656941921863,9.92918242418945,0.002610773121933413,0.009334654265913324,-0.004201287782392931,7.45
-0.016903403661361612,-0.03811604506157569,9.727008980231071,-0.008269661731895986,-0.0044285219663680354,0.001714933352303773,7.46
0.04902837945807778,-0.15799454401784332,9.674834093692926,-0.003415166450590617,0.004150306945992581,-0.013750582435138442,7.47
-0.1851031820743674,-0.0874605510813295,9.798881993752804,0.005794140981532875,-0.009450650964065985,-6.097139287598216e-05,7.48
0.06005168992475723,0.06834199340123609,9.569336749685048,-8.103412051687443e-05,0.009425675759540463,0.004602048710042683,7.49
0.12061772335740206,0.01923269415313224,9.859770976052506,0.008655025368478212,0.001657802823565572,-0.01161052579736063,7.5
-0.02118097368280554,-0.039367286450045225,9.794608172443606,0.009478169163934931,0.0113595477557707,0.0053845985382810916,7.51
0.11291088658063171,0.08663229475331473,9.767320225422262,0.0003582837082357885,-0.011625467433948853,-0.0030953514622844066,7.5200000000000005
0.040211852531698976,-0.10497019068850827,9.989918158189916,0.003425879375684348,-0.025946870459235046,0.022582783865724092,7.53
-0.024136245512619572,-0.12019839452790589,9.99979842467652,0.016127821272906687,0.011280409612247251,-0.012480348937625316,7.54
0.060668235517796355,0.01561560940854482,9.7790585411076,-0.0036347636607676095,0.00044898298558894504,-0.015263859287232237,7.55
0.15882169625987214,-0.13412172203777092,9.762171696648227,-0.0073134505543583864,0.00660429192375868,-0.013930473234383662,7.5600000000000005
-0.08736805530221256,0.06844401965676654,9.63311286693971,-0.009258829759887404,0.008789734006176622,-0.00626570446108007,7.57
0.02523336233204442,-0.014393002700814722,9.90946359675077,-0.009932420884356145,-0.004424787432145587,-0.011978975031965248,7.58
0.0569046857450666,-0.3022899332562032,9.905459532677389,0.004334475071862913,0.0031611405721320026,0.010278651789273112,7.59
-0.11975534100613215,0.03254656953387294,9.697110367941221,-0.014044829540100246,0.002266154062081795,0.006240193153099997,7.6000000000000005
-0.05091523863286958,0.03792640105399163,9.764787549194969,0.00970396633987983,0.021011145020174173,0.001218563411563897,7.61
0.1488087850034473,-0.044107337923699245,9.839896422727737,0.0036550989205277325,-0.002870790647403615,0.012478531386423335,7.62
-0.062327532939002464,-0.1902563394231006,9.697351247655838,0.010670807613800968,0.009611366480537575,0.0030262842840843855,7.63
0.01119264989394958,-0.12850163263690137,9.753654700308806,-0.006376766610787602,-0.002556700536188737,-0.002830261838738978,7.640000000000001
0.06767595773012107,0.10820155344113631,9.824766314391658,-0.02088665660628893,0.010683223776023779,-0.014189487891895359,7.65
-0.1795889172743034,-0.004609283372641505,9.7207440220224,-0.0055781179576053184,-0.002577341288825996,-0.02005343981304886,7.66
0.16566644107338693,0.08765891651232337,9.810031580367912,0.005313743307564712,-0.009364257343926093,0.0034698864376821867,7.67
0.20783078665407242,0.10927164824729317,9.80901842916538,0.004762923155222449,0.009112021483506115,0.005516455938517485,7.68
0.06579845628342397,-0.02185903955136339,9.61942126422509,0.00778816018736659,0.00994611041962103,-0.0023763887154137396,7.69
-0.052330715105037284,0.0451001594160138,9.724717909610678,-0.0106698393904393,-0.001589775751789346,-0.0035967515595020727,7.7
-0.020584371636628213,0.15018584444075322,9.993283732805416,-0.010261522903468474,-0.00831577506063592,0.0027738321519616017,7.71
0.015294538832805432,-0.03135868850182212,9.885168500912261,-0.0043803668366233246,0.0020504316118662696,0.00838041041210842,7.72
-0.1483473155501915,0.062213640986592225,9.742995411972904,-0.009830221962068099,0.015968677854424893,0.017370480398048702,7.73
-0.02028464833585075,0.08844840952644295,9.73228175886457,-0.0036831510100029186,0.009088718136606973,0.0057317366621786985,7.74
-0.04219134269966092,0.0011762076077077605,9.859330341532475,0.0012903417149001026,0.006905415964707565,-0.024708704709958878,7.75
0.018627271730093122,-0.05741012565961498,9.754176176233969,0.020025989739561885,-0.008245155953909351,-0.0188959471995276,7.76
0.04965620875628476,0.056337201198915804,9.991874781046295,-0.01512857263336431,0.009052972742540927,-0.013118780014012253,7.7700000000000005
-0.0017783679544588604,0.07697485835767538,9.79562347751611,0.007395702797971585,-0.0038928816141706804,-0.009340780532487105,7.78
-0.11878179080033746,-0.06803375538388537,9.878194972565066,0.02011775137750715,-0.0019172622849980866,0.009148411957413873,7.79
-0.12699323468172588,0.04212177376779386,9.779667760796558,-0.006622917243021992,0.007467683790646412,0.004886847058496237,7.8
0.15496682813065704,-0.003973751874660089,9.819964660035403,-0.0029398424374015198,-0.004792608645272368,0.0011175338826320553,7.8100000000000005
0.21005086523124025,0.23429212801578855,9.523867110822813,-0.01850473648400923,0.005872173150151942,0.005778901702695095,7.82
0.11750089744074683,-0.09815969519323987,9.774698344277828,-0.000797063779710041,0.000666131839218226,0.0032483128707945035,7.83
0.07585704019270573,-0.008700794425349257,9.946233964921166,-0.005249586579970305,-0.0010911207344738649,-0.007869327207816402,7.84
-0.16354176475287793,-0.021720369430110836,9.847692346854032,0.009594300385651896,0.0035245165962417063,-0.005597332245533785,7.8500000000000005
0.08714629854035101,0.1046021852162057,9.625126060237152,0.007647858225021364,0.010074376197975703,0.02020980633455971,7.86
0.273090424357162,0.15173647173413565,9.857790605762629,-0.006452367429181154,-0.0068437594207945915,0.005045089357358404,7.87
0.08254595241801432,0.06425717785492478,9.847184982229205,-0.005229092090813423,0.004403943245661958,0.010799389696740618,7.88
0.15453952150361297,0.1670646883615953,9.782321832418168,0.005091690062980197,-0.0041436887700840915,-0.013020893244642617,7.890000000000001
-0.01123976921656786,-0.014230275430161424,9.639886779381598,0.00019987478901205117,0.02083306525429299,-0.008290854808593411,7.9
0.047802758132455936,-0.20355622210511687,9.746202156135176,0.011570822542334635,-0.009402424953395348,0.004956447119885699,7.91
0.03653169992022214,-0.03489126918186868,9.711875105337024,-0.002050987973648127,0.016554437376552995,-0.0076148248377444815,7.92
0.05987585004789401,0.2242741870396451,9.747724587717146,-0.009908914090828704,0.0005983070071128954,-0.010041306134661691,7.930000000000001
-0.0723788964465717,0.06870211894291325,9.844961536842433,-0.0005819529029357884,-0.0021281183422856686,-0.0055028951998124425,7.94
0.11089448043369801,0.14763107053065508,9.6718125513652,-0.020493190299103296,-0.01233372287735222,0.014605238621292638,7.95
0.09417270663974098,-0.1464773413328274,9.826125133398298,0.0032619570694305895,0.023509591932537918,0.010212820721750612,7.96
-0.011664635151512894,0.06756305053331974,9.842608567436667,0.016365341682689126,-0.005225888036203777,-0.014236562355870326,7.97
-0.15582411914953317,0.08007699515341377,9.948593180154363,0.0066976893022285345,-0.008987543193023083,-0.009797924235158701,7.98
0.17308108885828366,0.054441914335905964,9.754891689266078,0.010951863369356208,-0.003618408953252169,0.0045842231917251584,7.99
-0.08200277008797112,0.04942559181432888,9.837960044053341,-0.0038567807885304135,-0.022957493388900137,-0.011428618055760368,8.0
0.07890119121190464,0.0949256312867986,9.728141081269698,-0.013716660279527828,-0.008968858999922887,-0.0065053818640865915,8.01
-0.07401083944047325,0.0007309604784862339,9.871275317074831,0.0018983921292702439,-0.00933782502455948,0.02280270324391878,8.02
0.0019039384494873184,-0.3663887272492905,9.787094633893524,0.008229936232895967,0.0012285664247371538,0.0027535116010818507,8.03
-0.01919455216046502,-0.09690802633147445,9.917812147256733,-0.000610005275853365,-0.004406630816496895,0.005900998487160327,8.040000000000001
-0.25720456797293023,-0.1027086801517916,9.938376042138575,-0.008014581339944763,-0.0027970958433964485,0.009673705860768145,8.05
0.18134355947164799,-0.09611425791874198,9.769180806576193,0.000989713163664465,-0.00012870221337447324,-0.012046038703477707,8.06
-0.015786757287539966,-0.046847506492650084,9.88616396453412,0.005886245652410198,0.004485598952733704,0.013976210491485036,8.07
0.11909169664321653,-0.04222078924619731,9.656812289248291,0.018712654732269768,0.0026615853989909078,-0.005755750136810358,8.08
-0.0007878905046391689,-0.09495841502847013,9.724754183723478,0.00217306145800924,-0.00457228607445829,0.0033829001213382015,8.09
0.10447391829507327,0.05475188991663056,9.888181925789016,-0.0060385269886316355,0.005268560142925279,-0.008564557220634898,8.1
-0.221820915722105,0.16031527346179403,9.77291327359102,-0.008614440623362574,0.00230932748805085,-0.0029309520986818827,8.11
-0.07225096807003503,0.0762493237592862,9.925509798011019,-0.009514757355713364,-0.00943012770114574,0.007026786365462076,8.120000000000001
0.1333340367633433,0.019769109619456455,9.795623869450722,-0.01592493641263803,-0.008555853839891447,0.0022659841701620424,8.13
0.08535552095738698,-0.07281771348441357,9.832112333797008,-0.006859634144771042,0.0031932096943594035,-0.003338456024964611,8.14
-0.19917360218449004,-0.13325938742713564,9.974169460695046,-0.013890099559868726,-0.0031433948618956493,-0.004070223799276103,8.15
0.05184573260222594,-0.07922069926194349,9.783404682580064,0.006721008997414773,4.0500615184899714e-05,-0.01613500893342798,8.16
0.00038724454961510296,0.05438058689255057,9.883181327889092,0.0038653575511553187,-0.015194485463588973,0.0054002919089445964,8.17
-0.1421215838076416,0.016985866073726763,9.704782143861642,-0.009190058032196245,0.00159699964867533,0.011934378439670606,8.18
0.18407993349918472,-0.033330171599790646,9.877082874735631,0.0015018857376729667,0.006251441449888485,-0.0021140820107260587,8.19
0.021734299019444313,-0.02135281895310077,10.0281734255417,0.0017459124483425272,0.007075767594920012,0.005068843054896716,8.2
0.006390594456820362,0.011376827686438565,9.769434863655471,0.0027412665210149755,0.0003411828127252989,0.0017926488466199076,8.21
-0.09687839569005513,-0.08943861030881488,9.877174235529347,0.0029250854956287308,-0.008056512834638424,0.010763467988778083,8.22
0.08056413765790418,0.020024232236857727,9.74958156795383,-0.0007454844674008206,0.006876412223595342,-0.0035467295608882137,8.23
0.09994204960046688,0.12134294144802599,9.70553230856914,-0.009905198721375144,-0.01333896110170798,-0.002856372667328958,8.24
0.0723673226142764,-0.059779415602372335,9.807178871008803,0.007877548574498981,-0.001199581772426121,0.0006531011262596124,8.25
-0.05407570662194009,-0.0643028254710174,9.800541523979788,-0.00531329160910235,0.003686653181602166,-0.007331389484667969,8.26
0.046718728007983636,0.018175162130815783,9.932425179005227,0.0033387182341768035,-0.00403996572783416,0.0031694492638994084,8.27
0.07341240683929912,0.05076018333526651,9.756857250857475,-0.006694998335623505,0.009845745791824774,0.008582098103541526,8.28
0.027406237484323432,0.07718994455719183,9.746508071831807,-0.003404020631609715,-0.0073488637421672085,-0.013956752262932477,8.290000000000001
-0.0037782500338332855,0.07307750979627567,9.695571530549909,-0.008497475123866685,-0.007399752713922994,0.006604237851177534,8.3
-0.034174068477628654,-0.3016090358976855,9.604224231411694,0.00453617508509507,-0.019126421643996288,-0.00265689386563615,8.31
-0.00792234795951322,-0.10276170028193495,9.66802611232878,-0.0009871808897406371,-0.012559163166128486,0.007725071240752671,8.32
-0.04560801657936757,-0.0260127770270295,9.684493939920158,-0.005769646784475973,0.009665296156648242,0.023107541634056896,8.33
-0.028206117521401553,-0.03196214573155382,9.638498081699103,0.0029707673730030933,-0.006561837159186834,0.006163927602269497,8.34
-0.21699473097605135,0.04763215083298772,9.767280386940334,0.0016986112396485558,0.01748709736056723,-0.0038196618771724677,8.35
0.01527300226394878,-0.0038642027044347087,9.802564677457474,0.00018529433572998344,0.007557712761434544,0.008018176519562976,8.36
0.10531385634992732,-0.03091568906089795,9.782472256253502,0.007325136033274976,0.00671558967742329,0.01832954136760231,8.370000000000001
-0.05376500527751102,-0.008700386815535343,10.035843738037208,0.0030715757717262888,0.005379360405838809,0.017750293043856256,8.38
-0.00952498610169632,-0.010710912555049988,9.944824095056621,-0.008673847525252623,-0.00567959231986937,0.007625639441719209,8.39
-0.09307988864192812,-0.14344686513744487,10.047435661073642,-0.022485197441077097,-0.007539868903425188,-0.006347228801895604,8.4
-0.008182552964072809,-0.08918763088422199,9.92180785638926,0.006744109326993334,-0.0025946064279271843,0.00870376550044151,8.41
-0.05764822610648751,0.0019588133954397497,9.748484571952927,-0.013609096010740483,-0.005082708792479237,-0.018189026710626204,8.42
0.0029197821108001643,-0.016120234645500216,9.770913351787085,0.003160502139397173,-0.011054004877491298,0.02207955299827117,8.43
-0.05018607836313921,0.14580580555121486,9.927590016245153,-0.015016607230271,0.008712719606690083,-0.008749211816495933,8.44
-0.10082189003165998,-0.050785490190212404,9.784226506741208,-0.011779960969059047,0.010875417201875095,-0.009401661779927718,8.45
-0.051730127608799616,0.05470324941392886,9.920500996280465,-0.010304919169480025,-0.010112797874748489,0.013224712875441497,8.46
-0.10538156175563103,-0.010289373973068675,9.901130273747494,0.013544984957785966,0.016101844411908362,0.015270261627727365,8.47
-0.04301444095741791,-0.20246774448171717,9.766253849040059,0.003542908802719708,-0.004135848602855153,-0.008389069764077713,8.48
-0.031139712426664093,0.1359718497261177,9.783327121163854,0.0033952218710882626,-0.012493795697644113,0.018721493285066587,8.49
-0.016068554636539778,-0.09695782685211739,9.84871206537274,0.00020713007310724105,0.005676195630562616,-0.014576425696846378,8.5
0.024223173254111895,0.02347385296990451,9.881571809201361,-0.0016775196525327645,0.004180859841581003,0.001986141772653843,8.51
-0.0943987940495748,0.028466156821579443,9.821850685871945,-0.016711565642822186,-0.0069260828669197175,-0.011908986288607266,8.52
-0.057667783821934104,-0.10936935939039445,9.663103426183891,-6.532532414059707e-05,0.001934525900057373,0.02258587388016969,8.53
0.0058956283788610675,0.11216448552961163,9.766566067832601,0.01316083671445481,-0.004079089352822896,0.0022623612715670337,8.540000000000001
-0.008498309401707404,0.10325761098485907,9.7522212494167,0.0007361890850249549,-0.004357591291963306,0.014332013882162249,8.55
0.10486479912461225,-0.0474170443759787,9.873516789818183,0.0014992457252650379,-0.014616079717257962,-0.007084195441608494,8.56
0.11321061625997836,-0.011773248810106746,9.972142717958969,-0.017540744806719216,0.0006156512162687702,0.011899290187862285,8.57
0.09076556637587645,0.051333358811762236,9.831690536753735,-0.002583668035207305,0.0004167045399097677,0.00014004311286966605,8.58
0.039773007932030396,0.007838711279202644,9.97138457095768,-0.002206306928535453,0.011317820313439997,-0.02633251919947862,8.59
0.00948663976344636,0.033086353708306905,9.867672222756894,0.001036047671052689,0.0026408411556639692,0.006583176037801102,8.6
0.08267593351333152,0.018101113832416294,9.932563044209209,-0.01166499196109027,-0.0005700172019074757,-0.011843542933736156,8.61
-0.08387487145760411,0.11304935966866037,9.788005346227061,-0.01724347745409524,0.012397791045884746,0.021900764251137926,8.620000000000001
-0.021888446906432116,0.027912803213344675,9.878843471517358,-0.01511196974340281,0.0017374763901009957,-0.011059617973236758,8.63
-0.11503618751490588,0.07879808123362661,9.84755046703785,-0.013836352072024119,0.01668793820478572,0.004786911579639362,8.64
-0.049096077622962225,-0.05067521977527602,9.936827799658818,-0.008102962924535781,-0.0008766492305941569,-0.0028708939974928273,8.65
0.14134700454712967,0.037090449500556115,9.873906148275857,-0.0035320021951670668,-0.013558800756574584,-0.019868625295128887,8.66
-0.12264807887791494,0.16735773935918483,9.874889076127383,-0.013822068593442134,0.005177272719527411,0.018141142183459743,8.67
-0.03163026148811259,0.07630388752447996,9.600702404581964,0.010647008279888322,-0.0017090259537284583,-0.008472991304193272,8.68
-0.06919225042368231,-0.16221300561416574,9.735187265475727,0.005279510228864981,-0.008670257367494641,-0.0008346723888005972,8.69
-0.09412715133413285,-0.028936816799954586,9.822735304313762,-0.004406197820209627,0.010262174384931506,0.007860216126239841,8.700000000000001
-0.03709248458021441,0.12922866291199922,9.751647778707678,0.002432709401098411,-0.0011699123380467906,0.002058822324288011,8.71
-0.046564731458971116,-0.0467631258477694,9.851847745249092,0.003781571177217989,-0.005567036182201783,0.010954365423599725,8.72
-0.026529017821582714,0.17802821197466198,9.753894052443876,0.005343495101668491,0.0060289389446828365,-0.011573231965939446,8.73
0.17496409445934202,0.008180336069968581,9.812856404146947,-0.004005092438021292,0.027069846165566163,-0.009614201127068314,8.74
0.10730866819837584,0.008277202417397433,9.871364157810474,-0.011458785731498595,-0.004758909923691172,0.0003196131352852887,8.75
0.0017870388561834157,0.11515577809197018,9.987646163580843,0.007667743137523773,-0.003701723624391177,0.00511069975469153,8.76
0.022659389495545145,0.08405362282138559,9.759358946849868,-0.008546096307004881,0.0057629165933883175,0.005014572796044975,8.77
0.015722136958252097,-0.04148977461572786,9.71743061717604,0.005151629956556775,0.009714747700018317,-0.0025567673438743853,8.78
0.044191790903444286,-0.07581845000759363,10.071804362534092,-0.006084412265720208,0.01319934635926447,0.026693102993098523,8.790000000000001
0.10827146019814007,0.03764947633856006,9.77881702507341,0.025415113531611286,0.02458440245282634,-0.01027783814809409,8.8
0.12747752711248014,0.0024868760025262508,9.932577320743741,0.0081141047130264,0.006243895402443146,0.00025485855736555486,8.81
0.15290237838106785,-0.10597539443532787,9.703733863453964,0.026825920948252868,0.0008668042663669337,-0.0020002614544029577,8.82
-0.008896164053695739,0.20476719780960245,9.666419931649873,0.006310369785579579,0.00304879290671057,0.0025938700050153803,8.83
0.17207555976709327,-0.043177830225008595,9.833230424048,-0.0010841360466204977,0.01569597369463761,-0.0023418363650235655,8.84
0.182329866776773,0.12293069138528351,9.701244444855794,-4.284114621154504e-06,0.007492169582190812,-0.008771328079811106,8.85
0.049052801128806056,-0.010626340661183056,9.744350391056217,-0.005835446382240993,0.003033237061077504,0.0044224815227320545,8.86
-0.18613485544811292,0.04636006867065433,9.84438915820425,-0.013847867561378192,5.121507643917336e-05,-0.0009605981248023813,8.870000000000001
0.08933717004960745,-0.037584423572962454,9.702917516890352,-0.011434003435483677,0.0007817162214554833,-0.0019878460049059226,8.88
0.05636609398316559,0.0677007328510593,9.958937452052469,0.00538697976306624,0.015199922368039291,0.008545668854736947,8.89
-0.0808681560418269,0.11066215644787314,9.809894279082048,0.0032226825078044796,-0.0009435234870403659,-0.0023713127063714587,8.9
0.021438443920576842,0.0020231873112321838,9.80010974035407,-0.004434766679926959,-0.002009647105404214,0.0065560553128864545,8.91
-0.11714961397301751,0.09424954989085611,9.918692551880497,0.0001791560881727629,-0.0006706475337735337,-0.01107351648729092,8.92
0.06194493885060838,-0.03756613524764147,10.060468672414698,0.008780884770469836,-0.002421698725578519,-0.007198888271986202,8.93
0.016859085511034214,0.042029409095973025,9.841851900597653,0.00396402636845753,0.00564727357068745,-0.013746781697317476,8.94
-0.12090285997804713,-0.047886560462923694,9.812510550339777,0.007887059070880357,0.0006110423618738972,2.506642409873292e-05,8.950000000000001
-0.01569062409380426,0.1313643941003623,9.681945859278526,-0.014061778609399514,-0.011407348047002448,-0.008250949143077797,8.96
0.17354324869511414,-0.11282594860473626,9.766973871823666,-0.004608369606236786,0.014309160366164354,0.0018841345249997169,8.97
0.07289771061480842,0.1434487968863153,9.775570424277888,0.006399191076485606,0.0024939569788214344,-0.003109493452129018,8.98
-0.0909676079090418,0.10992258913094177,9.728652896986295,0.0021691782215163147,-0.005838709732005616,-0.003126100940341686,8.99
0.08914509145907634,-0.09765045954272442,9.747700115703454,-0.0027158705289334084,-0.008230170035062162,-0.008692194213915563,9.0
-0.13571203209141608,0.15916280202625174,9.724173298111852,-0.01496475978851788,-0.0053051331599486265,-0.017014579641765972,9.01
-0.12287819894920791,0.007336564182460418,9.790046579860663,0.017181985992327748,0.005649965537573971,-0.004716707630149661,9.02
-0.018226067018909792,-0.22840614759750927,9.851688737627411,-0.010938696820520993,0.008058408947468036,0.004760328516663237,9.03
0.023684387242818516,-0.0796432998557036,9.820387018186473,-0.000968978330685723,-0.011467239421507227,-0.002817466047646171,9.040000000000001
0.07848784906114625,0.11274601097961837,9.799631061488144,0.023665890448147278,-0.01570464561406497,0.0007032084126778156,9.05
0.19611691353797142,0.20057354127495652,9.701009599037686,0.004320220205447528,-0.002100510039969342,0.0006737888181223244,9.06
-0.026147633726643478,-0.03667811919915961,9.851512744807684,0.006609151878933588,-0.011673217849522244,-0.007654988574836906,9.07
0.08270008636557119,-0.04901531268651395,9.901882235349616,0.0016338238369995011,-0.005272449297631226,-0.011292842980105923,9.08
0.017291214961822576,0.04380012377813565,9.83006205906699,-0.006622121409421417,-0.01564345301464735,-0.0018093853979038936,9.09
0.1418656971657598,0.017288481980338073,9.789255480695157,0.005362883005869473,-0.021330319969058854,0.00046055272019507315,9.1
0.0005660318841862505,0.037672766201856896,9.758573316717737,0.00529599684191666,0.014690549049911426,-0.007815502289452266,9.11
0.31446288070278056,0.06642705641643164,9.734667490301314,-0.012654332607186892,-0.003919323759425815,0.012355671468466355,9.120000000000001
-0.21594311323176216,-0.03453074975692418,9.927913652291375,-0.009462644972309326,-0.005229956063670398,0.019458723975252012,9.13
-0.012272449115911872,-0.08996953414555672,9.888411865258647,0.0022511199506014315,-0.008703629061706703,-0.006586373367301071,9.14
0.11733854831537327,-0.12610016346210998,9.9066954455071,0.010294642887349228,0.013604379783964476,0.0004205534541849154,9.15
-0.21871253743474758,-0.10096655900886205,9.847592712830677,-0.004136744268218431,-0.018765637379934523,-0.011162527325240739,9.16
