ax,ay,az,gx,gy,gz,timestamp
0.12141989444641638,0.017173956442297165,9.7018455486016,-0.008958892531744997,-0.0022590036338197743,0.001409204492512394,0.0
-0.017732215882173916,-0.08240427001504132,9.706719402310418,0.002820330281534521,0.014381554610660145,0.0034954145426093542,0.01
0.01618383673249562,0.09186267382580604,9.688203154398094,0.001666646349160452,-0.009072530962377838,0.014857955346602336,0.02
0.2687626915221976,-0.03448855626424662,9.70699780040443,0.005148597225350523,0.000785632192745625,-0.006950059200740522,0.03
0.012571909226832233,0.06401124397146625,9.82309435471212,0.020607229800570854,-0.01693879832254493,-0.009503421576929521,0.04
0.04461975088049636,-0.030319360360314008,9.765205900862476,-0.010032900898482437,0.012709433891632068,-0.02010307473821013,0.05
-0.07350445933193499,0.024482835044077497,9.8426679337195,-0.005335968410296833,-0.013849212926296822,0.008453849579566889,0.06
-0.09525939003038929,-0.07613181514160389,9.861260575179315,-0.019016977256938933,-0.005506056106245348,0.009879703100873783,0.07
0.01959430558238574,0.00713570707265471,9.81655930871489,0.006372686188761875,0.02223786861625782,-0.007307457389473957,0.08
0.04691519846773565,0.10585290938387762,9.999362063499023,-0.004775551456048446,-0.013044651490406664,0.01886629899392395,0.09
0.057514220799332195,0.18284529629426713,9.83460821130197,0.006624220810380089,0.0027145955721081783,0.01455914644342961,0.1
-0.15369481744152466,-0.13091483961768932,9.91570793555251,-0.008960012946065415,0.0004064499961987174,-0.00484068541569297,0.11
0.049346338169405084,-0.04290172234958248,9.923215252530555,0.001565905930449249,-0.011430602153422169,-0.010531470341550105,0.12
-0.09372956204867271,-0.14237174559721866,9.471130747871424,-0.004479781002216508,0.008975107117288586,-0.007835954339509002,0.13
-0.12418033814976333,-0.09290029889980657,10.037264069780065,-0.00659806792213809,0.003349945228398983,0.0036069064556486967,0.14
0.05705301988641509,-0.12097980549850809,9.874148969316193,0.018844459403475216,-0.006573355483399306,-0.0022223505962531173,0.15
0.044332883681363004,-0.10442761076392389,9.719361508608506,0.015030891182018754,-0.005242385629719758,0.006385185962159713,0.16
0.06327176587519504,0.04007327442612117,9.805058229286708,0.008273196886563056,-0.015075024206357136,-0.0025854235225351864,0.17
-0.05282156088500385,-0.04853714157847854,9.699146587490773,-0.005399181627690688,-0.01695436276627112,-0.011130598800719163,0.18
-0.08814272386825446,0.23200474839310425,9.859847256730456,9.128766302208084e-05,-0.021973830216678657,-0.013998461539610357,0.19
0.12832646609641798,-0.02867466918139444,9.916227946151814,-0.005277948736956674,-0.016174816354160976,0.0005109117542540796,0.2
-0.09612485779573682,-0.04486054503180778,9.821713981250387,-0.006842785420594439,-0.0001724277903690651,0.0003430067770549242,0.21
0.0381266791972121,0.04948376051415194,9.628376331896835,-0.009124185512417763,0.008780654860113464,0.005151024930550011,0.22
0.014907285289172123,-0.06143754748504198,9.772574412771736,0.000994785775277353,-0.01633312871944447,0.017496200020009043,0.23
0.08388929258712097,0.08637681856013885,9.755726408587671,-0.024938814089882598,-0.009433647437800076,-0.006266590756848286,0.24
-0.002675303189141054,-0.01760070095576886,9.746005324008662,-0.0038079377401483857,-0.007091147152549349,0.011411795581591893,0.25
-0.031233782585294696,-0.0358513476946463,9.813622437008881,0.011628905860170026,0.006754485214320586,-0.008912618272966464,0.26
0.12018047504030654,-0.011082889309231077,9.824425187203191,0.01252357292249303,0.004802326679043746,0.008447210962729098,0.27
0.0331353642899185,0.18879984697835195,10.123690128791255,0.007350515945738859,-0.006084691273655867,0.0056625157059542975,0.28
0.0759292426533036,-0.1222833478060505,9.855999441765254,0.014098610165675445,-0.0005968929232812027,-0.006186849966342875,0.29
-0.09308957759328895,0.07902156996827021,10.047695897330541,0.011997658410965078,0.0020502775339824035,0.0005016189296230334,0.3
0.1428473552827587,0.04198100188233991,9.908298275843652,-0.012586404284668305,0.017378045858013478,0.02000991166278953,0.31
-0.07782480129273245,0.015061688992051528,9.834672714356055,-0.01651158500921899,-0.00025823867982667357,-0.004560412639102757,0.32
0.02752638596131057,0.00866150605456182,9.71795392746228,-0.00985369138525609,0.0014227853025361443,0.008119283189606747,0.33
-0.2250253851809676,0.1830892197832789,9.826156498444018,-0.0020765462605602473,-0.006368747487675828,0.020873464755861146,0.34
0.0855577514054489,0.03699037611099895,9.868616523185151,-0.010890014027065268,-0.028422026556483876,-0.006872363143800546,0.35000000000000003
-0.0029658723609275834,-0.019159084587523162,9.840461863845983,-0.014297107554293616,-0.0015260897927474697,-0.02271675137189939,0.36
0.05525731842714748,-0.036631756765806614,9.813378794572893,0.008748577534663203,-0.004418250073294353,0.0037663821477464045,0.37
-0.13448912365188345,0.013788557706296351,9.790877724400008,0.009262325491008114,0.008974664431113687,-0.006064324982934154,0.38
-0.20899045777524983,0.12140628507781664,9.803647514091352,-0.007650064516048148,0.005426227773344636,-0.01657650309719185,0.39
-0.006541507286828454,-0.021612347770724676,9.796575043906737,-0.006459977051087337,-0.0007503614558149674,-0.010262291187951219,0.4
-0.16390376707846854,0.15881717083956626,9.879144570591219,0.0017498469582648514,-0.016332282735084903,-0.002952466495134426,0.41000000000000003
0.016003367067633403,0.08193371343391893,9.754308911360472,-0.01615540362067995,0.0031755505590146437,0.005853593130452927,0.42
-0.09833150173932911,0.014959895343070483,9.822747791944952,0.01361092930962159,-0.00794554260933274,-0.009821393698288484,0.43
-0.008462511447667992,0.11366029627206534,9.787493798883489,0.006459675741283067,0.0005754404700814866,0.003030119531983248,0.44
-0.09423967128330124,-0.1505275971157219,9.73329186691611,0.004035471779142525,0.019013847398767065,-0.0071019773162698885,0.45
0.019060008396760763,-0.08298051925937959,9.625160077228175,-0.019781673116090883,0.0037968022073877734,-0.012102501537811164,0.46
0.10680144405306849,-0.031556781260543655,9.862148795341088,0.005906487383277569,0.004540160840017563,0.0071961786822447495,0.47000000000000003
-0.1418746767530658,-0.0862007347570866,9.837854367591754,0.00454389305794581,0.006568330283486439,0.008297085212926308,0.48
0.040995548504818395,0.026688343591049407,9.75473747166756,0.0005835725494903445,-0.005609157934947846,0.014477208365910033,0.49
-0.1411657358729845,-0.03016599324433239,9.87475371240157,-0.010825581059184793,-0.005269159403227342,-0.0012634956579449861,0.5
-0.07959028809686049,-0.13527994111480254,9.966512946871132,0.002978831186603789,-0.007281588235360629,0.0019270791245104726,0.51
-0.17635261298373317,-0.1258311538722862,9.733752990011451,0.009311071133148356,0.005520586539704375,0.0015495806420229605,0.52
-0.018956922485878117,0.027959686789468103,9.93186671544915,-0.00549340896306195,0.007612795116569975,-0.012061762289794999,0.53
-0.07530807590075785,-0.05933439701700469,9.820241815299,-0.021652488378603067,-0.00044393891029006333,-0.006798425315545962,0.54
0.11634413134522395,0.022271613289864444,9.845726730173627,0.009731232117412702,0.004905231859554076,0.004489825985967936,0.55
0.10738002500468846,-0.12496663118315413,9.878757167789216,0.00017918228819599835,-0.0013315468586608955,0.02062997964593472,0.56
0.02058843516795556,-0.05682228570124942,9.77584623138956,-0.002144429857692408,-0.004485356321547826,-0.005629077357385892,0.5700000000000001
-0.03906574994566865,-0.08764098397846054,9.805751406048016,-0.011290146629097586,-0.00020101626071009407,0.005230945206339436,0.58
0.06013264195484668,-0.07851540777223431,9.767816467158447,0.003244844428482146,0.0022619068433614364,0.010632130981338406,0.59
-0.12701451681464124,0.102934870575941,9.821566699021817,-0.008079899653871101,0.012510345777129337,-0.00888494525920422,0.6
0.12024205531650126,-0.0006286221070549306,9.872725867007823,0.022134520205919633,0.01476326707176756,-0.002338489816374519,0.61
-0.004286108275177844,-0.013653723983688706,9.764315980381872,0.005706808527480314,0.003660136557208442,-0.0010520717432476968,0.62
0.1153397878514551,0.1297016584141343,9.747418281882137,0.006333384274932732,0.011429164844522928,-0.018832976020405633,0.63
-0.07332621084903619,0.14492167758605598,9.833282866317147,-0.0012691194755394181,0.0032620455703907987,0.007293735823329384,0.64
-0.195356430083368,0.03959563644842001,9.88690042044147,0.012620441478821076,0.0054771724475882865,0.008632945081672632,0.65
-0.02817032142458599,0.15168304649126857,9.881683926693917,0.0019296019341111892,0.01501780430317232,0.012457961199911867,0.66
0.0006976218770849405,-0.10923796359637933,9.684421640310754,0.010545194303265724,-0.007386998263255899,-0.006274256940333459,0.67
0.031944510021334194,-0.062354909316105045,9.835980318050263,0.007684188212548967,-0.019953056415055834,-0.001667859557165162,0.68
-0.14129262090202266,0.14716828580806496,9.628894231323521,-0.0023747485670043,-0.002951745355319242,-0.0006272693802648948,0.6900000000000001
0.031225803920610785,-0.05582863777621705,9.79911349012864,0.00031396718877166677,0.005240546124211308,-0.004688634681222375,0.7000000000000001
-0.07711417108936591,-0.039308477337360065,9.816159180855163,-0.004864429741427091,-0.010266487911137195,0.012750001204299699,0.71
0.14548586261291302,-0.023762452058993612,9.74623785161452,-0.009358184897857733,-0.005106758672042618,0.0076521339621384524,0.72
-0.0848024728705909,0.06940894092072417,9.664462833541936,-0.005170349890717789,0.011350272417930237,0.0007917217015001524,0.73
-0.09614593588374948,0.014669098795774941,9.837118877820435,-0.003460226368367694,0.00753583517197477,0.0025046435737985802,0.74
-0.1706927067479512,-0.15149570639620458,9.772871084657334,-0.0037244712586150274,-0.000680691363425062,-0.004176057385805623,0.75
0.011826151746390484,-0.0016057674089088652,9.73306958808186,0.014036639358855015,-0.007832360768571765,0.0007966279779388398,0.76
-0.08021452423652857,-0.048177760222856636,9.943849683237188,0.0063669282783316685,0.011139181627507613,0.01607555100942244,0.77
-0.015996379612573098,0.20661905787339988,9.901738115542704,-0.01118554299367309,-0.017149206674420936,0.0007623644349000324,0.78
0.1433431897529863,-0.06877379410767108,9.675924413108314,0.01625752452029898,0.0031021516178423715,-0.002661444022428124,0.79
-0.1292521232707721,0.04300154185272064,9.640606306052675,-0.008017256061296383,0.006449166538138128,0.001181005624650264,0.8
0.02218354177217886,-0.15133317264925372,9.80889665620014,-0.007994842961888916,-0.011193800417839787,-0.001872056644202357,0.81
-0.05287093099493887,-0.0727710772461069,9.784156993261345,-0.006245427638865467,0.0048045795557335,0.004305992588388453,0.8200000000000001
-0.18590727259521597,-0.055988835533479775,9.730362009137293,-0.0010936038850692584,-0.009314361870444423,0.0029390201631504386,0.8300000000000001
0.07285501860317105,0.08959753187276062,9.883968172724435,-0.009516628232089193,-0.01109506796942456,-0.0013781308830241022,0.84
-0.10462747345528885,-0.021109484808259395,9.759981195396538,0.005565592254095744,-0.011985344514594579,-0.013619387336873614,0.85
-0.018737544528673062,0.03666162467724401,10.037776680031866,0.002114229155819205,-0.0016567022189721316,-0.0005088749805131626,0.86
0.16710579140243573,0.04058818852861489,9.719200375734264,-0.008793775530099327,-0.005036890827801627,0.0016372584508396449,0.87
-0.07736345979550857,0.18077406716516256,9.773846683029983,0.001739130905571752,-0.010587912405306208,-0.0037692550619019905,0.88
-0.08416571505798037,0.06008739276284743,9.887018821049734,-0.009266520902213731,0.005252277243675443,0.00027083744890996964,0.89
0.07620232316601988,0.11177501566681802,9.892516640155929,0.0004217469850089911,-0.017372921120420454,-0.003354611443592402,0.9
0.2129635154000793,0.14954390132735443,9.910454632539688,-0.0048857196880114015,-0.013516938388407469,-0.0021168936137075985,0.91
0.01354544241328719,0.10690308991443989,9.941830532945499,-0.006803504496903958,-0.0017331648552164243,0.004053246314038632,0.92
-0.042598046447007584,-0.11072530239768981,9.662535583844093,0.014512555434464666,0.003610667711694752,-0.005758488249674176,0.93
0.05417335975452042,-0.18680001068472032,9.705504760899522,0.0028455470941603613,-0.007764764805536965,-0.005117683672901484,0.9400000000000001
-0.018227136521183414,0.16371583615909657,9.62289625552955,-0.011737595346736657,0.003183516086612207,0.0038043615298048823,0.9500000000000001
0.18832725073318263,0.03524038676130573,9.839158057916976,0.013056321142819521,0.008281733408684417,-0.01128282795544736,0.96
0.12614769372733367,-0.08128809401816928,9.815845543758341,0.0014616748676049504,-0.0021035297289089976,0.0050235588426698185,0.97
-0.11622911831629845,0.11107521981707652,9.76614206250636,-0.007921227446714427,0.00017598492898223382,-0.0004932237868424615,0.98
0.1261233186396104,-0.03980491349752149,9.828684111551306,-0.0026909459484230898,0.005816162910557341,0.021647886647809544,0.99
0.15510701365487037,0.034356474316826084,9.910173712284854,0.0005659425665041599,0.012098164662805123,-0.00620415597836128,1.0
-0.005699843229080172,-0.079543799523349,9.769594383356491,0.0031130622345500697,-0.006972246559372788,-0.015493960543436155,1.01
0.07120432059254429,-0.09909613240317366,9.837144050846645,-0.013318415823024829,0.00040380083610352046,-0.0011513794303167999,1.02
0.09512033040389402,-0.0760637452685003,9.799817281605398,-0.009757752707349337,-0.0003742231850184529,-0.01195850674759173,1.03
-0.040044052256847984,0.04116805919657317,9.873489717510743,-0.013395250592756425,0.012999172306735725,-0.005827261021171668,1.04
-0.11105569535049559,-0.04184481959805239,9.853926976209394,0.011498250852393066,0.007505249085151297,0.004263166846920506,1.05
-0.05528188907805185,-0.2236556837755943,9.800358062185962,0.001418520543622504,0.013454478063195661,0.027486740622901077,1.06
-0.05457921262413216,1.660900241240042e-05,9.592905180301514,-0.010448772616270146,-0.006406928666134402,0.019821735486902917,1.07
0.0843298579890634,-0.08117681205779263,9.861908127983968,0.003821853096099556,0.0011004496970460434,-0.0020427423913486754,1.08
-0.040381474296239984,-0.014600419042298708,9.743329199873385,-0.0125847957045761,-0.016249790559842887,0.01179358701543471,1.09
-0.05284772295248461,-0.2124796850247735,9.927309408639791,-0.0068166317401384185,0.01281362163054664,-0.020850431235663672,1.1
-0.004196294862270102,0.13153951049638646,9.657273275567126,0.02253118548185741,0.012943625278552296,-0.009941259831456831,1.11
-0.1477986358301308,-0.22816920429439744,9.827803562624108,0.0179330367660607,0.009406675254366432,0.016118531734197115,1.12
0.19242449183642385,-0.08050965385301759,9.941020433741985,-0.00807252925071603,0.01806021551004006,-0.0066590721509439815,1.1300000000000001
0.09595316702102014,-0.017265580819983747,9.631472720370418,-0.006355367264411065,-0.01947740802182003,-0.0032317451181109237,1.1400000000000001
-0.05410640149617818,-0.14010453909751477,9.86070769173501,-0.004988993664741217,-0.016771919229579452,0.003997309158727754,1.1500000000000001
0.020719069447314217,0.10123074419550569,9.676297540368928,-0.01815425411507816,0.003010558284126185,-0.007548422206759933,1.16
-0.07941642624602285,0.14348531565892422,9.767890194884462,-0.0014503508083099877,-0.007874258620808991,-0.011543185152069728,1.17
-0.06283702241242123,-0.09981298722381454,9.727629565001813,-0.004001952597427222,-0.010495579817453755,-0.009773336050035573,1.18
-0.2558384289159422,0.060419693361236905,9.866097224219175,-0.005413838295734228,0.0050865537695935275,-0.0005806049623041409,1.19
0.04586906439681598,0.1121973701205593,9.845287612843261,0.006481911351552916,-0.002145718731404606,0.0007194071336829686,1.2
0.09336859901501288,0.0664568775729924,9.617474694160347,0.004007081448979535,-0.0010145899372807708,0.011860963997954868,1.21
0.03586315505480322,0.04606852682184767,9.926954065148648,-0.002777424800431655,-0.004194086238287735,-0.0017311126029555903,1.22
-0.03272653580648888,0.021780068649491516,9.72894986258512,-0.004660678812930804,0.008014520199782391,0.01015512127605424,1.23
-0.07111109182135472,-0.0661686676170423,9.64604885308069,-0.014728868643112498,-0.0020137876807239845,0.0073249422599548425,1.24
0.12387463508522992,-0.05846964787126251,9.964939551835068,-0.005518836481971463,0.012173700958455536,-0.0038972884920531288,1.25
-0.16887944310125796,-0.11897022523523629,9.758587462305503,0.007971859009353629,0.0017961702336632165,-0.000573533764097538,1.26
-0.03285962072429088,0.06926347876300426,9.876918824923317,0.008767214202953148,-0.008185739036819316,-0.013142430770527298,1.27
0.019418230216768344,0.10836240954173865,9.826234016846664,0.02225686812402111,-0.011320940947849932,-0.0030556507962520626,1.28
-0.09667544714421143,0.063558241025283,9.724250789841063,0.0002218053537695261,0.008579748121256366,-0.013253138276742616,1.29
0.01828526932568358,0.08044040164924991,9.935135590873399,0.01713220110321897,-0.006972289943606981,0.004629786036282277,1.3
-0.008013316022948542,0.061619605783856196,9.878113534137453,-0.0104764578283417,-0.005412365357409299,0.010885133968186222,1.31
0.07910771487165419,0.08606341552966972,9.58006518386271,-0.008097791445334622,0.006490798495375673,-0.0037677438214167246,1.32
-0.07081369999651407,-0.017862452406812005,9.829208105092913,-0.01652837815944299,-0.018234290367394462,-0.011459667229980689,1.33
0.04406437374767219,0.12132959564967608,9.999682265744665,0.00348120665270668,-0.0050343664467949415,0.011153074665990895,1.34
0.057900125892824984,0.07970591612384202,9.812516127770568,-0.0013944725514960234,-0.021022026545854233,-0.011196160060296348,1.35
-0.13561100653469926,-0.04387306789750809,9.786973351925164,0.017890480728818423,-0.015495209109188684,0.009371709423329568,1.36
-0.04314683166171762,-0.0640433492063469,9.73243338300286,0.0066802797443089295,0.009965901888950494,0.002633843256398594,1.37
-0.06980788339285697,0.2161085589968006,9.781945141201192,-0.006875573402969456,0.0014507558266424092,-0.003443243543842329,1.3800000000000001
0.0030804430407092125,-0.11617137423233831,9.859917319408,-0.008762650161431589,-0.002449332563170622,-0.0038396684318798497,1.3900000000000001
-0.16526279787597745,-0.03561669151347191,10.077875450103825,0.011447439138685438,0.007804798350736864,0.005371158087943955,1.4000000000000001
-0.1655111312008467,-0.04291195616742515,10.066895527762817,-0.0020951186257159348,0.003302684718808608,0.0034037369465673294,1.41
-0.08554789557033923,-0.15721854756763454,9.705214250994285,-0.011259258809518889,0.010199456829080028,0.013206901921336571,1.42
0.03635279553101776,-0.0038254111280167724,9.924814483334321,-0.0032106725435718498,0.00040330126013641334,-0.0018718196812730465,1.43
0.022462034868006273,0.10905208680265699,9.764975538487063,0.008472747935512077,0.004863431489509783,0.010405077817083403,1.44
-0.08218645132079162,-0.07785148441925144,9.826958381015553,-0.012407580189847436,0.0016042612568358328,-0.004837315007072009,1.45
0.11234385348291345,0.11713330091778357,9.689852997924639,-0.00861001093821322,0.007959511439948785,0.006500333671838047,1.46
-0.053577242060805344,-0.1012637181975439,9.680874947042446,0.004817594648616206,-0.0062242949273919,-0.009620728682755538,1.47
0.11830238964977571,-0.051932490338997286,9.870639780703943,-0.018207126696412664,-0.005384328740080962,0.0010099295276486708,1.48
0.005301851911697935,-0.05299200851394773,9.664165168174986,0.013089261488706365,-0.004510036843000659,0.02416271034854088,1.49
-0.13111622723091995,-0.03545246207649632,9.833934611753822,-0.011993476446796877,0.00031642141484980576,-0.00031584757423810684,1.5
0.13515851545129254,0.04249089028230555,9.751613337018654,-0.0011964493837041089,-0.010571353365992145,-0.003921203021338271,1.51
0.0920442020827886,0.06186694709581665,9.945726759407757,-0.005684918788795636,-0.003556350125355261,-0.0009074337576556931,1.52
-0.01627169740278942,-0.028320890319958204,9.616192438418086,0.0019716686840102076,0.0009786695560948435,0.011148651048751623,1.53
-0.09003537483366833,0.04056393464857988,9.757018720612496,0.010076633172992702,-0.003165216582879109,-0.005011574955469519,1.54
-0.03121462889329454,0.04206556662056675,9.995718579315525,0.003696121024358373,0.002184147283662818,0.024174573107927044,1.55
-0.13709117228449963,-0.04306587843474325,9.709882698910727,-0.009629337439658282,-0.0023224150325321536,0.008663470370592757,1.56
0.01074828206342929,0.06852617564639855,9.746443041223626,-0.007045504214742192,0.002291452353307691,0.0066609587367900385,1.57
-0.13643361231076365,0.05798892526762839,9.762792734039806,-0.018179299501890876,0.0073655515913910105,-0.003773649415093331,1.58
0.0193324713249739,0.06497314982463245,9.558592335651834,0.0068713124773818,-0.009823593361563462,-0.001421599575787,1.59
0.060276330904424816,0.14511872225848457,9.799760069504522,0.013464218358453645,-0.005930591423454047,0.005879263078119848,1.6
0.0785394994070867,-0.13080008778263869,9.796257156637164,-0.01823546618140126,-0.018438743727427133,-0.0025748472494469344,1.61
0.06596834171441636,-0.1800457954800461,9.91376682488178,-0.006895604325122491,-0.005317749943027076,0.00819910581847937,1.62
-0.059441699595987545,-0.20449742053477699,9.90415365082346,-0.0152255110846022,-0.018221896145131193,0.011511044837128932,1.6300000000000001
-0.08707812484098088,-0.1704945254246157,9.907707365677632,0.004552054925019462,-0.0028010139109031916,0.012396062387456724,1.6400000000000001
-0.0067643112980154095,-0.16027508904711252,9.856092136844651,0.0049571011201298525,0.014538461274240728,0.0046989549941413265,1.6500000000000001
0.047996259650448445,0.08643482450379575,9.72824317395807,0.010091869014320255,-0.021004787344105484,0.014665969960564637,1.6600000000000001
0.10332716647690528,0.015434104540024153,9.767493922298806,-0.008295452571509168,-0.014685711835579271,0.01366736051822745,1.67
-0.1349946454092302,0.2145289813680501,9.806134935295733,-0.005677260923816032,0.0053426226560756565,-0.003239720090963589,1.68
-0.13654703827593295,0.08480372683513793,9.94803063845386,-0.013896018487051914,-0.0015670293338810055,-0.012699962815254174,1.69
0.07729605414654808,-0.040594300168033726,9.846046451189903,0.0004982473568628566,-0.0003191828468016188,-0.007438942448862398,1.7
-0.08373809725781423,-0.0077132100787574475,9.865877214047583,-0.01258796215468868,-0.013020560959701125,0.014682803943089294,1.71
0.08777926831939938,0.10953964090541134,9.74796398393782,-0.008927736214430633,-0.003382034458742883,0.009324091484748635,1.72
-0.012148124836557792,-0.1928743960185061,9.78721943605044,0.0038466947745990185,0.0017118582200339625,0.004502705700107303,1.73
0.019840805217009507,-0.028194265482477554,9.698794518708647,-0.014708765484869678,-0.022446488585776626,0.0004186559931474969,1.74
0.044705517090422364,-0.11031319517227484,9.841279535622926,-0.005015936829098678,-0.005742513986536443,0.014843748268879136,1.75
0.029995257747237887,-0.04283826083336125,9.78525352362585,0.0029499808752128875,-0.010292698950261936,-0.01434774022156476,1.76
0.06314106787257434,0.04307104275564205,9.848875942302499,-0.010884879952646085,-0.004191453648060688,-0.015102232878698416,1.77
0.12259242090630317,0.24629575836612758,10.004467723548304,-0.006798390634850854,-0.0008459671929630814,0.0065134784001720505,1.78
0.1838467479867738,-0.18569259686923845,9.764778180943779,0.0028089619325599073,0.009482744317044217,-0.023522474497592507,1.79
0.07436577564324869,0.008452382100711356,9.854828154120016,0.018168635379290587,-0.004591979273183021,-0.006681763231336202,1.8
0.15756382993591517,-0.09414078426978191,9.815901710616117,-0.00033136620263204194,0.007503573578610561,0.006553186032129192,1.81
-0.047296061174206185,0.09097319725992792,9.71610829426019,-0.006595120085526754,-0.006687784926696316,-0.004338350073380107,1.82
-0.06521342735533613,-0.23794505585773396,9.672729327205547,-0.006527451090660521,-0.016030027840387352,-0.022881238412301802,1.83
0.1729892985889165,0.04900941474525672,9.870193114683435,-0.007670100636672123,0.0009775042152251356,0.0015302736107329854,1.84
-0.12711614087303424,-0.04282900166092816,9.876980078328815,0.013017968594028371,-0.010557627012502409,-0.005371985352546301,1.85
0.04482799936137734,-0.0800580588173525,9.822790435065466,-0.005811571501032935,0.016992563945252767,0.020894617704326178,1.86
-0.012314414254199997,0.002564322916937107,9.610020202013883,0.011929578048900111,-0.016206706298313268,-0.009962414048462237,1.87
-0.03701699798906493,-0.07988872099299801,9.659029165101837,-0.008138579377535213,0.019045083922427337,-0.002399337024310288,1.8800000000000001
-0.2291568175242918,-0.00544661573825463,9.729582563142285,-0.0007976933679950123,0.010406689836265342,-0.001293259847559034,1.8900000000000001
0.05053337893865195,-0.08401655303022104,9.850215794552211,0.013624726715751123,0.011755013151299667,0.00288640845903065,1.9000000000000001
-0.11641000894017889,-0.02512525909582164,9.887991739916536,0.002641749813159251,0.005026034247265637,-0.02005510200297987,1.9100000000000001
-0.06253215199141986,-0.028278773161868356,9.721235633645376,0.0002626466575432034,0.011755492952785227,0.00281533001574154,1.92
0.027824184137180276,0.12629737119809836,9.995191953948009,0.012728489988415484,0.007886115790306101,0.011422265384087131,1.93
-0.12973490628818443,0.03322279316790027,9.730388036954931,-0.003147020724307028,0.003667878886395165,0.00989632286308786,1.94
0.028226576270425408,-0.15756311001832746,9.858408266155351,0.001711046915314539,-0.008099537865408788,-0.010809931520343643,1.95
-0.09138472709435079,-0.08497250086691727,9.858918616782272,-0.0009204951185251963,-0.0018512863350487188,0.005179654784118043,1.96
-0.07290184528588313,-0.08686161763991734,9.781997912499707,-0.007767666543061316,0.0006467310877678308,-0.010386933593359949,1.97
0.08246309574144625,-0.04799566533852771,9.826491493174855,-0.0037320286674127575,-0.024409468031979634,-0.010693916555862498,1.98
-0.0025714598074337404,-0.0629736990308795,9.805214035459455,0.014558680323497305,-0.001232819933318227,-0.0013643989572347617,1.99
0.11790142107867285,0.10367978790255677,9.751497772938436,0.010828096320277245,-0.011798499056472398,-0.01431498510718117,2.0
-0.1425534164724143,-0.02264613187878535,9.92437636548718,0.0225975938224073,-0.0027830755767744315,0.0023780655444274905,2.0100000000000002
0.04260406663348193,0.015495602540299122,9.884782062713802,0.0026881258317367125,0.018311150915171565,0.003942385378094928,2.02
0.08827746581713686,-0.17395911356361032,9.665746798844122,0.00023693141421673989,0.0024459410744114714,0.007986165216617283,2.0300000000000002
0.12381052310076997,-0.10465481041302371,9.886986281210767,0.01888242959361211,-0.0018806465931726771,-0.014659027241640902,2.04
-0.09560264887790311,0.08868115410189997,9.614737147223623,-0.00409216062334724,0.0007739599733322315,0.007946515607363784,2.05
0.19116991991951313,-0.025375456761213718,9.911539581513887,-0.02197119010468017,-0.0022949090737960014,0.0027198749990170667,2.06
0.012937407321865666,0.0788705891406506,9.730519314596558,0.009899592297808898,0.010021176832812602,-0.009101684139497242,2.07
0.1113133021749085,-0.0390883205224419,9.624149997404123,0.01624884944811942,0.0021671539005737655,0.007342733771154166,2.08
0.1068490962252061,-0.018244465431255966,9.820410819672318,0.0004548088710461383,0.018216715104661156,-0.010255226095051867,2.09
-0.07253376042390368,0.05886664114101037,9.801982689974185,0.004472281444163133,0.007816530874137738,-0.0040504509484820045,2.1
0.018225350388709646,-0.009038889133987834,9.602691996439468,0.008873338482737277,-0.002262350951484375,-0.011836473195051414,2.11
0.17989882693977033,-0.04625801775893536,9.920725008682721,0.011194131718688162,-0.0031699896392069636,0.01006908747223912,2.12
-0.016874786747906576,-0.07705425775522033,9.845288957937386,0.0010399980724126237,0.00560830375600525,-0.01695455151932718,2.13
-0.018662028641638937,0.12673835480252452,9.826979335198157,0.008672691693740828,-0.002136105359003932,-0.009441576613346799,2.14
-0.009725690305830656,0.22079541577328646,9.929365563287366,0.011262461101333818,-0.0017627871145075192,0.013734603255926106,2.15
0.1325540172138979,-0.14749037328731235,9.793344357558349,-0.00312555720184786,0.0032789631023925044,0.011678768928270824,2.16
-0.14625353825693843,-0.11348687015366446,9.76949505480885,0.014763325365945972,-0.011618840286942198,0.0024035530389975735,2.17
0.046340437783807586,0.04603173165584397,9.965713134674278,-0.007706018199577648,0.005667770286388775,-0.004334895631975977,2.18
-0.05605641812103815,-0.021084063284062156,9.898889388474753,-0.01138355356926162,-0.006104121545426773,-0.004961420466493862,2.19
0.044799361984224524,-0.1596593460683733,9.756891233388858,0.004801980485831349,-0.013769218409573528,-0.005981377604738023,2.2
-0.047955186780938144,-0.004487681103645498,9.876503832133873,0.001461833321275757,-0.005166507137667626,0.0019867705992058075,2.21
-0.0828428900852899,-0.09294466326669137,9.75504590702912,-0.001526170355218925,-0.0006547260072228485,0.009973282119485276,2.22
-0.09671946513488976,0.041375867203553615,9.70313755732708,0.0016452995416164243,0.01850659210313385,-0.010938186953295714,2.23
0.13798245212610147,-0.018165508285213378,9.886622318701558,-0.0008388800441063377,-0.0029566543729442523,0.0006794563528927054,2.24
-0.10737448714921126,-0.09606060063761324,9.72880076509087,-0.008254367732946943,0.0003597515582699649,-0.006442633595663925,2.25
0.034905171099810055,0.06854761890193255,9.737356415648053,0.0017744702699661113,-0.010290665275007344,-0.011792268106059812,2.2600000000000002
-0.09265706990100153,-0.07053134051862785,9.854396849037443,-0.007222767965858057,0.016236721048180462,-0.01126580677229255,2.27
0.015187708378113557,-0.08659009763887783,9.818202504782526,-0.002231967075355134,0.0014374944403522344,0.010136843545007403,2.2800000000000002
-0.005101485850291326,-0.004012981138189778,9.686175358631465,0.005930400048835865,-0.014207727956147047,0.016643087538073004,2.29
-0.022939424187297577,0.13794110281009062,9.883438571864906,-0.011313886334957815,0.002852320753456742,-0.0009811983791728084,2.3000000000000003
0.11441541056212126,-0.04254616420704563,9.859320839878164,0.010165035009549336,0.0004712877570545416,-0.014362959873144072,2.31
-0.11806238590269919,-0.03009861773879324,9.91985965282644,0.016521068260517007,-0.004202132452448555,0.015773015587659808,2.32
-0.21654712320881087,-0.055080532630488004,9.997780567951821,-0.007817549106748641,0.009711978646047894,-0.004729611828080324,2.33
0.09731084100057912,0.015310729159071626,9.80865601826421,-0.0009724443787499107,0.01203368488942564,0.00352472857854643,2.34
-0.17083819785273918,-0.029588480585022243,9.654636839001382,0.015694941665853182,0.018445578461307115,-0.01625161295852197,2.35
-0.10639785555953758,-0.05899725402874582,9.920401056290308,0.009218347521525007,-0.0032160955755131497,-0.0164407002142399,2.36
0.011676846730149591,0.049018684781850966,9.74468943890159,-0.011837258780502586,0.010363252163596386,-0.0007045528235700023,2.37
0.2843174952025293,-0.005189338682702262,9.75415473731433,-0.012231234135124924,0.0027852239942256136,0.00690153049834511,2.38
-0.12108363014492862,0.024796389356843418,9.89794388577352,-0.005436603335968472,0.0010438923919825853,0.0033172740886764605,2.39
-0.032343722585297933,-0.022152883191270012,9.764816316274318,-0.005869213118992566,-0.0109750152342548,0.010168290775168261,2.4
0.05510627834191472,-0.05037827094357322,9.788580764332327,-0.009432792604699184,-0.003972209471986823,-0.013102171143373776,2.41
0.3272201970651054,-0.001342370084185657,9.785943852014432,-0.020693628370466347,0.003444429851575794,-0.027854955277014103,2.42
0.0888857320496243,-0.14117591922815917,9.932649356326241,-0.010890985417276981,0.014051803733240978,-0.0018495410263070688,2.43
-0.03064064330856919,-0.0731423506737964,9.799979735267064,-0.003020046935642479,-0.0048512100738654414,0.0060676866417956575,2.44
-0.016295035266833305,-0.002850665609025211,9.830185430633014,0.006537678199989689,-0.0016549976790682492,-0.005043786551035506,2.45
-0.06448940079847791,-0.10206842077045808,9.836097673194905,0.0007700450545477421,0.010679555420224843,0.004138819931744244,2.46
-0.07539814562915147,-0.040118516032996265,9.743212300323524,-0.007037159955579528,-0.0028300785324497234,0.0003288481259187911,2.47
-0.16162783445521364,0.16927887903630892,9.836652586402025,-0.006246693997754282,-0.012775346018645422,-0.001970296531592683,2.48
-0.01887593130637449,0.20172735836427902,9.79004630747741,0.011339651522167373,-0.010205825613728299,0.01713237976625571,2.49
-0.011443056434003335,0.14452030387164727,9.898229841466296,-0.005262810063864288,-0.013927362312126114,0.0004623408956089879,2.5
-0.1804049204176047,-0.10262767028558131,9.910740036270733,-0.010658968660794346,-0.002037485177482486,-0.0011437593292056565,2.5100000000000002
-0.014364107976308866,0.04101350339492049,9.698030631551783,0.005687703263943442,-0.010884665908934405,-0.009680065109466946,2.52
0.04767692738902864,0.09817099356291331,9.778997171381404,-0.009530866567793323,-0.00034345995622669186,0.003924598243095493,2.5300000000000002
0.20240532433891492,-0.006385870350647731,9.86277731252246,-0.011862020684961566,0.020764939139235435,-0.009731892211090788,2.54
-0.035400629737721075,-0.025827228892144533,9.674213700767696,-0.004044069596317305,-0.009233528646528188,-0.00045569047796480524,2.5500000000000003
-0.09150598916474262,0.05617099502948656,9.776553636194931,0.0010497936617864959,-0.02172315417415196,-0.015516897397524121,2.56
0.07948979849376932,0.11790794466905373,9.79312285375046,-0.01734465163637881,-0.010511833175831785,0.010207502571435552,2.57
-0.134946076704594,-0.09466921094818023,9.658366488429868,-0.010629997625166672,0.004362256991398652,0.006832174714454452,2.58
0.025682099987063153,0.018981481411327966,9.75988244259788,0.007773420646954246,-0.0002803245473622033,-0.003036971605031807,2.59
0.08032338415315043,0.024581231202378262,9.576481435610981,-0.0015738309283856394,-0.003976139180418606,-0.015767775123182823,2.6
-0.006522113975603941,-0.04942401151986307,9.771285557655684,0.0005530487685110027,-0.009608938406968387,-0.008003251066885406,2.61
0.09876432542549572,0.00407892596493391,9.766491599467457,-0.010447544713266517,0.009204741012805835,-0.023660444911316084,2.62
0.02770828696290044,0.09235665207655072,9.836194310137037,-0.00701083664718646,0.007799054393152521,0.003528897572173809,2.63
0.026760768791078478,0.24303036920603158,9.764882007193293,0.022750858114503728,-0.002882842936154053,-0.006012569104329726,2.64
-0.025268513907041497,0.07082854126346438,9.79581301749367,-0.0033249324249858313,0.00641565740560209,-0.0009443667043838185,2.65
-0.01648024294583723,-0.11976946587606899,9.759762309601287,0.010679452655791627,-0.004539823753292398,0.006466527760358234,2.66
-0.08898004313910554,-0.029022635244256436,9.752370283177354,-0.013864329524789321,0.019352714916260415,0.0002839658302114778,2.67
-0.10485018077944937,0.0516420427933758,9.741557946219864,0.0009834981384432453,-0.022219550409678237,-0.0056224560027706766,2.68
-0.0489592598818852,0.28825682114842416,9.856791334327546,0.0005206748063858963,0.004381598454284775,-0.0020568209848972905,2.69
0.07631412716832847,-0.044509133302316733,9.9483976786033,0.006872047402780435,-0.013184840611880409,-0.021042215836481117,2.7
-0.23042186364836625,-0.08991449037990859,9.931344072477355,-0.0030718196855101148,-0.002882918586372922,0.004861489764004203,2.71
0.03325104579997908,0.05339104809963609,9.60573154735006,-0.0009735331630389039,0.006327355956206647,-0.0022501485671870057,2.72
0.045608347024146144,0.13216797678132358,9.807937638761338,-0.012967617714214242,-0.02257281862602683,-0.004107849944242301,2.73
0.11671015967178466,0.013111927879559596,9.81903380936848,-0.0010377870061605498,-0.0176802064772901,0.023934937062795605,2.74
-0.0033520566232034077,-0.10013683300062932,9.650569370347672,0.009073709978165373,-0.005378861557931789,0.00882226565119241,2.75
-0.04638490067337966,0.016599473345710658,9.943684450889256,-0.003959407037710504,-0.0024519862542792758,-0.0002672991339571531,2.7600000000000002
-0.03799458365130595,0.028298807203691045,9.915326743770853,-0.006447650146773145,0.013389391421627537,0.013499482173743589,2.77
-0.0714281906239334,-0.032184748047314186,9.84744339060512,0.004241384775930308,-0.002382649054158824,-0.009651614745151707,2.7800000000000002
0.17393143172813244,0.23663492392751173,9.70343045426293,0.0024406767827769775,-0.015494508526042613,0.0011564244364974487,2.79
-0.1222637467858845,0.08464385473667735,9.944319085531648,-0.0034312421902820325,0.00071051826675714,-0.018709785460594746,2.8000000000000003
-0.15804744068131696,0.08220322783802264,9.693785299609553,0.0008734662101213512,0.013763575427759358,0.006496414197689612,2.81
-0.09694855035006819,-0.0038528591031257754,9.724586189390504,-0.010359220506269617,-0.0036401059491022337,-0.01199916935248649,2.82
0.09085804105960987,-0.008138654293921098,9.789366883030159,0.008863223600926121,0.013240419777977908,-0.01639938575236098,2.83
-0.016103839326356808,0.011479575364568503,9.861379911680547,-0.0015437911214612116,-0.019703163454115033,0.007114391567577822,2.84
0.004528671943232199,0.02105730758976875,9.779090985690805,0.013043261935654778,-0.007997204599803992,0.0013526693494582322,2.85
0.06304924531471312,0.12471471689612766,9.852311645273717,0.009835804622489121,0.004107568252035338,0.005408418923453752,2.86
-0.04410554542808737,-0.2019499480135251,9.86209682409322,-0.012102333864032032,-0.0024054437394191333,0.003938283705304578,2.87
-0.13615250580339153,-0.12587712504059842,9.997237545232185,-0.010995665498384362,-0.003097031199163269,-0.013359754518132634,2.88
-0.16477403889123238,-0.013121627474649893,9.80681907487051,0.017265082766936814,0.004071585546753047,-0.0034672668642340555,2.89
0.004095202988361988,0.12302350381432388,9.897734217597662,0.02760033988087895,0.009105471460397701,-0.002020136800396713,2.9
0.027652579656534254,-0.054954372052885204,9.823232186113886,-0.0016338249683047728,-0.0002069646521342281,-0.004950658601272437,2.91
0.23875559601253327,-0.050350438382973484,9.763244394289535,-7.416448602186527e-05,0.010053274838193755,-0.007507725676362557,2.92
-0.04570854991247933,-0.06857822058695211,9.828597411051813,-0.008973831597858768,0.00758973780880944,0.0020739799646344974,2.93
0.146639338841803,0.03145180370867445,9.772743052759107,-0.002327741736963335,-0.008374348112385528,-0.005888720418062905,2.94
-0.03301689935519272,-0.11707956478112028,9.730456332757095,0.0028314005621976716,0.009505699704096647,0.01744509273210317,2.95
-0.024727828953547984,0.09122139009267215,9.584346085844373,-0.0017887420813510271,-0.0016664153663440658,-0.008141141539801892,2.96
-0.036270329331802215,0.07088895971642833,9.804807953419665,-0.01071894152555204,0.02241511224444763,0.0030507115791373524,2.97
-0.010332016197607957,-0.01695759847712349,9.696652545114675,0.009608789072073057,-0.006639922877166485,-0.000612815466673683,2.98
-0.08119741636808504,-0.03312319196725732,9.937194306816087,0.006381128437729627,0.00568760931804297,-0.0017902568243434315,2.99
-0.13944580945325635,0.011739713213668082,9.72091702509442,-0.004721251170855033,0.0003048236595577953,-0.005425721209348645,3.0
0.008101090357730833,0.055543477156221537,9.68231592616163,0.015401942401954862,-0.006799574020678541,0.009480792591386499,3.0100000000000002
-0.15402827948664238,0.06626840187099388,9.774209554435334,-0.003941202726713808,-0.007813366107115553,-0.008109686867912027,3.02
0.008590427285412709,-0.058831907506096584,9.975719422522868,0.01231586347656079,-0.0065224729311919765,0.025233645214464737,3.0300000000000002
0.03615509776476894,-0.09068176357197005,9.759425779183713,0.0007098581258813333,0.009755034623418342,0.013813335138182385,3.04
0.07002714742305342,0.03508274021970194,9.655748620953371,0.014474032330888884,-0.012838691785822644,-0.005053010777937714,3.0500000000000003
0.03228566476826202,0.12641063788325516,9.702542236611011,-0.0008006723417115718,-0.003578172639056433,0.012399161837216033,3.06
-0.05849006816054492,0.03762692008952171,9.82280086940341,-0.009779221609185233,-0.003786335179960115,-0.025635308708171697,3.0700000000000003
-0.31759528433853296,-0.09839188803912653,9.968891029681838,-0.0036975779405846844,-0.009526036130833901,0.006561492877687677,3.08
0.08141251432582763,0.04291194627052997,9.773026753630768,-0.0211112891788965,-0.006649466911613534,0.011556038329569598,3.09
0.14269531982003408,0.11649699418601112,9.701325447996714,-0.003965644579462026,-0.007944302188034293,-0.021211904215672362,3.1
0.07206400539053767,-0.024652272298494343,9.791722633203795,0.009761842828065831,-0.002207066406164716,-0.018369185372239277,3.11
0.3075401441190437,0.04147592712060157,9.917216217709653,0.007990549517468512,0.005328942444463263,0.005411623841663282,3.12
-0.0869254952650246,-0.09192377059160686,9.890829411295696,-0.0004678697678010816,0.00462096153767874,0.000748308026165584,3.13
0.0775089493499354,0.1580823375964851,9.826879424491684,-0.007138543320826999,-0.003923277443142848,-0.0014713389372732508,3.14
0.08530957554385536,0.043261233222650484,9.890437267714839,0.0021275470574151833,-0.008948899946583991,0.023997902015335148,3.15
-0.08818965103849907,-0.06521211436254805,9.623309101707925,0.00465000363661879,0.0009768122714899788,0.0028351515204626944,3.16
0.11452319012584707,-0.025151082925242714,9.751859351511937,0.020607573238290162,0.0006458620281778291,-0.003619109669524933,3.17
0.027285278223674422,0.0603110748091104,9.798820369892548,-0.00936466538225427,-0.012545759331367954,0.009253328325422592,3.18
0.002485488671617079,0.11694311274642295,9.82535283159572,-0.008849907279411394,-0.00642704133054965,-0.0018336575598057684,3.19
0.11037015698844731,-0.05868231852075545,9.654796884404044,-0.004164097497879608,-0.006075812723577565,0.0017490767051582517,3.2
0.13789422839650078,0.15756568005135552,9.882662760768392,0.00031126807611549543,-0.011219719138335535,-0.016585201587639854,3.21
-0.07762461506366797,-0.10187164002007437,9.718550217035041,-0.005382337629666787,0.014711719170546506,0.007346819649762973,3.22
-0.05212594395752943,-0.021846777009023877,9.778677055155283,-0.007148595927241413,-0.019632386761353728,0.0046142498214924756,3.23
-0.10255704772847239,-0.12452718283064304,9.700029705555435,0.005211793083394516,0.004622457962761133,-0.006695535901152713,3.24
-0.12706517361324202,-0.042627515121249154,9.733795932428766,0.002052045119024706,-0.0010821192189038318,0.003508778942317757,3.25
-0.05364728333705553,-0.07208795997186056,9.76430354070862,0.014854831801345931,0.006906341987609533,0.015922962853913224,3.2600000000000002
-0.08401284143869425,-0.05903915403060211,9.653372138509022,-0.0003976824770494353,0.0010068027781753607,-0.011576266832007662,3.27
0.025811565718464824,-0.000692774829876043,9.86592995570843,0.00959359376642186,0.006130015409385756,0.009881593589084619,3.2800000000000002
0.08686060414416909,-0.052809366191133494,9.68039551534694,-0.005212062768709046,0.01837542770097323,0.0021390982857491907,3.29
0.060334080169054484,-0.05533657058422723,9.86904167430921,-0.012818543061174017,0.01842181430729635,0.004644631821686925,3.3000000000000003
-0.00886521137201071,0.06246628603132729,9.77631179943089,-0.00910698895542278,-0.011348771778460994,0.0028163822809335903,3.31
-0.0017156770277314385,0.04810411136266195,9.82984750691757,0.008196103633037587,-0.003198376640478254,-0.014660396885728013,3.3200000000000003
0.10725166576220857,0.21020845107565056,9.682874728853063,0.0009005469100574987,0.004302403749194876,0.007912490616402083,3.33
-0.0515379813146151,0.040821066116537935,9.772014100507358,0.0019105754965633892,-0.00019558791973966916,-0.004641118351912018,3.34
0.038655244985417614,-0.05601800388192074,9.738962975171573,0.002956918910975597,0.00039924868031721976,0.009021834378529693,3.35
-0.0259114425648894,-0.022302535478784996,9.654341095199435,0.025790336410407837,0.011932711112360994,-0.015209756846029512,3.36
0.05076103215687198,-0.08004632699554265,9.90553578218988,-0.008636605855536548,-0.002971889158079566,0.004979127802759099,3.37
-0.15935918167782925,0.12681703818929987,9.959704837724663,0.0007311223530760418,-0.01323694958868007,-0.005108228867245211,3.38
-0.09396338920010777,-0.12871287918542948,9.776490435306432,-0.0085769632316721,-0.005894861416760096,-0.0045863720523302105,3.39
0.09192449381256994,-0.11555740721495084,9.916125873488749,-0.017595439346100708,-0.018928660266519414,0.00268646765880684,3.4
-0.043795368592029545,0.04637714680048444,9.853942358259085,0.0018435537167223871,0.008065910319551247,0.0033853158285152654,3.41
-0.1352311998830765,0.1313045462335904,9.716059621993038,-0.009681830790124767,-0.0073478346585893395,0.008081130942942927,3.42
0.07897002772832946,0.0859009338129404,9.806290852706434,0.016450388394449494,0.006508530908247538,0.004272988594579208,3.43
-0.20031983984433877,-0.10087299929369056,9.689252536434218,0.011096936806101708,0.0074621412400714664,-0.003452249860549076,3.44
-0.20050278589271345,-0.08777152569369694,9.764022574986319,-0.002253535796584153,0.009751327017655216,0.011990326217124963,3.45
0.08331364521361113,0.010089365965125247,9.686779137040231,-0.0044322646692326086,0.0040937109033456,0.0044382321685053445,3.46
0.06333157152218748,0.12608625896150802,9.653130296143988,-0.002076376370760913,0.013436717972548688,-0.003682874836421024,3.47
0.05865537547808463,-0.1044569847190205,9.683656298813395,-0.01061238161137595,-0.013256798563706847,0.0011830267619708926,3.48
-0.14707618923357055,-0.14653173053088217,9.998444534779418,0.010790073973895755,-0.015611932126060537,-0.00021510599796089182,3.49
0.12286180640430795,-0.010163190339881988,9.989358888412573,0.003546339665230428,-0.013164244290494405,-0.017716057999030768,3.5
-0.08767525896195391,0.004789526431050528,9.683409856416805,-0.0071507237923089505,-0.012749221183662639,0.02295777439674088,3.5100000000000002
-0.01203692831812493,0.08722188850896732,9.838758460480106,-0.01523651401571966,0.007449284623211638,-0.006945641471058126,3.52
0.08672572538921453,-0.04638141152604599,9.753706590453504,-0.0023087160239526196,-0.0031996448598141255,0.007747697081546961,3.5300000000000002
-0.02658167713224598,0.1528500405574976,9.820002918162182,-0.0005676502989529722,0.009362715811754789,-0.003024621844179584,3.54
-0.024602991781448164,-0.1895772201702503,9.775968877267438,0.0018463351162792139,-0.00477116252536718,-0.02113457666813469,3.5500000000000003
0.08248142020641969,0.040298776624596355,9.844856976311481,0.00134349393252168,-0.0017739562616739145,-0.004424657384078367,3.56
-0.25878146597752105,0.017040546906044455,9.70328153187997,-0.007409444303038205,-0.023629397689732,0.0011923599245509547,3.5700000000000003
0.004557793912351397,0.004974154168989348,9.871268940071017,0.012756164234009772,-0.006317005951202604,0.0026176930902669106,3.58
0.04122020900048186,-0.058463810996530564,9.747401863070461,0.009354182834391269,0.007174643742938054,0.009322192940305203,3.59
-0.09824182067147913,0.10071695769753067,9.727775063608696,-0.021995355259107764,0.0012019468033604452,-0.0048316508545743235,3.6
-0.1754825653255988,0.05819261310546097,9.672552676793067,-0.008622330373106984,0.009365396738995986,0.021869066254058413,3.61
0.04328600978730105,-0.03129142010168132,9.890481824848202,-0.006396079875644489,-0.01806537564715955,0.0052999961141853924,3.62
-0.02821476039633466,0.05821398605715246,9.885429348874535,0.0034758501959418877,-0.010766007522274216,-0.00921793633399962,3.63
0.007572769452393976,0.11596228428302574,9.875857269319205,-0.01484427944323352,-0.0051320993507233915,0.009688787277225906,3.64
0.0979997327410772,-0.04639167496133098,9.778291346954672,0.0033126829195524042,-0.0010648011180556542,0.004116678846006703,3.65
0.00041636544019304356,-0.15186555250042902,9.684511191673955,0.020555606531055474,-0.00430436211873912,-0.0005558890433528283,3.66
-0.05437174420020333,0.11821148970423308,9.800497480987636,-0.0003025674084509671,-0.007519837211185426,0.005421622207453391,3.67
-0.05427835807147396,0.14811002718349228,9.865863502976618,0.007866317019481749,-0.0077325336566269436,0.01078671146718967,3.68
-0.0130227202707262,0.04284875759046458,9.933974487016384,0.0005080204448932777,0.004448753151626771,2.765606829477731e-05,3.69
0.17723149431048424,-0.08206326914132833,9.79100480746906,0.004081101637914373,0.004102811205736291,0.01717387309999464,3.7
-0.06267846067004307,0.29393502726290793,9.923715167512926,0.011131653936135067,0.017287034195653715,0.0018072593633804946,3.71
0.018088848976845154,-0.04489361285473611,9.931929761577763,0.010652015439682774,0.0023965059665137503,-0.0003841745344564226,3.72
0.08229310448667246,-0.029085720557616046,9.867064702942137,0.00029520783670159865,-0.007691639528698586,0.009768711949921583,3.73
0.035739480355934876,-0.04826449295453934,9.892606222182808,0.006660621555223895,-0.007891025482385907,-0.005234459932769924,3.74
-0.018971219636367827,0.08283235145864216,9.809652840843164,0.0018497380335954566,-0.013986813855439949,-0.009542901050569796,3.75
0.07441770031686014,-0.11564150051252645,9.632357376504808,0.01494285623271971,0.0009335575262387057,-0.011201073579886542,3.7600000000000002
-0.10414231113067159,-0.07563650024013524,9.807378261716172,0.014605562161020191,0.0015647024638620229,0.011685757408093052,3.77
0.08310538361994815,-0.007538377480652341,9.694815385027482,-0.011300588787286778,0.0014909925811297804,-0.017945631303068685,3.7800000000000002
-0.01798527529232714,-0.030029522197732063,9.718508942362368,-0.01072643030918552,-0.008840217725561334,-0.010785344918088188,3.79
0.004435250221267794,-0.01869423595493018,9.998182438253645,0.013432625067439122,0.009029802377029912,-0.01345526140277497,3.8000000000000003
0.12560122325564158,0.04605076869646478,9.845030817127558,0.0051315435374193145,-0.0007587825747225101,0.013670205411955546,3.81
0.007926954555503043,-0.04719724537293102,9.669398226501972,0.022427157343009346,0.022418163978018258,0.0037031509902071763,3.8200000000000003
0.03134469146455667,0.17436569378972538,9.733341249391366,-0.003066134690673665,0.007674548909985998,0.011034253161168786,3.83
-0.1437531121016775,0.183779552518045,9.732111983636695,-0.007852108494459978,-0.007727682598913754,-0.0118778885574993,3.84
-0.0024885829269367145,0.011409975610426212,9.851633902673907,-0.009748519077511914,-0.004361637042149997,0.0006045979394698505,3.85
-0.09276808807695734,0.13060058378658704,9.850379106865354,0.011368838130940837,-0.0031297569558067714,-0.005387471879556424,3.86
0.23562111889537768,-0.1537564362563994,9.60668122492704,-0.0053354509784001415,-0.0064017413016431626,-0.0030463686223478233,3.87
-0.12706222971243838,-0.11075382060463175,10.016698700730045,-0.0005285521499191078,0.008942296966326872,-0.009871299805184716,3.88
0.05188807316382078,-0.050365541435474975,9.545333795521719,-0.0040711743068572994,-0.005588760226985875,0.0013389203983211362,3.89
-0.0807181890654847,0.03260328291255843,9.887236646396955,-0.021149721781992342,0.011322860074094552,-0.012954959822146131,3.9
-0.009557931238713558,-0.046757202808209934,9.89407970154261,-0.0053187476281508425,0.014301207203956548,8.651042789276241e-05,3.91
-0.12353927301934264,-0.12464079674210443,9.625300588305118,0.004998518629066626,-0.010235232353395206,-0.004909520376924683,3.92
0.16798951010789426,-0.07472029247841386,9.915322640228776,-0.0004540270471390372,-0.0061043980417499,-0.00948613337807076,3.93
-0.08752542266945168,0.039729491879072126,9.776262669010533,-0.002283994122575647,-0.005069934707399407,0.00033676705027705696,3.94
0.105063441069594,0.05849780657563534,9.664603937656778,0.0008674548653180381,0.004639432680785383,0.004330263548434147,3.95
-0.007834710351608216,-0.053304886928377385,9.624218877691169,0.0034643865812128407,-0.02318899677125037,-0.0008400101852513293,3.96
0.046707063161063996,0.04506459890088316,9.721023749167134,-0.004586837848740934,-0.0022362421095278805,0.006764026480365929,3.97
-0.008069617550376397,-0.039597206852179996,9.71480870826968,-0.004244353226287126,0.02524784021674152,0.002085399500211953,3.98
0.06379051716412308,-0.08581716417811447,9.751644713435118,0.012100635775362432,-0.010997363984062708,0.0014283118815133409,3.99
-0.020223398682049677,0.13181371515151244,9.848385905682676,-0.008571978784825829,-0.02339322077502263,0.009181718378319189,4.0
0.0895165525570706,0.13659641162037744,9.794792571596233,-0.007517433442548688,-0.0020642632085857756,0.0010914624204908182,4.01
-0.11762081050178821,0.05485477250515045,9.824424941549859,0.006597047677420689,0.0028742918894724117,-0.013273503166769047,4.0200000000000005
0.06955133378073468,0.21154824612445933,9.755765756585946,0.01864616557492605,-0.0020363853340341314,0.003410523183640179,4.03
0.012015430943698573,-0.05009997048238546,9.781309258653035,0.002562242266227043,0.0037400239835531286,0.007130577291901605,4.04
0.07205226784966648,-0.11421339985461237,9.712295986910739,-0.01214373851837598,-0.0016769187526954558,0.0037133258738576685,4.05
0.02669624672585498,-0.06395080734300955,9.658084901835817,0.012789594003360414,-0.011181037141484978,-0.008091142430550792,4.0600000000000005
0.1265582540521823,0.043165810183076636,9.954369467184103,-0.014260593736882668,-0.008289277348543808,-0.0019708994570923326,4.07
0.1263336631769998,0.01820038974349262,9.768898867515809,-0.011693153757776603,-0.0004558500486695086,-0.012784561827488883,4.08
0.17649084268496873,-0.015930933721412976,9.656331843805798,-0.012462135402156018,0.005246949183810066,-0.0006383517690804393,4.09
0.09427770641415528,0.208058678723349,9.708551642844133,-0.011439044848447415,0.008255509261122613,0.015365117521289069,4.1
0.04038392507909353,0.14449671859490612,9.794182434403726,0.006505975533116539,-0.003479945617999665,0.0018218224435083722,4.11
0.06879109596281842,-0.07424823734514092,9.773848655489932,0.011274568448103959,0.00958089329018054,-0.0006734750065746101,4.12
0.2094267272926369,-0.085910902357445,9.921843545272827,-0.006073018192594894,0.004293124059181126,0.001667908696553872,4.13
-0.11680940823577964,0.11780533695763298,9.746503987747916,-0.003177737216508278,0.005849758487589955,-0.015572030288378445,4.14
-0.11757585425049195,0.09004608664296246,9.907179403199134,0.0031273424120621023,0.0074262668542007795,0.003710854264964116,4.15
0.09252015779613088,-0.002221025057283268,9.953095586557046,0.007432831292543094,0.00636672758542561,0.0012815954235074615,4.16
-0.11268817044420881,-0.16208660406837544,9.810498586866006,-0.012253250475098003,-0.013588767637305252,-0.0016123999465881237,4.17
0.06974329969131536,-0.18439830922353395,9.770164409068967,-0.015673081756199483,-0.012069847645168226,0.003419026534447386,4.18
-0.09657630420871224,-0.12006113547286384,9.822774748676302,0.021660403974361402,-0.0023992366160418017,0.005262317009919646,4.19
-0.06425036405124872,0.0674984839067122,9.677576793499478,0.007833692103481577,0.003036245476018606,-0.013972456289605488,4.2
-0.07526832228426109,-0.032964481703238825,9.983530423957076,0.015385627658798473,0.00939064579280429,0.000546963114783504,4.21
-0.06351997318431835,-0.07829201510984793,9.825504021514433,0.012098671692943276,-0.010940016741275116,0.009348330135138595,4.22
0.022773202134486525,-0.09798096578367295,9.792542007851308,0.010042999503041716,0.0009650805950687744,-0.01064085699771099,4.23
0.1584518453994516,0.07728730293492386,9.830237539914563,0.0023096585482847596,0.02101655404601133,-0.027705586604745785,4.24
-0.17352107373232395,0.18721492438913226,9.779821270843195,0.007720674240104698,0.004660610457451544,-0.02067210632135262,4.25
0.1251036870642532,0.023107441420920995,9.78613331575282,0.00519324753089448,0.0002655533546421077,0.010167234045096585,4.26
-0.07845910447030499,0.021215406852054475,9.835060828767077,0.035623650400952375,0.010167365873193439,0.004495527563135148,4.2700000000000005
-0.07801838584614401,-0.024208814069446038,9.760208420105812,0.0021126669332798267,0.00884854005339067,-0.010868996459775829,4.28
-0.016589126645117438,0.09431141939677765,9.697951368889242,0.021717012303601,-0.002769098777773943,0.01607944497098,4.29
0.0669260232294793,-0.08614317188945683,10.052681799482398,0.013029896596954285,0.004136686258506687,0.01184939827966379,4.3
0.01230246348961592,0.19363120261632527,9.813352690862246,-0.0005739571326392959,0.008195984302705892,0.0013535423039339775,4.3100000000000005
0.11343146013099455,-0.2056032947478097,9.819793235017226,0.005106216933126699,0.008086013204384826,-0.016285732167981865,4.32
-0.03347743273476372,0.07671031067105431,9.709962263103,0.006913851498719482,-0.020105450490440557,-0.0065312932115980426,4.33
0.025866922962023142,-0.0018866923257669023,9.818904215837998,0.005547773466232845,0.012421296015146011,0.0045592735822645135,4.34
-0.03398035641734922,0.1511830231642215,9.754281114609688,-0.0038496745479947025,0.011729498276804527,-0.013069242202338134,4.3500000000000005
0.11606420257231931,-0.012605254549690113,9.808808969164732,-0.012950661808355014,0.0018219173843185194,-0.0012975454380455907,4.36
-0.0890678828885967,0.0014352893931342881,9.911688702740527,-0.004636686109961457,-0.007764393849647034,0.012788584567443232,4.37
-0.1442877786552073,0.0341881072432592,9.736222622509498,0.0001429071167686745,0.009354329647022368,0.009725318213228796,4.38
-0.10011016736197259,-0.12279385709972734,9.944615436735818,0.001962547897202154,-0.0029097160797470867,-0.0074285485302803345,4.39
0.05320206094693974,0.0953284781458156,9.755401454979609,0.018919731495015992,-0.00869338981734504,-0.004321471511486819,4.4
-0.3121546948612723,-0.0042473973044757475,9.787682880976464,-0.007703096712289468,-0.004158240115138878,0.009002324968739003,4.41
0.05056856294918846,0.0311132253400727,9.75513314643012,0.007198380303974212,-0.004375611006537947,0.007847145953662078,4.42
-0.11677936945159813,0.0761360703608458,9.737064481430178,-0.012569203149700938,0.013371773226527762,-0.0020627206240557585,4.43
-0.06877305005449856,0.12500989178404773,9.897668591234977,0.012707366328321182,0.007380309206898189,0.01907503755699871,4.44
0.10365058032192934,0.0076136782967791295,9.465625392407812,-0.004291286650342669,0.018981215647455363,-0.0020225187221605263,4.45
-0.02690599344135989,0.1183161731591417,9.7941729110128,-0.010862859034188528,0.005382455745085707,0.014847415955598083,4.46
0.0013440578417587953,-0.022434989650235628,9.906909725902867,-0.004011452905620883,0.005503659101464144,-0.0036259958214263466,4.47
-0.028957200567230043,-0.09504536874060904,9.698585945439524,0.0011586669323489108,0.011968124231648255,0.006128079689066888,4.48
-0.08258488879774897,0.08258766178320809,9.676008295027684,-0.015469350355438567,-0.006309691612991218,-0.0027549113144905396,4.49
-0.0856620553222601,0.06032637343508234,9.847176233710412,-0.016623140840332774,0.008042676476092062,-0.026129096139397255,4.5
0.08301231707080886,0.13550476776453016,9.80494414802052,-3.526840414174726e-05,0.0034269403781837862,0.008939519949339893,4.51
-0.13303208713632184,-0.07631697265139412,9.850509979391074,-0.0016796487759914971,0.004105438767202372,0.009257082898648208,4.5200000000000005
-0.01007015756578828,-0.174481529600182,9.772953790822756,0.01284505657425574,-0.00745532239736649,0.0044493656751641445,4.53
-0.006843830291918918,0.028073159051013048,9.741607789046292,0.011407707586131528,0.021083154214733807,0.007868911022233385,4.54
0.07412185913458223,-0.07409469818525619,9.724242445670681,0.001306200136669316,-0.0055128956852672165,0.0031327928811024147,4.55
-0.006273306543153362,0.13163496709872954,9.747493962851365,-8.628294810000695e-05,0.0077800004600573815,-0.003984100711341092,4.5600000000000005
0.22709210092064122,0.18114617095637825,9.83967962709573,0.004071350761520797,-0.008730769475237606,0.0068386086958414985,4.57
-0.1360217727827191,0.13898573771853293,9.885692014848578,-0.00027594341735338374,-0.003212868812498162,0.0002588309958074182,4.58
-0.1083712273525007,-0.12238474970817446,9.661610591801328,0.006178853540211752,0.00046990545136310256,-0.0020940502430315225,4.59
-0.2600620815830537,0.19314987670539752,9.769317820955985,0.010668651137046754,0.006845433724273184,-0.0009199028180982804,4.6000000000000005
0.09895837292151513,-0.037305668809290364,9.770089241550398,-0.0034717978893597156,0.012787728860965695,-0.009878754389138465,4.61
-0.2439032147745504,0.012607356766503581,9.83611359529637,0.023450648403040397,0.015668869922629648,0.003551234536630043,4.62
-0.04243678239442951,-0.023654207013202214,9.840787195600212,0.015168720012863743,-0.007535047694264642,0.02427539858142849,4.63
0.2020816966949429,-0.10082984650921734,9.917598517079684,0.005559929171351728,-0.00010972647315445756,0.0015264240753026976,4.64
-0.124571844795735,0.08617782469873289,9.956623439649047,-0.02184583539470804,-0.012247906650212904,-0.01280287554135151,4.65
-0.1161696670345047,0.22482060779848095,9.724644787054183,0.008650108855638241,-0.00030552177851577616,0.0008685838336917364,4.66
0.0783493978056662,0.09101937036467089,9.912722407879697,-0.004547887129917714,-0.0007773433424593783,0.008068258094983795,4.67
-0.1424863898345536,0.0716103531308154,9.949404534808561,0.015608433720579054,0.006981340835537107,0.00020984220050580314,4.68
-0.01800227766926116,-0.08039825290094396,9.721317495534137,-0.01981755790111131,-0.0010162352623513478,-0.0003205229854072612,4.69
-0.11572605737419264,0.2008929005250699,9.849609633572209,0.005208595131868575,0.006912339850583633,0.010528860259137369,4.7
0.007756371700191677,-0.03175153567639764,9.85609143517372,0.005353123122338649,-0.003311059964882916,0.012866721662000898,4.71
-0.09927462522440866,-0.17693118743110833,9.78982101325165,0.00687738898717923,-0.023618973903013735,0.015572279665528146,4.72
-0.027961349399798514,-0.13978448636521687,9.94713740908017,-0.006745465826312449,-0.00572180725776451,0.002417829900067097,4.73
0.12688934269191177,0.033718837115639215,9.73077666522205,-0.005649073070405704,0.0034039169724491463,-0.0017182852862364568,4.74
-0.07768600098764597,0.06386742962689977,9.798338681666175,0.004207174041599373,-0.014421338331293526,0.00926437002887654,4.75
0.03305624284080746,0.16599909042840966,9.722789034142485,-0.0032929142356090597,-0.003820968088718477,0.003372333929731053,4.76
0.12365417519638203,0.053582826742994485,9.833321317761095,0.004243975356167115,-0.003111179071123523,0.00012805244266056532,4.7700000000000005
0.05856112186003001,0.21229131228857034,9.668167997764229,0.011607831606317039,-0.016053150467813356,0.0026007242831518128,4.78
-0.12663966192624204,0.15896013688275532,9.6701749587139,0.0047726383900619515,0.013176374497437623,0.009559049102417803,4.79
-0.0725315497816676,-0.05072910785934594,9.84901437877986,-0.006936757716606337,0.015786721301528847,0.0073314118401315445,4.8
-0.03984659561961889,-0.04895859399617523,9.619705447594828,-0.0032757886342941024,-0.019499217694920558,0.00136455724399459,4.8100000000000005
-0.16339783371486738,-0.14069442635848975,9.87510253337533,-0.003557716585152028,-0.01374496713045349,1.715149383023918e-05,4.82
0.1370933681513871,0.006691295477829639,9.834208021253277,0.017773293577116708,-0.0018110654657157662,0.013067781141269663,4.83
-0.10324680186867215,-0.05564936391819944,9.707691145157805,0.0038659709695672557,-0.006856497906704243,0.016310429944875887,4.84
0.1664777984497262,-0.10281762069341914,9.870394841842133,-0.004950315783084165,0.01587392338925305,0.009634898337574856,4.8500000000000005
-0.03268223554296864,0.15851422962804315,9.822133026701309,0.005678461890395793,0.010844242102772291,-0.005776378957025272,4.86
-0.10098902634276473,-0.005352374180445266,9.968467305453537,0.007400659833172539,-0.0037078963430007194,0.009900803860179967,4.87
-0.04756519440734275,-0.17988231763481086,9.969219578071048,0.009459193523535142,-0.005446074268574728,-0.000829822550256612,4.88
0.042482850394120725,0.06376193522404731,9.822803107509113,0.003864158688028506,-0.002024296204033269,-0.0007180892616358737,4.89
-0.10797638429711685,-0.015176524937924655,9.704198641953342,-0.010923980107567368,0.022099354473951113,0.004228826777152293,4.9
0.047372292814718366,0.0393750581897206,9.913824061721842,-0.003771008541688012,0.008698877183019585,-0.007148075486403469,4.91
-0.01536355742591627,0.022924035994197123,9.727934189629389,-0.00032044165586490967,-0.027779748368334717,0.0035371583304614897,4.92
-0.21565135919194947,-0.015283795466969414,9.812469380921574,0.006633183983156718,0.002134402773531023,-0.012795798775829812,4.93
0.0860221711136521,-0.029522150404506144,9.901836664165401,0.0039031629808518853,-0.000924722462504002,0.0025617404703909604,4.94
-0.010335531103885506,0.03224367512826182,9.840800263379569,-0.015986358944781474,0.006645028114950185,-0.001722101644307228,4.95
0.09876622526103301,-0.13836507834551126,9.786514630394256,0.003508276969649914,0.005934340276693579,-0.008416220118712897,4.96
-0.05392011511233458,-0.04335660081998343,9.673287902944393,0.0018844905350490038,0.019314819193630105,0.005338876268792623,4.97
-0.04157759019677681,0.08566633165411099,9.81103440660703,-0.011700294236499884,-0.0021779303876128873,0.012942502941965367,4.98
-0.08162619090722067,-0.05577080063356763,9.726653258446275,0.0039688147395695785,0.004804519016442871,-0.009795273710250027,4.99
0.17444891960679826,-0.08237492498572334,9.606409522486523,-0.007139146260003326,-0.0066726684242939495,0.005772014946456527,5.0
-0.06864211159687547,0.05469014549987318,9.925249997332099,-0.006620044124985105,-0.01278368644989794,0.024553084832011303,5.01
-0.03511500310653851,0.07182047988728767,9.911366491313457,0.006535193869626011,-0.011695661906588673,0.00208454640440726,5.0200000000000005
0.059800464436798685,0.06415984423153286,9.693951605733787,0.008883658872841208,-0.004327148529360833,0.0027535572658997347,5.03
0.1770709134044385,-0.22156688232863977,9.732938563788613,-0.006725349400568891,0.003620451446082976,0.0017685902680598753,5.04
0.03391226602106224,-0.017619713427265097,9.771838336400439,0.02055802718877317,0.01203277996141,-0.02153355284826208,5.05
-0.054332189388197144,0.06929031249896538,9.746610823204419,-0.013798027984466386,0.009318831054993834,-0.005217446120447691,5.0600000000000005
0.1712712229349786,0.0736029811358006,9.657989684780928,-0.0025771163586237843,-0.00272619605854859,-0.002965131054826528,5.07
-0.005287509754412854,-0.16650246760488624,9.932605951707925,-0.006969727587579722,-0.013238610343741835,-0.025368135334215888,5.08
-0.10100634477851467,0.05289021986778222,9.856671850978111,-0.004022363524607379,-0.0007612189765915914,-0.009722099822063526,5.09
-0.0024117655758623575,0.024712314032030797,9.96115366851232,-0.021542424032737425,0.006840012983679723,0.003527416344764403,5.1000000000000005
0.11858893053982454,-0.07332150668611669,9.760733235174433,0.007455425045305343,0.008504197163306049,0.010019527981831563,5.11
0.017053214408166366,0.17215229566582976,9.704684907323458,0.009934630895232196,0.0074523689918873,0.009307430615427754,5.12
0.0932499784078963,-0.007022390773008797,9.85092998000544,-0.00310652599232007,0.0043127646772931055,-0.00012302613300619003,5.13
-0.07547871742230168,0.05432036068616465,9.611542369549086,0.003775043052851819,0.016107689257211958,-0.015454410628606174,5.14
0.03225307534243096,-0.13424062536742484,9.728825692032359,0.014763666199288901,-0.009539516819772368,-0.001991936927032672,5.15
0.003632058450704738,-0.03126481582946732,9.877184605403068,-0.020301110791922792,-0.01195910142788588,0.0011096569375578242,5.16
0.0874072452337163,-0.017843693887485162,9.899993950595947,0.007896930808223708,0.005302724851288947,-0.004091590946747477,5.17
-0.060746731506193974,-0.11639529128482749,9.798413165761824,0.006033557722509055,-0.003927741211366247,-0.0008800791229015683,5.18
-0.12051828736750499,0.06455429196837652,9.737026114519733,0.0037923166797208673,-0.021311413927620083,-0.0058457131014814446,5.19
0.24269451866385952,-0.04299750216732695,10.001863878707644,-0.006379518650063797,0.01173942121508181,-0.0052238922634202135,5.2
-0.09689640135507437,0.07436608328486437,9.859635264586812,0.021078338724022774,0.008457294778887436,0.013461653306737095,5.21
-0.016353961223897307,-0.058847517286972,9.70955838163565,-0.011995927162291498,-0.021192625834224182,0.0065206616132331375,5.22
-0.23904546032029242,-0.07077059234232246,9.938590421928671,-0.004370218245092212,-0.008160961216077088,-0.004276860696347692,5.23
-0.024684564620137874,-0.06854864267985437,9.804029991124693,0.0029689860945462903,0.012026747157062923,-0.020553672875234828,5.24
0.12250183392350976,-0.007388739113770092,9.748712094095579,-0.005794589737161732,0.006074674554986722,0.004955092262156734,5.25
0.00999930003695243,0.2065189128964532,9.76462699547942,-0.00745171963934403,0.0021411929380060024,-0.0037285937390625994,5.26
-0.07164213361362295,-0.15755748738431874,9.765236414711325,-0.007959862578747857,0.02444807872503621,0.01583077969164081,5.2700000000000005
0.06230000952252929,0.02767466999894058,9.802542598752051,-0.004584883100525275,0.01631736225599472,-0.01237501889793466,5.28
-0.051411275984420524,-0.16165797579099817,9.782537867171769,0.018678655297886017,-0.004869453740718017,-0.0012709197450079626,5.29
0.061203473461723515,-0.020874831460163598,9.928722604305237,-0.01993664098820441,-0.006809338382112066,-0.012721751819777551,5.3
0.028562947387483745,0.08173375137107831,9.776942962870653,-0.00686307805468012,-0.013629587202659972,-0.015467786141981823,5.3100000000000005
0.10585010866132268,0.008541777250055681,9.816424617360893,-0.02026858836558552,-0.006515131003198838,0.0007985710861167608,5.32
0.03502618853843738,-0.10274811296710779,9.745385898260125,0.008656501266778218,0.003183180634375119,0.004266285458899217,5.33
-0.0009574125284219585,-0.010386299757004206,9.791214774360002,0.0023603009814978913,0.0068044969833780024,0.0022262463436345833,5.34
0.02788071074537364,-0.038764517474381754,9.737494477702919,-0.001107369487150978,0.01376239277480706,0.005001130661310714,5.3500000000000005
0.08691203958326041,-0.301929353056703,9.692276129377161,0.00922832285229068,0.009263505319982634,0.0013177648276327403,5.36
0.12530845258223589,-0.08929444654357242,9.881855480125205,-0.0031940422779512564,0.001627018579692718,-0.008747549216846975,5.37
-0.00011959534037998469,-0.010362509103215876,9.934692777684788,-0.014980772626710997,-0.0034689928275421205,0.015049910372321257,5.38
-0.04930053736415838,0.0846754744035755,9.699297583861394,-0.01376203255535218,-0.00982455009797051,0.008249449689198067,5.39
0.018369648662449736,0.06322327549292603,9.771859148268181,-0.0013826810869788926,-0.001128264076541245,0.0029005019298284653,5.4
0.09331942777365376,-0.04535100849259756,9.78002768626038,-0.005540982709445084,0.006421255794628579,0.0063230914937135885,5.41
-0.0998395525624749,0.11546796615939635,9.862855968426889,-0.014169415509088913,-0.009479679002404857,0.003941874370157292,5.42
-0.0297974206066663,0.02285878405785742,9.858183135802484,-0.004716439459207035,-0.0076916473161653875,0.005501340838226327,5.43
-0.045086671007742794,-0.018791014453381247,9.96425901677242,0.001902706964060344,-0.010422425930938804,0.0005356313932377436,5.44
-0.14665245726924767,0.0955039645179584,9.786840309083809,0.01692673612988838,0.006078983099970225,0.006495562708712519,5.45
-0.2223740563605369,-0.06275405208830637,9.796462278375712,0.0138101144334758,-0.003989371306460944,0.0027771604644819888,5.46
-0.12421637460423524,0.003199790397975684,9.792978545572458,-0.005809393712442879,0.0005091871889411877,-0.007683966052494464,5.47
-0.057318997551907516,-0.03738078803956355,9.599018635137739,0.011315777656227778,0.0012461677827758648,0.01240232362872643,5.48
0.04087202134661139,-0.09559725040369138,9.851852874880278,0.008490557649452243,-0.0036123506774987514,0.013547842902728702,5.49
-0.04091355164468464,-0.018827033993594866,9.798394437701504,0.008918799735061987,-0.012211216064179112,0.00908020666454087,5.5
0.1483736661216086,-0.0730758061040428,9.772026839758219,0.022557584061763013,-4.6864577407446106e-05,0.00924747917282851,5.51
0.12321897622708139,0.0035115229807768955,9.86328673490376,-0.011108950254838275,0.002353630068308005,-0.012510467478355236,5.5200000000000005
-0.003155825933922528,0.05435889723286287,9.797054827276268,-0.004301877256567607,-0.0036260068327508737,0.016577025316515944,5.53
-0.08408847002325637,0.002960097401328429,9.857725132541965,0.014361395950594866,-0.013028864076864351,-0.0018195163774297504,5.54
-0.09523771454921803,-0.10299861544187448,9.94352634224139,0.004781210366547303,-0.01791229057443258,0.004447187831199319,5.55
0.08143611164179135,0.01968718760463459,9.815892205229021,0.0046840885063653475,0.005267096949024075,0.01200807497329049,5.5600000000000005
0.032611790120817837,-0.09684437605725099,9.727451229435447,-0.0016901179015046412,-0.014885652103990833,-0.011112105683408481,5.57
-0.02946385550466429,0.24430541471624545,9.806788541017262,-0.01283724045582524,0.012783616903240945,-0.0014311109903517077,5.58
-0.1092635969113523,0.01591351738639869,9.59814823594288,0.0006196244716744491,-0.004598675364937488,-0.0110459437291584,5.59
0.17156793780125273,0.10147629684866499,9.815803699573538,-0.002400362954485411,0.0020159719235352163,0.001091574781852024,5.6000000000000005
-0.11789930858343789,-0.05165419434031017,9.89587176363821,0.015453600875337831,0.0007771084593451499,0.0007715766745026943,5.61
0.09958387440007394,0.10410093490040384,9.816808304707715,-0.006431614995339336,-0.0009932411339552715,0.0004318685959919977,5.62
-0.03815663919837871,-0.24343001997154903,9.863346348692417,0.0006182928683757505,0.003261240934746029,-0.004748406259843642,5.63
-0.09514887728262389,0.107233681537596,9.932899555482058,0.001245892744248501,-0.0006928720843657081,-0.0004634149834132062,5.64
0.1366578596913024,-0.12438611677153022,9.748883846936216,-0.017054272497630318,0.009807722641860804,-0.0038775757902743376,5.65
-0.025345936142468217,0.009978415558755768,9.892008657047514,0.0027130931679984335,-0.004228844914181966,0.0016193391143851483,5.66
-0.0052797875824757805,0.21790587552293098,9.756364173022417,-0.0035493334850466413,0.018977264317966175,0.00956002467299306,5.67
0.06547107915244565,0.06031206588701321,9.804966468572385,0.0026251202129431734,0.003971907876082974,-0.006208666513497586,5.68
0.023651222897867145,0.058512753889257724,9.693851475215816,-0.016740114422663092,-0.0011960955472851145,-0.010088961405221157,5.69
-0.06861761913433442,-0.0023700368824503995,9.749104154108917,0.005080528781961322,-0.013246847698569665,0.0033970489401757187,5.7
0.07081372522437392,-0.026933252833722495,9.946341795985834,0.01293561064108322,0.008895306093838486,0.006889847701291086,5.71
0.19587317069513419,-0.12665643297849077,9.931943839807868,-0.008741521126784921,-0.011864038179837118,0.011283821858559076,5.72
0.05043292764145765,-0.1249806414256574,9.819666721977162,-0.010658952318008038,0.01499340200266805,-0.00013426457513191747,5.73
0.025705338132746853,-0.0511222706970952,9.819957510814556,-0.03637969439426015,-0.0074946524539073805,0.0014457376771121622,5.74
-0.03768842061541255,0.08042136644192319,9.723388463405318,-0.000629267992812785,0.007458557210690464,0.014237431593764078,5.75
0.206136398726296,-0.09098317377882778,9.826552111855625,0.0033199068750812146,0.002606557530330795,0.012108521977203688,5.76
-0.05548561553233762,-0.081301647580292,9.868126138437182,-0.010544973627081762,0.010439128317724294,0.0029004793852424,5.7700000000000005
0.024846394137603364,0.023172005812069678,9.842770956501257,-0.0008174482508870688,-0.011712733435331663,-0.00648366377013408,5.78
-0.05257927576533718,0.1427297514428357,9.736974760457212,-0.0019411843067686156,-0.0008944598424678015,-0.010593844674018341,5.79
-0.08617480446791866,0.2154069487227818,10.05415012447369,-0.010660548351637393,-0.008879854714382988,0.01341480713437247,5.8
0.05586522007855508,-0.08056163282397415,9.744881620257038,-0.0037437146329544068,0.012999624266488883,0.0004961697766239619,5.8100000000000005
-0.03502716617048094,-0.013033209111035905,9.883234527544566,0.0013374200549013929,-0.0033132284761087055,-0.0008381484012042531,5.82
-0.09592999420385899,0.009856202370652909,9.768742572780887,0.016913292237828687,-0.006040654334783444,-0.013086617395029167,5.83
0.046501598197684985,-0.028414112656453834,9.796306760012584,-0.014476506320627887,-0.01611757810188397,0.006784688757583376,5.84
-0.10990904448399007,0.03296600665265166,9.659867751566479,0.009679456397502895,0.0003936723305378067,-0.013551890714549772,5.8500000000000005
0.02303609065620171,-0.0896937808652005,9.791952308544564,0.0016788405698408243,-0.0007505854898765157,0.01485786341330819,5.86
-0.009794276746624489,-0.1542011062921023,9.95981517870524,-0.007038909953881158,-0.01481636400113671,-0.011949448518164874,5.87
-0.11518945271885386,0.02135916836681079,9.772030009832324,-0.0023316556713382916,-0.004634388768605796,0.0026888283313258603,5.88
-0.16565133934529047,0.015798079141960873,9.810546429767426,-0.0029362009106192943,-0.002477272816085805,0.009380021939815306,5.89
-0.06052653523452546,0.0999619730068853,9.829278302312927,0.006380226819536979,-0.009103894154210809,0.0018841491558812885,5.9
-0.05524374494296655,0.017168665234182007,9.705183616018216,0.009178371557786048,0.0017760693198928248,0.006627383131262794,5.91
-0.08712952316513028,-0.002677600468011973,9.821801650764645,0.017888854757729826,0.003756357352508114,0.003417865425791386,5.92
0.1543025299045752,-0.07819108293395723,9.800149031985034,0.005296774201361014,-0.007836931464961708,-0.019141164391137572,5.93
-0.02851908521978266,0.11954382120638629,9.776768320442468,-0.011297396161662481,-0.006089270437299513,0.012125156914294286,5.94
-0.019541439086705532,0.0229070034687477,9.886241837960176,0.0031341609852785337,-0.006131768899783452,0.000527913020802333,5.95
-0.13867812149073863,0.07249693683913054,9.829149406671362,-0.008849114980885666,-0.01107756295222961,-0.005078854578149461,5.96
-0.13479534853571223,-0.20535843899091566,9.79908233168909,0.010537765803255496,-0.0004782864013993735,0.004120314935652457,5.97
-0.04275109024521992,-0.018691422468182207,9.682261229931974,-0.009072455181066143,0.010783627006961914,0.016352151503110764,5.98
-0.05999262119638652,0.14309677265079745,9.893129523281564,-0.002724174437133302,-0.006833892040506848,-0.011959862034747578,5.99
0.07039380758065301,-0.024096770027111348,9.720172240270049,0.024051079247932303,0.012287628448842654,0.00334395051679639,6.0
0.06259961462317962,-0.10840549108156544,9.82041934873591,0.0017312857167081056,-0.015794025991485813,0.0022081853393959524,6.01
-0.1612619577349858,-0.01580793408801264,9.768881859490833,-0.010077757434602317,0.009925174889681834,-0.0016018549082271714,6.0200000000000005
0.07631352420745974,0.03302143634076169,9.883320828708513,0.00562894030440782,-0.012377122315564586,0.00789995722412309,6.03
0.14462668439690834,0.1391460286596786,9.742512498086475,0.007881806680229201,0.002530274416815177,-0.022899991152989792,6.04
-0.10358971998523472,-0.007241365029379424,9.687416438275497,0.0007111725428376742,-0.007798009572362604,-0.004966412662688386,6.05
0.0043328221728972825,-0.14167778120695057,9.866559701922679,0.004149754481345626,0.0077024475096879475,0.013277749474601298,6.0600000000000005
0.01945077570237626,-0.023799744600284462,9.711646219056474,0.007374537529226352,-0.02159817780012888,-0.00012612858896203993,6.07
-0.036374788562876396,0.13120062945548674,9.855011724266184,0.005834930073004436,0.022130994792920054,0.00268546605480257,6.08
0.11665298618420238,0.143972768502286,9.7632378640378,-0.006715656512458062,0.006862233364898704,-0.002042782280902995,6.09
0.09380752372398092,0.014478245940931582,9.776892250424083,-0.013875422541583509,0.006295649887618613,-0.010730918946541266,6.1000000000000005
0.052721321726349225,-0.029321696562026062,9.691362301983084,-0.01312976722953818,-0.014831173487565647,0.005440207113275085,6.11
0.026234671155880237,-0.03529269199618886,9.844646102199794,0.00762592789985914,0.009411981810580531,0.011249690366627733,6.12
-0.029779514167359022,0.1713365282694925,9.832470952811585,-0.013205131965929338,-0.009403392449196371,0.01983320890146094,6.13
-0.12977316590871954,0.0024853708886672875,9.862267618109911,0.004335320287866662,0.012573197847379371,0.012027829344427976,6.140000000000001
-0.14837304098315407,-0.04538573087614103,9.739753077296742,0.004149638393469631,0.0021672759834202677,-0.009046805290666269,6.15
-0.048344834321751906,-0.19096068579097245,9.786629171745618,0.004835163530704838,-0.023791046593764704,0.007881510273928603,6.16
-0.0673912605398339,-0.09378213478959928,9.858294235217338,-0.010663607154082067,0.00721984924312214,-0.006973271068343434,6.17
0.2062157951388823,0.013678819670860633,9.83969497864144,-0.008208453552497271,0.014062520847798224,0.002717929253614208,6.18
0.07373795511108676,0.025355837475906823,9.798564470910442,0.004416638569593955,0.0012178099171999805,-0.0029524158178819166,6.19
-0.0791102965826508,-0.08777383734191134,9.76246670012558,-0.00037611262118403006,-0.007246306864386147,0.0057518743669119025,6.2
-0.12123697239881392,-0.016282351100248223,9.885340499247631,0.001224089766642239,-0.009247486201649042,-0.008648859080687075,6.21
-0.03539790408234461,0.07559800485993395,9.868825776710136,0.010517024713087127,0.012092018461444472,-0.0023349106275233266,6.22
0.05829774339540537,0.10315289891631163,9.830288615935245,0.020948085704011618,0.003259875968209197,0.0009368880436147932,6.23
-0.024830954548905257,0.030128927247614665,9.843794206550866,0.00802203238128903,0.004218669676243346,0.008857664946892784,6.24
-0.041651489594594526,-0.060065622813235214,10.031985741303934,-0.006248034586324529,0.008818414525262197,-0.0030458204213002094,6.25
0.10385788705381634,0.07121893004914398,9.709416224262807,-0.006338421258674518,0.005093201455086447,-0.006391854006296779,6.26
0.032311833173661125,-0.16474656376553726,9.814055938303243,0.007080422699167919,0.008249079001280227,0.005825869094577793,6.2700000000000005
-0.14677519196748234,0.08077656982178132,9.952543290648238,0.004354814061554403,0.007554265025499629,-0.012102787600528889,6.28
-0.11098167569652231,0.03134901502618672,9.812774639797174,-0.005126401725378795,-0.003556651197603336,0.004456208032104923,6.29
0.004444451444248148,0.04697204705586076,9.658336760045168,-0.012004778073658923,-0.014249614390235553,-0.009770637166641807,6.3
0.0010674195774247363,-0.030891861881839157,9.593288198103883,-0.011255603954550622,-0.012385391886930108,-0.00886941688095459,6.3100000000000005
0.05542335432959514,-0.05775082899501449,9.875719794807244,0.0039839426486070265,0.003154490195440632,0.016690975128710532,6.32
0.1384250984084999,0.061879528779364305,9.932152006331394,0.007990475984732556,0.021089672901217726,-0.007336326810972412,6.33
-0.0345157375622338,0.07064781219968437,9.839681098935456,-0.010537639023284731,0.00992453087407025,0.01071309533686707,6.34
-0.10636246868570286,-0.13089122637815861,9.7896756679068,-0.004224307564404988,0.007599941053812127,0.007841119319933833,6.3500000000000005
0.057845173773283826,0.019271819417815587,9.685923190238947,0.0009316777668995947,-0.010137707191954691,-0.02143001403197602,6.36
-0.026235840701815973,-0.10120695521581154,9.768847166176473,0.008657137674909514,0.005365271355918023,0.014749613213365686,6.37
0.09365491763180732,0.09747406197800051,9.852875285874633,-0.008594634806212278,-0.007618213142559302,0.009006528165609115,6.38
-0.021149668226052944,-0.024198415594894638,9.977510843567526,0.01136881295132727,0.011954963273299543,0.012333147016789075,6.390000000000001
0.002971411030120782,0.006618858911087136,9.849914737610845,-0.0032642200776137236,-0.004211239557763242,-0.020589547546787206,6.4
0.19083590686362717,-0.10648745273220686,9.81989097829921,0.0002309037894710845,-0.004077966371798475,0.011680207172456918,6.41
-0.028261515231388742,0.04520286376830765,9.897194599016533,-0.004189087560346015,0.007200345243444562,0.0033745017298292524,6.42
-0.03921298368057679,0.17787047228885877,9.752504652480749,-0.0046333896142584305,-0.0026649411461328277,0.004542403261539212,6.43
-0.22493191764925302,0.04403615325649316,9.729744154208708,0.0029269943641304997,-0.01147670994716854,-0.020419225063934576,6.44
0.19408155071391067,0.02818399981698691,9.861640204186209,-0.002529722097983213,-0.0024400456932946292,0.010982820687225529,6.45
0.07446194184378661,0.11220341584492358,10.028437137660307,0.009930169801104704,0.004170039498544895,0.001819856312528503,6.46
0.10027538365426898,0.07902327065927449,9.840725211851876,-0.009492513238448798,0.0174774375147577,-0.009769753915937271,6.47
0.11136396507147879,0.06652792546279454,9.663077509782024,0.010024421628930056,-0.005961339869131581,-0.005796354079448019,6.48
0.08703331062054956,-0.04700537864085726,9.63709551425454,0.005165000591103553,0.00023127196660509606,-0.0004936451023313217,6.49
-0.14571004114890568,0.06950851044793864,9.771421267822307,-9.62936849400461e-05,0.00453949023336765,0.006404379325286268,6.5
-0.06994787170870162,-0.04468829674490496,9.896610385718837,0.005834926919142979,-0.005769937176152132,0.0047553427303219245,6.51
-0.16777779031393283,-0.1497701445660312,9.752293473799847,0.007174723825288166,-0.0013910947015810915,-0.01585991344466111,6.5200000000000005
-0.1338069781597667,-0.19405075782248193,9.528757642417652,0.00037989592208315077,8.712554072104446e-06,0.003815456373088476,6.53
-0.046704976963371045,0.04015257349355515,9.822819426201713,-0.011424982378568236,0.007667308996375815,0.01736504394030924,6.54
-0.1764651520212863,-0.04924490146524991,9.820092117652761,-0.005160402705131295,0.018131040160568254,-0.02151753898276097,6.55
0.20805574806312765,-0.08061934945208357,9.938005221222646,0.007485992942691763,-0.005802067933857362,0.013727993946912613,6.5600000000000005
-0.12362772609914699,0.10606432663423729,9.725348281698569,-0.007966522851976156,0.004933194316691475,0.0032415411242293335,6.57
0.12009070055135901,-0.02949871739592438,9.673065307421325,-0.0023204135190818295,-0.0029575031252030252,-0.008638575494545272,6.58
0.08523385067613756,0.09857733101809603,9.78689084402095,0.003717300648914421,0.012262685608324601,0.01453100709925226,6.59
-0.04019156891006682,-0.046115922997435006,9.935560118306638,-0.002667040191787467,-0.0027165538875400345,0.006652169238646801,6.6000000000000005
0.06076202231238514,-0.07647482625961333,9.534126484563918,-0.004677566533480517,-0.015783955170716787,0.01195724100425502,6.61
0.273301384157814,0.05885477429246452,10.057529583811988,0.0007347316932420218,0.010026997866667362,0.01650579038677561,6.62
0.012063004412205923,-0.06511717056133819,9.778255175673598,-0.004790843627962143,-0.007007136536078559,0.00359027521497652,6.63
0.11453412070489893,0.14073866520936149,9.79367720606985,-0.012645458274114238,0.01781588751900976,0.009308050610166234,6.640000000000001
-0.04201278387288263,-0.08652890486297074,9.721879709683002,-0.001314119661735664,-0.0053534196745689214,-0.0026523047565178708,6.65
-0.15180742207336365,-0.16668038059468948,9.75935374903546,-0.0046723007997205145,-0.013642102646462104,-0.006804089260669745,6.66
0.020339695757329104,-0.005803783051597075,9.814303681621505,-0.0005904233191152134,0.003863363274701447,-0.0064762535937826675,6.67
0.06377807512614296,-0.09342138315466272,9.847917633437106,-0.005014236213496801,-0.009148968224728198,-0.0040721834349371116,6.68
-0.053262057651328465,-0.01878630206341418,9.741447325849089,-0.0023633313607739565,-0.009745325492987738,0.016146168698424158,6.69
0.07441549698150011,-0.040991067543876186,9.895343329650736,-0.00851025693561209,-0.015271652226108875,0.0039997497622769225,6.7
-0.15634524198689248,-0.007663529252251846,9.912918126587691,0.01739483279023281,-0.009761238570753134,-0.007608218759893619,6.71
0.16207738329583218,0.030305601737373407,9.870589722887335,0.012269349428725604,0.0034134359656233537,-0.01302839918701065,6.72
0.01857329797013993,-0.048076025440685385,9.635409601373825,0.008215374927018494,0.0013987156559553998,-0.005762797723571909,6.73
-0.026739285294737077,0.061873193660239,9.883975745823502,0.00034773305716886987,0.0053285580019951755,-0.009183721723679572,6.74
-0.04136923122234762,-0.030735918932071993,9.919240294939309,0.011553744653084794,-0.017553706076540446,0.0015912413478318312,6.75
0.02012497180855559,0.05409939917183551,9.957092992178476,0.0032584722814861795,0.010154919857572099,0.005664288675845713,6.76
0.09323016946015529,-0.23049831094921186,9.995034892494287,-0.004824220915415802,-0.009761972475500156,-0.007482178118507713,6.7700000000000005
-0.08838323376578144,0.10752039296640135,9.7601754063906,-0.0021337349678453173,0.006903039768270915,0.0015944581153209232,6.78
0.03830498625820325,0.06052325034609286,9.88302483823057,0.019574035858249416,-0.007830370211245719,-0.010623616919918146,6.79
0.22497941532009522,0.01751605662152125,10.135003380232577,0.015545692806075335,0.00023166308950120715,-0.012232697438194407,6.8
0.10496150798341175,0.15095319148174985,9.784323485646237,-0.01728314512174492,0.009595982540811067,-0.0018640831043319817,6.8100000000000005
-0.09338930612890461,-0.15566766407407903,9.940970156200459,0.017705461566317124,-0.0021983493541436984,0.003701354327331618,6.82
-0.021697941838069893,-0.09627634278521391,9.626109049800894,0.0006846808251685546,-0.002432270834733291,-0.016228378221423586,6.83
0.20577792947658555,-0.11069664248046365,9.94639277500105,-0.005709505575207075,-0.011101753068775555,-0.008245584124206845,6.84
0.022734313667969398,-0.10262022642970783,9.888298484190804,-0.017816914252628067,-0.000332987216014272,-0.0010574347673820155,6.8500000000000005
0.0930853445139178,-0.01962158150532017,9.895700510128291,-0.004751607568144243,-0.012688542265763483,-0.015008895242518363,6.86
0.04516140210515908,0.08090122291854161,9.79777293626078,-0.023888638841492435,0.019529749033645107,0.00920687438574317,6.87
-0.05478766063725811,-0.06205068455866308,9.69730053052766,-0.0058951067795345495,0.005686601315988975,-0.0003675746480038345,6.88
-0.021042716786393457,-0.06523683768834837,9.706921608711644,0.002819417331635572,-0.02548033513578019,-0.010238471904266478,6.890000000000001
0.12367856140248784,0.013897502910326227,9.846141087500916,-0.018769176394258926,-0.0015950914017376784,0.01816797224191993,6.9
-0.015917558714400787,-0.30997369221337295,9.653581899276936,0.00024764182878260775,0.002339226528170071,0.016975800281048233,6.91
0.021953583447670205,0.07747575418945263,9.816381734222741,0.0006177940080833416,0.013686039165022496,0.004979482105505477,6.92
-0.011444935266921433,-0.042510194147073216,9.902969706431055,-0.0018604032114355453,-0.004833900869523817,-0.005956236838901042,6.93
-0.08042960855080071,-0.0564481750887762,9.848614357750932,-0.00321671091357578,0.015311749847858271,-0.0009037822605943831,6.94
0.0748482431641504,0.002679752629196827,9.786650781484274,-0.018058717575515224,-0.008736305624097397,-0.0009897156877020203,6.95
-0.03883749584488609,0.0663171749452292,9.791201318462683,0.00042054039072106803,-0.007319943753366343,0.007861584725201628,6.96
-0.07742131079830941,0.21098887169153124,9.76025207493257,0.0004251308810883575,-0.0022181788178929763,0.00780389265012325,6.97
0.07843640790123468,-0.031301914848475436,9.689260722472001,-0.013103435955175251,-0.004955891198395829,0.0012711967660909791,6.98
0.17297064554512392,-0.03221477175540317,9.727619558056142,0.017389555420347834,-0.005638236919920977,-0.0006658054985516445,6.99
-0.0692434427090691,-0.0725079374836135,9.877077584037435,-0.01051765268735528,-0.0036552891755797464,-0.010357006863188599,7.0
-0.04371560440335863,-0.035913867585007364,9.866928178881594,0.009764321792892376,-0.011521544274459632,0.012720642025176148,7.01
-0.008331848565988105,-0.055300088251598045,9.660792186082139,0.021245116316413484,-0.01605209511512806,0.006294738526489644,7.0200000000000005
0.03181006308304158,-0.08056780480729911,9.81453762826767,-0.0038117075709302585,0.006204667274911291,0.005450456368426658,7.03
-0.06646022720609446,0.04578949690840029,9.660881671948392,-0.014336852145603533,-0.0019727914095681353,0.0040315416666599465,7.04
0.1130653016433227,0.061062445630184495,9.777158525422806,0.008140764609906604,-0.01517749553715422,0.006629371457603573,7.05
-0.13023159627735809,-0.10898388907063528,9.634823008244483,0.015372213349386037,0.007869469113431742,0.009370373584580526,7.0600000000000005
-0.03791961498125965,-0.28801537419956663,9.714816322126355,0.0036063282587069498,0.01774985167414026,-0.008740799326630218,7.07
-0.03312961009353201,-0.014922539720815857,9.683020120160574,-0.007723833377057944,0.00853883115137764,-0.0013220683603918566,7.08
0.10439092162096622,-0.012136974788846691,9.770438859156293,0.00298943492052963,0.01060685293926453,0.004415265987765395,7.09
-0.05102368578721529,0.04114413282585905,9.919404213800934,-0.0025454163988399346,-0.012342831167339674,0.01052667303935643,7.1000000000000005
0.032103015613713315,0.13918442681339974,9.787337378178002,0.014885539615240835,0.012617181708346135,0.018062910760349344,7.11
-0.07971506461410793,-0.10377271489795831,9.894025885945725,0.0011278577404250003,0.0012985109581762717,0.0012042597013406555,7.12
0.15446246751708148,-0.0024265982364967617,9.833356639606563,-0.012314785992587117,0.008958370777554688,0.013385373078201286,7.13
0.09889667672783639,0.0012622940769742381,9.759819209932107,-0.005416170187387499,-0.0011046529872285977,-0.01052372396903765,7.140000000000001
-0.024880222714389583,0.115483982641743,9.783322637761804,0.014127026729567123,0.02852781206565355,0.004902468965991915,7.15
-0.11073072670514764,0.0065345454915707885,9.75622034345935,0.011945805093198855,0.014774717574271472,0.0025363269006505357,7.16
0.17769309917242082,-0.007052204094133785,9.897582545150314,-0.0034650231333849912,-0.0150788820909225,0.0004415062774372379,7.17
0.13923810919058074,-0.10147817130931863,9.779122367698085,-0.008567890870730338,-0.0016769301483391624,0.012203553473144104,7.18
0.02441666952055117,0.06879298616004252,9.858824785740094,-0.0006090749350942386,0.0020466212520597084,0.004758734845302232,7.19
0.0062154249171101255,-0.03949372862417724,9.70101922868222,-0.005508717101954719,-0.007292893457153552,0.008380581785860423,7.2
-0.0987569849866623,-0.037287885744072435,9.684521764254002,0.0021136276060030983,0.015370671716237062,-0.0003377387044570478,7.21
0.19131687493725374,0.031971556832547196,9.819439811531051,0.0060866209732534605,0.00966270133341317,-0.007027397057324518,7.22
0.01979014355854562,-0.07009900172819852,9.828877528143229,0.0007835640737375032,0.01761081446714126,-0.00735003720075459,7.23
-0.01656362568881876,-0.07935868838775119,9.680336092225847,-0.011514114446683989,0.026227797657746566,-0.010779712611663201,7.24
0.00882132366435003,-0.006847407934322852,9.867947897673528,-0.0006932117321841635,0.014670047092126253,0.008756329468651748,7.25
0.11815993989361394,0.04127853053191902,9.81273986750953,0.0069545727533393345,-0.014175271542433256,0.006875695558826051,7.26
0.03500144631039095,-0.06777484299895778,9.806723041924805,-0.012072417943998609,0.0009333930710375176,-0.007931260492326876,7.2700000000000005
0.07976841117032271,0.12171471166531352,9.755472675299904,0.030874224841038963,0.0011464398068867987,-0.0037127740793831978,7.28
0.051219695641603995,0.048190585282666454,9.955937721610926,0.004423139028680612,0.008812956260636898,0.009191816033629951,7.29
0.012521613290879502,0.21122669960968246,9.742759235634821,-0.013086082046921813,0.0009002657147146663,0.010271930656080435,7.3
0.10302253546593539,0.16649450291643525,9.610741178607945,0.003685316543622817,0.0038701258118167604,-0.006198102565606074,7.3100000000000005
-0.07821479523290951,-0.09156704438313175,9.82941581411696,-0.014492781260734578,-0.017255417630686287,-0.005823038358635659,7.32
-0.037286476101131324,0.12302723669998897,9.736186644547596,-0.012092387236040341,0.007793612394129475,-0.014164642316863376,7.33
0.07798592286599282,0.1312794311376659,9.907481011284574,-0.017110260844370888,-0.0064643355644583116,-0.018609634954495562,7.34
-0.11329561828530542,-0.0603872164537858,9.956958870720463,-0.004079582222821314,0.0031843673572292436,0.006711342852835406,7.3500000000000005
0.11829314310674516,0.1609974515153214,9.801703076407476,-0.009447706023784079,0.0038340353790326997,0.00569156157964628,7.36
-0.1996973110089176,0.013522924352493353,9.806477454292109,-0.0159102739953423,0.0020894460884414504,0.02689476800361539,7.37
-0.026522492074681804,0.041932055067725654,10.002065935818536,-0.004537241132320506,0.00270099685470608,0.007984930032548982,7.38
-0.054301863636778885,-0.1005342268506984,10.01134912705911,0.01071569803493094,-0.0019369007867779192,-0.017168943279684903,7.390000000000001
-0.099355927326728,-0.006503456606834672,9.80123964749396,-0.013343245827180614,-0.0031365229041362855,0.008861564632683892,7.4
-0.09337225198181982,-0.11347040683587895,9.90017099385118,0.01110318506354653,-0.01941089651019761,-0.015348878122787084,7.41
0.1013571694239191,0.009248207513510381,9.813955455344358,-0.009568810511859163,-0.020697821737242092,-0.002336208943222926,7.42
0.19609609415443055,0.019280229009133922,9.734253451343037,-0.009200021318346798,0.0023525834033529132,0.004536015304518837,7.43
0.03887502161809014,-0.030868536633782445,9.90302775406574,-0.0025745688511781026,-0.008934500997630719,0.014891296272904836,7.44
0.03256812753897059,-0.019499128693116652,9.86598831681168,0.009161201369559278,-0.003888045273471098,0.01958261501620825,7.45
0.05882916841244067,0.04989123377051765,9.65517866907761,0.02089805860221803,0.0056497948454361634,0.014174270207179172,7.46
0.006893329328807926,0.014935131479727928,9.864353534823056,0.0010016410512172509,0.01405751280480899,-0.012982301861848797,7.47
0.14638455939767198,-0.1968641937491292,9.624652324911917,-0.014616479578396306,-0.00033382571046006144,0.00640569152240099,7.48
-0.11571255846937117,0.01278379026117803,9.93346845451125,0.002091973814068949,-0.0036472200737354223,0.010393845251895082,7.49
-0.06285749901143523,0.021791105290495275,9.68763783714595,0.007270757884184455,-0.007542269354732538,0.013121256079821926,7.5
0.005385687438005812,-0.1417873660739902,9.93945329720947,0.0033712593044525462,0.014528992818070978,-0.012989977139398314,7.51
-0.02343103313541752,0.054146798895842674,9.9783918050634,-0.004383461124039749,-0.0049971376359123415,0.004268963214762243,7.5200000000000005
0.10155967963841175,-0.14116751685515647,9.911510376141676,0.011197027115914412,0.002832767849562599,0.003886630653355977,7.53
-0.20955398078844817,0.031164455439460333,9.807873063965644,-0.015494769618369748,-0.0012766702333788695,-0.009122381643261167,7.54
0.017654887285053013,0.10817802731816782,9.694638509442184,-0.009021389902135003,-0.02127746927219992,-0.010629179593626017,7.55
-0.11946253256002984,0.051198047524005655,9.913090101616687,0.0024764882575166124,-0.002336189988534434,0.00190181304772905,7.5600000000000005
-0.16834829575781451,-0.05841811142623844,9.855167814159195,-0.010121952988846035,0.004442841469072047,0.004542615569020011,7.57
-0.292235854400599,0.0981021464292053,9.906994365587835,0.007554539982624148,0.01508363795141382,-0.0026561061659000065,7.58
-0.16571367748884738,-0.07256679609805808,9.956768815670237,0.005445488127476489,-0.005124967457642859,0.0019965930341140584,7.59
0.14797207101938772,0.03142550788235068,9.757432573611744,-0.0071232989938578095,0.0032130721438438314,-0.0014705844616408874,7.6000000000000005
0.08376095915527909,-0.033110763889993414,9.791127098930733,-0.00013227105122534137,0.0046443609919819195,0.0067961465852782645,7.61
0.028567439453409955,0.17263767742003033,9.796524082286853,0.001241552207039828,-0.001963372742544679,0.002403672351974165,7.62
-0.09061043256374662,0.07492424855254713,9.797658116183642,0.005663029430944306,0.016252664669641547,0.0046574437817845414,7.63
-0.09485933691365556,-0.10676950673595256,9.770233313453774,0.009283058720749573,-0.0096998996779023,0.012253115621559603,7.640000000000001
0.07082430708468575,-0.05777564113034789,9.897407592504317,-0.020303857124517658,-0.00674069378795636,0.01889985644236734,7.65
-0.033741170455062745,-0.0517677736860894,9.695594294097942,-0.015304366455834202,0.0007749925282691878,0.008185456791998757,7.66
0.19908221842988205,0.08929179894462358,9.74105980690709,-0.0019664014322841386,-0.00963182910277577,-0.004872673502789563,7.67
-0.008183894357705331,-0.11909110990561891,9.843128255024615,0.0038633309840577458,0.002179638926453422,-0.005157239885155051,7.68
0.02163166606689705,-0.08893843927137512,10.01174825999211,-0.0045643231802189625,0.0026013992161731687,-0.00718623272445541,7.69
-0.06015754122145352,0.019603334324814897,9.792068324839523,0.0059741564838989986,0.00017563700005329344,-0.0031744139956043256,7.7
-0.007319802660034337,0.010507797830701483,9.916733533936846,0.008222933562572785,-0.00721712464223493,0.0016834971934849162,7.71
0.028435664734391904,-0.08232390516893039,9.829521471609402,0.014864933179858507,0.00037566904866192683,0.0019673459004371273,7.72
-0.12242298443348971,0.13579355507426594,9.88009461709199,-0.004193826070855744,-0.0007020841890313461,0.0017370097515663708,7.73
0.09847530044944904,-0.11863779894044486,9.833753151581808,0.009696693255299258,-0.005728328695068169,-0.02355267710446875,7.74
0.0714482646475226,0.006411076047874474,9.96291842971304,-0.004607997152384147,0.010414729363624163,-0.010940435597694831,7.75
0.1154235361177968,0.0658916930785292,10.048731170984507,-0.007886200510669222,0.0026354315274696406,0.00015483075424188922,7.76
0.1887530773231613,-0.16017027770629025,9.834414355503782,0.0037218291014053345,0.0030918515173601496,0.009129838791412813,7.7700000000000005
0.039570064861083346,-0.0031956452267918587,9.83391557363262,-0.011407485379529713,-0.004786332188207137,0.03355217553654102,7.78
-0.21435496518385666,-0.03506514278183683,9.81410834558899,-0.012301610180659813,0.010233697812712366,-0.009730099481798607,7.79
0.07677965062471831,-0.1505689558336023,9.768001128210525,0.008937068847425055,0.0036136851309450557,0.00783201666851589,7.8
-0.0026166861194094216,0.030469298916151993,9.861172358898616,0.006361360661248289,-0.004201220743867088,0.008643746264861646,7.8100000000000005
0.08411022914143661,-0.06678511597543699,9.657963469250145,-0.009141046421228162,0.018455271744852855,-0.013104580849069198,7.82
0.061119578723845505,-0.04965873864399273,9.760424686518611,0.002532575704198508,-0.005232922169010729,0.011300194357110532,7.83
-0.061025143720719766,0.154643847585213,9.780959854260466,0.0004133967283988426,-0.0003311485352719848,0.005212687462006859,7.84
-0.13514893550883458,-0.11148334352560454,9.761369677766105,-0.008902003236194101,0.0012303023349627073,0.0019432079726704392,7.8500000000000005
0.07219369026372462,0.1849333724072804,9.885718720672985,0.0003118453863900621,0.0010101493999487312,-0.0013508406738358255,7.86
-0.11345988669871127,-0.01756352756529509,9.772356384549848,-0.014320621751216994,0.013571712931428257,0.00610945784144333,7.87
-0.03288367615651412,0.13130269472342934,9.819794036014159,-0.009507280925678893,-0.020980620284507482,0.010238683734380175,7.88
-0.08186542547542218,0.045781997147626666,9.789586211560907,-0.005988085826775751,0.0066409640613321955,-0.01965837713672815,7.890000000000001
0.05075672915528541,0.1432318090602944,9.9301971839029,-0.011223182879562548,-0.015575850475372298,-0.005218706176565082,7.9
0.08288120644233804,-0.1172468041147204,9.795794311590058,0.006049006038059619,-0.024221865727298005,0.005979273811815549,7.91
0.11175617365636886,-0.17028973274350748,9.732282490227801,-0.00427551525907116,-0.011971483003050912,-0.014334207338057816,7.92
0.10586024146438684,0.05157902923433519,9.789608959147543,-0.009743668869931983,0.010464218570172563,-0.003949507785257757,7.930000000000001
-0.0698879498590723,-0.002525144054110643,9.996094536840742,-0.024430953303042503,-0.00010869672157861335,-0.016942128310884527,7.94
-0.04700987692650935,0.10062814384728941,9.657103437350424,0.011142586456140238,0.006774982147725654,0.01863266621592131,7.95
-0.002915631190439222,-0.019198511993567778,9.911523496116537,0.004758683493977171,0.00867502487281578,-0.000643042274042758,7.96
-0.11185056372013558,0.18826588442763817,9.890977211031478,0.01734997447319137,0.013105080875271534,-0.0003267787541141566,7.97
0.02809102529096354,0.11619075142356944,9.858069204785641,0.009049791083096623,0.005365489446612699,0.004914152950232814,7.98
0.015619296010587619,0.1138871740558489,9.622030420805782,0.006921963848611175,-0.00913095823692822,0.008296185017804105,7.99
-0.048323084533795496,-0.093751291278593,9.748823907828616,0.010696481659327978,-0.001115920697143701,-0.00998057801728084,8.0
0.04947687136424316,0.01599857037956094,9.843895060684046,0.00451016212516761,-0.005616616751479667,0.002063636687600768,8.01
0.23451105720026916,-0.09166581225987691,9.79741292838226,0.00793777364555106,-0.0024241624311060537,0.018517917224526732,8.02
0.001625567189074509,-0.029983152080497507,9.925543248648054,-0.007184868301323105,-0.003446361658684776,-0.005583727517245015,8.03
-0.05627290348933028,0.013694321102662874,9.768290923856982,-0.006412400722792862,0.0016362699488638194,-0.0006837795187160997,8.040000000000001
-0.04726263307004802,0.0447539652952659,9.721500709014741,-0.006690160272923711,-0.02052369247007833,0.0036071438428220254,8.05
-0.18630711848292925,0.05918983722981194,9.715768610414404,0.010458433500954708,-0.008447819773679971,-0.010580245530308745,8.06
0.03944021887297519,0.07046467617861518,9.906838488944816,0.0010917267727612477,-0.0007621776293060724,0.014190189478721063,8.07
0.03655711909992354,0.05130543948862415,9.74329101932394,0.002871603833881616,-0.014249512002409866,-0.001312971575933051,8.08
-0.025091376585164846,-0.14376190726742452,9.746440851048954,0.009827131278532172,0.0031813395410393262,-0.006783574097929584,8.09
-0.0031757769459907917,-0.029300777123550406,9.688266109612584,0.0035756207840524352,0.003977794424840242,-0.013122526986578429,8.1
0.021088670371726927,-0.09682071356358413,9.80420690812185,-0.020053794601567292,0.0016570195229246118,0.013808486729301135,8.11
-0.1687582624206917,-0.10976692669977413,9.859067130218131,0.0002799174901344153,0.004143405327803721,0.00558172443146481,8.120000000000001
0.05565714338632967,0.062571915665352,9.878635021833544,-0.01565331425082349,0.003372718827058419,0.016879659710451345,8.13
0.11382777408753231,0.17433442605630167,9.755372402829186,0.008281611028127349,-0.001682171058337467,0.0017129758638180146,8.14
-0.1256216070139817,0.051077422000064134,9.75621916025463,-0.00014051634410800206,-0.01177769607085423,-0.014141628900563532,8.15
0.02175266643921462,0.020170460287109216,9.723055664171238,0.006802278508285281,-0.0076344216598070724,0.0007591426583538292,8.16
-0.03743354478325472,0.07351296955403132,9.958669685623716,0.008369283484725269,0.008919756643003695,-0.012563134232691613,8.17
-0.008748842239894,0.0813044739739931,9.818962623500898,0.0052110415366342765,0.011567400268348838,-0.008564276485993744,8.18
0.05138440116137825,0.12081600722162707,9.835932218009381,-0.006976749508365507,-0.0058054649718720635,0.008065833660116501,8.19
0.08696843299038104,-0.08326515837206297,9.944345108378766,-0.02477907923630907,-0.00442079549173966,0.00451557580986442,8.2
-0.0735156907244628,-0.002181803541547064,9.79867286318409,-0.0011318371233516942,-0.004548705577705089,-0.00786163981381973,8.21
-0.00839112144201594,-0.09442651242368051,9.912665013088672,0.007285808127833888,0.004520508592633322,-0.008348680050052501,8.22
0.2157930741346895,0.04108100432863825,9.762098710283508,-0.002818907245963483,-0.013472305041113516,0.0006576115732326209,8.23
0.08139929473360402,-0.07880668916195396,10.006821232850372,0.007356636536592596,0.011874099767616515,-0.0004087807770280995,8.24
0.09534783409535613,-0.129133773981913,9.719361106086371,0.002673777079518513,-0.0026353082099144797,-0.0016631780715251926,8.25
-0.19989994426369906,-0.16363685706814532,9.798938097482774,-0.016635839969242318,-0.004908357599136316,-0.002474250842404475,8.26
-0.050896859603357214,-0.06714819726166738,9.887072949146829,0.017881234767948027,-0.007188188693035058,0.01169524734148143,8.27
0.0075042240239614685,-0.15325347114382604,9.88516091380587,0.0062284798241455455,-0.0007393901034119738,0.008700057121066872,8.28
0.11586242847689765,0.056519553429758285,9.832109888348024,-0.009310992384824591,-0.005072830130948843,-0.010109581425609223,8.290000000000001
0.15986641747566643,-0.02776326645460101,9.707106966738339,-0.007511962312838608,0.0036973263572481953,-0.005274553368476991,8.3
0.019381352559046983,0.01656652660672832,10.006879040054937,-0.0052889661450023955,0.00183409787861076,0.012202428031379753,8.31
0.06930966884379201,0.19470921769208158,9.914514320122235,-0.01749286008092426,-0.010602562775478566,0.0035016848625683532,8.32
-0.006991320935334885,-0.015221632758096446,9.759776579263383,0.003396854005773515,-0.005510229569838126,0.0028591582432377564,8.33
-0.10945756461536221,0.13042622449194666,9.932353642471451,0.003581155479126412,-0.010638806796536638,0.002117675647895566,8.34
-0.028829429501772988,0.07641104439678958,9.645506604557962,0.0031933197185803337,0.003674473611582123,-0.00824160745547783,8.35
-0.01267124528144021,-0.005970385651049663,9.85551981073534,-0.023374964394046342,0.010658366230554888,0.022788968879322892,8.36
0.05543996568807611,0.0938071405256231,9.837543934317644,-0.0007212832545209219,-0.0003811887531796556,0.001506468110273058,8.370000000000001
-0.05981120681264628,-0.03757977435488203,9.806542956895425,-0.011681503424229564,0.0038845111755293573,-9.6657168148953e-05,8.38
-0.022673999537762942,-0.03499900353082883,9.858329741555266,-0.012649754025257422,-0.026825534441456075,0.0034026910536614336,8.39
-0.010682097435360858,-0.05956092226089987,9.876449492263058,0.010111644009815839,-0.0026924346992206424,-0.0022018172601651303,8.4
-0.03449361241418277,-0.16119702741936956,9.734994456059038,-0.01001839862275851,-0.01837385318949062,-0.00900694491698447,8.41
-0.11184400958732849,-0.042377130851414285,9.921428433268785,0.00211947212286417,-0.009225226786139911,0.005993564494255578,8.42
-0.00588049734559049,0.09150266590211478,9.762548314836254,0.0165415377067395,-0.008354730779261368,-0.007419346621726965,8.43
0.1825872628196443,-0.15681804367566626,9.770788750461776,0.003214402935822628,0.001889370350167697,0.01473702084302299,8.44
0.14621367274520103,0.0603118124251068,9.831605862819218,8.641686997555375e-05,-0.003037462356409244,-0.0012609645685099952,8.45
0.0642304068089433,0.12174892566167271,9.770047026665969,-0.013793191891651752,0.000792623411944182,-0.001309485505712089,8.46
0.06414803738470636,-0.15132886487230252,9.789298998665398,0.00024346117500084245,-0.010189021923115082,-0.01604261451840855,8.47
0.034086896363214596,-0.015245115749060593,9.769552979607818,0.00795354410824106,0.002446654318794495,0.008701676946038992,8.48
0.147933942603398,0.016777701535152383,9.76402775282448,0.011920438435166079,-0.01627878203558254,0.013322809830470347,8.49
-0.03409867214538561,0.09379691272445147,9.749851291011192,-0.005871962080277188,-0.010483115511944282,-0.007761597454777684,8.5
3.067930591831808e-05,0.05228413978630499,9.872187211897883,-0.005088775090370308,0.01429922848107051,-0.007503125859376422,8.51
0.02902006475272231,0.07163571614628071,9.666850999851146,-0.004892997314358265,0.0007794584603628456,0.008613988025348816,8.52
-0.02465241782981602,-0.13645519146023663,9.936356382812267,-0.014103894302443822,0.0015938612375270863,-0.011908774732900354,8.53
0.13706248869724275,0.11484612091930363,9.981852488112418,0.002679021892615765,-0.003501312988486015,0.0029318656464682614,8.540000000000001
0.03410521977930277,0.012049995623753917,9.80407091240748,0.007052822790302254,0.006359548371619703,0.0003582896893247725,8.55
-0.03832875687989412,0.08112286903800825,9.933126781207307,-0.002072064881853505,0.007081134347495898,-0.006538369155680493,8.56
0.07247177443435453,0.14464478646896098,9.6969468389265,-0.007541686866955306,0.0035455264465795873,0.007948191253971892,8.57
-0.0021106466375109814,-0.11686997559353758,9.900865660821342,0.010894663364803483,-0.003387427046290382,-0.014091099092615236,8.58
0.12025093272568199,-0.015425404485238207,9.845220364651151,0.006347028671086386,0.010041606136159795,-0.005537742535578632,8.59
0.016910540058694076,-0.14297195889202827,9.907690627937999,-0.02168393388833591,0.013313899266658281,-0.0020380105784493226,8.6
0.003807996616014753,-0.11085700473739096,9.839730851359294,-0.008870119691921695,-0.0005215461700015118,-0.013758754010449127,8.61
-0.17213572751211284,-0.05951573979783457,9.77557421520357,-0.013858537211406879,-0.0030634523881085487,0.002234294190715439,8.620000000000001
0.1816202282175119,-0.13060864269971706,9.890224073532655,0.002587859990537625,0.014571484274487791,0.008160429666518879,8.63
0.10260493934334206,-0.10250428309008604,9.854548947575285,0.00785717543933475,0.009025484499306081,-0.005508608839204056,8.64
-0.007655217963737153,0.20404220667329206,9.896474768255798,-0.011081506102205816,-0.01567820620129797,-0.007664890676171501,8.65
0.12108752981700283,0.21808855655513534,9.829929543493654,-0.013542539822771616,-0.005895693101376716,-0.012775813056313047,8.66
0.10746064137504902,-0.0023435355702623745,9.81789783281435,0.0009267719839129074,-0.010295493374969161,0.01618326833158238,8.67
0.035014459710005955,0.014874500779227027,9.937753279604042,0.0014079870258145492,0.013491648199760967,0.005563751989892297,8.68
-0.06900245967576817,-0.09302909911619033,9.868811231971087,-0.0007888193049829773,0.014158316377728686,-0.006034720176713997,8.69
-0.0022543452706199566,0.0359653955293383,9.854797684532784,-0.0036669282336578898,-0.006661853867960388,-0.011560622398262799,8.700000000000001
0.09552640073242408,0.020952336813771698,9.93486642274062,-0.006399669704996548,-0.0015557887011117297,-0.023130457045481823,8.71
0.018038086952614354,0.024790971205540604,9.767299546937862,0.010313553634658903,0.0024979905785953915,-0.00528148359665563,8.72
0.11206596943735235,0.10206532071179182,9.939718222437675,-0.016404807452022427,0.0016164996688027315,0.00519058469247776,8.73
0.21317933877511386,0.09429530150677809,9.728248723335867,-0.008377328456426756,-0.0005684924193998226,-0.006080929823972545,8.74
0.155728523159436,-0.09979893884329691,9.744604049884236,-0.012395789533544761,0.0008562386617092961,-0.011572078185360619,8.75
-0.05712105094210934,-0.015561919946148847,9.756983547817399,0.010320323116715964,0.0036098874659273783,0.008023390261951435,8.76
0.09692038890444599,0.05208216926511838,9.908738146015011,0.00397076231655749,0.01892791997683235,-0.006309259575961699,8.77
0.04119620972326443,-0.07071999826977397,9.788645847002496,-0.014052104278217648,-0.006580891539966119,0.009624111552122307,8.78
-0.014788557796566782,-0.015616517120357984,9.877334846407553,-0.0002221260113278098,-0.02063601577691959,-0.003889924433264835,8.790000000000001
-0.0002522507653819063,-0.0013936795197710568,9.847323140876918,0.010473545588733056,0.009751325759272287,-0.007761509044313172,8.8
-0.02289305759837101,-0.05911872978966112,9.737335384967388,-0.0004752431957179695,0.015013850675834096,-0.00415959308982999,8.81
0.1941549535807717,-0.14869460186778174,9.658622797596154,0.01409621245177061,0.005463964295836894,0.004748699333922158,8.82
0.029660598098994163,-0.05101172563032738,9.997855200361284,-0.006993763760391222,-0.023274939392970224,-0.007102859467791533,8.83
-0.09228838841713777,-0.023113378014140464,9.720730201965445,0.013576020314363987,-0.0010294517992061158,0.00399200803029889,8.84
0.05079747157774814,0.042253678759917174,9.75797611601124,-0.003986141439296814,0.00023720624206230133,0.013325412844059373,8.85
-0.06234235062438801,-0.09658568671438028,9.797179170589887,0.0013178604511581685,0.00723227236872583,-0.017194370486482525,8.86
-0.15163719258072922,0.1754836362773035,9.753387185809336,-0.0023627980502828544,-0.0021579233544420486,0.008694512294772878,8.870000000000001
-0.0370459768211815,-0.045930765332220236,9.69192796555049,0.0010874248288255694,0.0014420012616720168,-0.0012609303541110573,8.88
-0.06807416067561721,-0.041486031892831315,9.773685713259246,0.004458200475527396,0.007210917976394321,-0.0232814062543721,8.89
-0.08305114880130343,0.06583013956548922,9.900463928424147,-0.004580464046642469,0.015580006679375563,-0.003327271578917862,8.9
-0.0916684352137109,-0.11846204545012207,10.079629199588206,0.008722886778041032,-6.193528742555399e-05,0.003203884722252255,8.91
0.015226313673680762,0.17618774976366208,9.878351191347084,-0.005506739338416899,-0.0035203616092690277,0.0028806012672931303,8.92
-0.04388562949383776,0.06932021236290581,9.729459792642544,0.010085270295131928,0.004467272094680165,0.005606240264929305,8.93
-0.0801518635574946,0.0060689694721646386,9.830612439936965,-0.010705060954076641,-0.004238865152435579,-0.00782604374751531,8.94
0.10646479858247307,0.041025751155273356,9.760957210776336,0.017299142371788596,-0.008209049062997973,0.0008859032241318945,8.950000000000001
0.10827039250661877,-0.03536523728413155,9.992423578701565,-0.015616856786887295,-0.01161948381262643,0.006503610910219451,8.96
0.14205384468916535,-0.06648524095561847,9.767732390592396,-0.00634492778909285,-0.002239676105529854,0.023152679983386156,8.97
0.029380785181517072,-0.1722541003786749,9.734145645657119,-0.004629422637796323,-0.021820054075105347,-0.006496214600553479,8.98
0.08302647105824251,0.07233181898568818,9.599927011667987,-0.00013946679616743884,0.004775018027749301,0.0011313700750206091,8.99
0.10431485577413611,-0.020564720520882186,9.920869037820951,0.01628804100794892,-0.013265941809161306,0.0039260071089857705,9.0
0.20916270266337686,0.13326839242738123,9.908255117240795,0.01416824119652723,-0.008396173410520824,-0.014406562672564018,9.01
0.0580615186879626,-0.06616301907921594,9.698034316344014,-0.005954920290442756,-0.004658794960110158,0.00067202661639337,9.02
-0.12619665743448583,-0.1473770619504524,9.871863986982495,0.0071924933553483145,0.016303851096679322,-0.01619166204595754,9.03
-0.0009543744363033942,-0.10998220845791969,9.897298869495884,0.008749712868281159,0.013918120760797372,-0.0029864781199976606,9.040000000000001
0.03846529326692446,-0.16577475564788963,9.931071005135818,0.0018756357585695371,-0.00524988521519349,0.021050239930329222,9.05
-0.08409374835322782,-0.09502493542951239,9.849356993569344,-0.003624711656635288,0.0025296917146286997,-0.002535595803346904,9.06
0.07588281360068833,-0.01769671861079303,9.762502071483112,-0.006106106679025656,0.005810153394621067,-0.0008289635056209541,9.07
-0.1419065529839896,-0.11199736235863939,9.757120270176003,-0.0017426636141661773,0.005222283137722712,-0.004739739671796392,9.08
-0.06392533229923296,0.0376510500984986,9.976725068981795,-0.0023898632544568288,4.463186217393574e-05,0.0007105533329277697,9.09
0.00044425250505195947,0.12297794268034345,9.819517266826166,0.00179112807783707,0.006831071405584338,0.0049486149429578356,9.1
0.0019812897097356546,-0.021637141029434495,9.899854996029319,-0.007649971699448607,-0.024843923050195338,0.007010340885134859,9.11
0.04024946989983125,0.05956113311777128,9.80812620443766,-0.005563301264787239,-0.013446762995848386,-0.0011650116729559862,9.120000000000001
-0.02351518556636105,-0.16137674778620104,9.914502740862668,-0.02446687242851263,0.0003010975064703708,-0.010721488629288201,9.13
0.11617373958257422,-0.06751341839394258,9.803526076129096,-0.006974418916500953,-0.0001094696754266866,0.000395249887458779,9.14
0.005133219511668851,0.0016585126396597217,9.815286438162767,0.008003762804785096,-0.007789617674780035,0.006712517133329453,9.15
-0.1743125125537791,0.12215741767845854,9.847932981526053,-0.0009461005274428619,-0.004136536341627735,-0.00721458626714238,9.16
