ax,ay,az,gx,gy,gz,timestamp
-0.07820942332792702,0.023965531889183222,9.837253517434235,-0.0037175728554964416,-0.010084811627063147,-0.003007939141695372,0.0
0.0562553641521453,0.03259665086174644,9.770649534211787,0.0025300119610063318,-0.0045750333713073495,-0.008751622814584848,0.01
-0.09847205606304253,-0.08055102578328116,9.828358159495808,-0.00016742532276343584,-0.0036716462675804983,0.0012320353726418436,0.02
-0.02343976300988332,-0.11739125002656013,9.715656035552525,-0.0018332817798004976,-0.007058349388414059,-0.016170898659888834,0.03
-0.10148589147618237,0.053956541610688795,9.732913333209243,-0.008180457197162722,-0.003281521956398459,0.003857841941281544,0.04
0.10495621954453178,0.0868605996155748,9.869616546257584,-0.014689140113438373,0.010766381845984684,-0.0010721652820240143,0.05
-0.16482324838730172,0.15494014396930708,9.7958253562391,-0.006655537057446262,-0.007493902113476041,0.020376321477317192,0.06
0.15153911772955533,-0.07629910019616612,9.72985963238854,-0.014005159496835813,-0.015668199730307114,-0.009551191509030967,0.07
-0.05685387595852655,0.010067962928419768,9.893299427230824,-0.003241329073940464,0.004794591095853778,0.0036385363748473697,0.08
-0.02192192701709163,-0.05641028935717669,9.670075568211114,-0.0053129822198281565,0.008933192186262248,0.0038339319184576503,0.09
-0.08099093471826802,-0.09227317337148741,9.890246386356843,-0.006513082723797569,-0.0023945893609953082,0.010791837759594336,0.1
0.10800768732928867,0.010085191790598368,9.925305496331697,0.007195766059107163,0.017709216991202127,0.006056176466667047,0.11
0.04980215716736633,0.15340207257013858,9.778228832664839,-0.010828494802751948,-0.004223581865746452,0.0019139155657313122,0.12
0.2940856953593288,-0.06298990436321866,9.87638503609287,0.017364054120544172,-0.0038865921403566897,0.00177771635327896,0.13
-0.19119515257016778,-0.02253725818337427,9.857824760487894,-0.010394632456298932,-0.0014149093568454054,-0.01145468780617532,0.14
-0.111301803356174,-0.15178905922506028,9.665638060800894,-0.005036015221594152,-0.016078100444374858,-0.0014302234035167309,0.15
-0.10105083410548182,-0.054765586196870324,9.860143006955482,0.003423973349889422,-0.0044125030005097024,-0.00041506736327676357,0.16
0.14319594970050695,-0.1600612475478754,9.77480087827734,0.01491649505444061,-0.000765601280302226,0.012095834264074566,0.17
0.019729854490619536,0.013743609002359814,9.710220863039805,0.002842259878881511,0.0009556914301438441,-0.00637934207342266,0.18
-0.09590236323860625,-0.12546923125005055,9.732153028934944,0.00911733782493296,0.0001995260450601849,-0.010993517002577516,0.19
0.21984302026621558,0.03079714969218556,9.890696410532463,0.01437028233364146,2.4483735631683162e-05,-0.0021006558623362435,0.2
-0.03494587517337044,0.05671297532753672,9.680040434871428,0.001213651101767368,-0.010870230064083608,0.016035463656343698,0.21
-0.034026979110960406,0.1633417429644478,9.902338874280522,0.00039170080242154504,0.0021917633376848894,0.004163616046340196,0.22
-0.18402847444982834,-0.023359686784965264,9.752300374676599,-0.0004146427114753398,-0.014054662152945865,-0.0030382321105700758,0.23
-0.13426790643161252,-0.20958475033639076,9.717555724950714,-0.0037782624087158126,-0.008696691721548225,-0.005783252343315472,0.24
0.035997770565558924,0.01771168010545982,9.620544297903919,0.006500012015342125,-0.008684132207635475,0.0002762904050954251,0.25
-0.04731210437907832,0.03322120607900086,9.691922700999275,-0.003842838706760696,0.005290132762167148,-0.004858317097779983,0.26
-0.09729948387244214,0.0341731458423994,9.884597970770974,-0.010459618659276056,6.415609053826138e-05,-0.012554081022691652,0.27
0.0045313083045103245,0.08865316004587281,9.947232548634002,-0.008440759177945269,-0.0004297823180506023,0.0033683883986264295,0.28
-0.03919797434597425,0.08093106092747532,9.790340595270267,0.0040602684132920236,-0.024227358826783778,0.0029783718398017733,0.29
0.027283582031004745,0.07090831592719767,9.869220092086628,-0.004793120233503372,0.0037029353000297242,-0.01938329804127321,0.3
-0.15649137288974588,-0.06812398095425727,9.811169737588413,-0.008530307259300304,-0.00431562312198944,0.004390855391654942,0.31
0.1892960355502509,0.08221119892533198,9.969882923631584,0.0007253414129606069,0.007057640717399373,-0.005244845092681909,0.32
-0.15593711755950668,0.03301614761061119,9.791799684959956,0.0025299481136037243,0.0031205685014214913,0.009255262277988603,0.33
0.19161234698935908,-0.08100772719262062,9.751772739895586,-0.01626193195685828,0.011448409948386818,0.022547177793190116,0.34
0.002890650250182169,-0.11211778455661905,9.837464754718507,-0.00222555496662965,-0.02105596990031186,0.006373443072805771,0.35000000000000003
0.10321179358379258,0.10573231066612793,9.729658726017538,-0.011621434223700076,-0.0012524468049068683,0.0099875998263818,0.36
0.059772269715334336,0.0955475946910746,9.804400314582702,0.0021672579659687014,-0.001285576403841693,0.0007782195540778408,0.37
0.06365855629002116,-0.03465115645375163,9.818647021137874,-0.01530194571829508,0.007486801229022482,-0.004782070074458315,0.38
0.09548544387407519,0.14513812406246016,9.777491087639488,0.009794844415821643,-0.010098617195505926,0.014373800642227015,0.39
0.10595303739571389,-0.0320215037585228,9.755260216614909,-0.014172126996132937,0.006248702504030119,0.014735567842739114,0.4
0.013308416102340154,-0.106307979638537,9.710586824507795,0.009610511201123889,-0.0010159095146769475,-0.014631681116923725,0.41000000000000003
0.11224525404495128,-0.08459038114825493,9.942092813455146,-0.011115649014246507,-0.006413781943733002,0.013000095883882106,0.42
-0.00517762204332178,0.11694830901747862,9.898301088445828,-0.00482451419617599,0.0046524718329415205,-0.008438865553307607,0.43
0.1250733871219723,-0.09684603901258687,10.015499538699915,-0.0021011538997233836,0.004962492309054843,-0.0008428441307163865,0.44
-0.00881599908477757,-0.05729084504304097,9.796936718727597,0.00428315988163507,-0.013811320219893626,0.01634450055605115,0.45
0.006666495001287998,-0.035053234914271196,9.708937180226672,0.0103395279734072,0.011281836666263199,0.001079396126863942,0.46
-0.041082908213860556,-0.02662460669579836,9.881313046252357,-0.003282326560406352,0.007605070779081889,-0.0038761078411355394,0.47000000000000003
0.07242115965707441,-0.029577953885583846,9.884608107592083,-0.0011215769968637556,0.005134449183684366,-0.0001541007144418052,0.48
-0.09741203941003035,-0.0682758895426193,10.08774312424028,-0.0028125117244849145,-0.013598611124862237,0.02252421588504032,0.49
0.14010249358809326,-0.037406426969582254,9.925887232549544,5.07462095737174e-05,0.0025167979820511733,0.00045682709392497336,0.5
-0.037413626057268855,-0.013800614869100442,9.731191425087307,0.0022519897891602105,-0.016277278616504173,0.011684787501099676,0.51
0.10728335052813186,-0.01278174527555042,9.719636004025311,0.005075564157348095,0.001026446476100658,0.004370804365725015,0.52
0.15703234545266073,0.14562360175647787,9.874920132436356,-0.0017094467881583484,0.0027449396032896973,0.007898999221728048,0.53
0.09089067559410528,0.024989756260139093,9.801372232164173,-0.014141500565716683,-0.006406258309080676,-0.010100341688505774,0.54
-0.17920569567597353,-0.15943674477883452,9.764521651021452,-0.010815494194844257,-0.0002633454313148447,-0.014225432389481494,0.55
0.108693362597901,0.01811535941255491,9.73506767077591,0.0026452520074857068,-0.01453637684845594,-0.005160740329410991,0.56
0.09443640996680429,-0.031581528652543225,9.998778518599847,0.012112986937093674,-0.00036582711936508443,-0.006187940923284704,0.5700000000000001
0.12072836225600961,0.054556437750982414,9.793620315168718,0.0007511412929841289,0.009296977622640737,-0.003844227102091162,0.58
0.05050501098559937,-0.11559893183274897,9.797927340579673,0.005832106712450474,0.0008072181551719507,0.0016740574696146808,0.59
-0.10535841905989483,0.12987804422671623,9.86657876179854,0.012559070559327042,-0.0045927272086103066,0.0031888989446475753,0.6
-0.050695282594296724,0.0714176706660119,9.721189594279819,-0.016927928841220567,-0.0021179772935251825,0.0062473873785480576,0.61
-0.12315012775147594,-0.1806174004730054,9.813926928275626,0.021327595923532356,0.014132143624636558,0.005327615987260435,0.62
0.05735441675093383,-0.09421038262837989,9.779478916284988,0.0014095107451909529,-0.0027374128900516004,-0.005333953169208547,0.63
0.011771140338295157,-0.047333315512669394,9.7181382785106,-0.01636261901259683,-0.007142071097201861,-0.019407257675096694,0.64
0.04209282913721216,-0.11775324680633743,9.754745097176235,0.00894897024843038,-0.0026679018941385487,0.0001067045106143818,0.65
0.07198803854849424,-0.10598150543369037,9.976708076238372,0.004806776343261407,0.0013457245600411618,-0.0046684256984884445,0.66
-0.04526294981169386,0.07810146781735558,9.88870098417162,0.011881036095000304,-0.008208981771198807,-0.01700427202740718,0.67
-0.1698910365443382,0.03082604638860862,9.911347257353768,-0.0030659883948705212,-0.004228653305965224,0.0011644050090010448,0.68
-0.016720796463254136,0.05707157683394354,9.84952724500621,-0.002426794533593299,0.0030904683985072848,-0.005517859442548011,0.6900000000000001
0.20025888393589925,-0.0793802945751721,9.825975772820863,-0.001969525868611375,-0.009022081233493918,0.003704675281597008,0.7000000000000001
0.0978110956957065,0.1907180123187679,9.700435796047884,0.019701720196109697,0.008296080283318106,-0.01543585331229743,0.71
-0.06451447163900252,0.04872099285417224,9.913518260432715,-0.009764776885124664,-0.0013150357697371393,-0.004620774972808107,0.72
0.04256083499734372,0.1910047040267284,9.86493894241457,0.014464758775883085,0.007429031815608515,-0.013669624962667526,0.73
0.10321502838880064,0.11066317662678489,9.835323008533637,0.0011999518470587767,-0.0053563708431496665,0.01665719044564498,0.74
-0.01340040042919105,0.018057921881350397,9.952341732543692,-0.010549644952605354,0.018465329358042237,0.004620217629974819,0.75
0.14348560436110203,0.04028536727277096,9.699098864670495,-0.0013179107390967754,0.018445727731220603,-9.944749073407916e-05,0.76
-0.04261949691977669,-0.20348221123534077,9.948724570578921,0.006945848870897363,0.000994780432128281,-0.02549224601113661,0.77
-0.040952579065589065,0.07779520506154328,9.894957807801354,0.0024738345447937126,0.007050240689032645,0.0006077159400141826,0.78
0.0894573980679119,-0.021578423678741618,9.860955237344157,-0.006248100808137215,0.0016459696495322329,-0.00606603987520129,0.79
0.06317714688476916,0.03653317307688427,9.915999686684133,0.002431023205497254,-0.009201457114017828,-0.016965309978292945,0.8
-0.009089286209309027,0.08242358756263757,9.792832052070064,-0.007333566368878987,-0.0019328997807549512,-0.014500352744872953,0.81
-0.0585657192098369,-0.02284530364821494,9.831003766406752,0.010020055007625251,0.012591649579856357,-0.012660726007643293,0.8200000000000001
0.005116623713532074,0.1310094883588112,9.908371977798115,-0.01242642650289366,-0.0042834319994139985,-0.0011996782712044144,0.8300000000000001
-0.06791983954176402,0.017930727459638838,9.843899988407445,-0.00771064742987931,0.0031341094015676545,-0.005373841000074557,0.84
0.011931303438037475,0.008562362845218937,10.006778133923232,-0.01355743682139999,-0.01121325167240829,0.004220153343969821,0.85
0.02756521101765514,-0.09962511328083792,10.073805970244239,0.009242498399527071,-0.0043743377340155635,-0.0008054593398849377,0.86
0.11311828834979248,0.044457580294721265,9.773737653932258,0.0031308807046215425,0.02479997097058504,-0.011515804498030203,0.87
-0.026542197023323135,0.04721659890690951,9.740749030181606,-0.0002505944531957472,-0.0013221644264128569,0.00013681505432055002,0.88
0.12852921511800547,0.07747440557102936,10.057616719477837,-0.0023760597316690745,0.02480568569188919,-0.0013394411878822146,0.89
0.10406804580137655,-0.007243175171060973,9.75843742395996,0.002217948929598928,0.0031419889222756114,0.006369399789198921,0.9
0.018435940261020713,-0.12025282862105952,9.775065092207866,0.014688897144142194,-0.014296504794573221,0.015559383711624322,0.91
-0.09369829248299749,-0.07257833274854426,9.896132499660528,0.014080236619518401,-0.007038623332356593,0.012679310335763656,0.92
0.005654344705953392,0.09767467756899592,9.843533057447244,-0.0021972687895780553,0.00560621297368326,0.002196971201147447,0.93
0.04765753739957393,0.12929868460903124,9.721380481174494,-0.024598590441570044,0.016168310134003307,-0.000530079946341732,0.9400000000000001
0.003332230584494929,0.01483079014118728,9.741973338003028,0.001148927135463055,-0.001146147488387698,0.006618149018140033,0.9500000000000001
-0.0034986828514773603,0.08773022635116712,9.657849672992699,0.0030525090867379212,0.007251386387290717,0.014107596706189674,0.96
-0.0844724424717403,0.10658611605638463,9.740903536291523,-0.016957431317928425,-0.003938251619461692,-0.002061306044485451,0.97
0.14996444201026435,0.04311024179403403,9.852105644612926,0.017407975682292205,-0.013339029755878513,0.002416875480371485,0.98
-0.030615761224212404,-0.013878074468734403,9.59663864561711,-0.011529047970438182,-0.01056065422001237,-0.015685528038189886,0.99
0.08668737365447207,-0.0043452798818005844,9.764830729410706,0.003869482307798873,-0.010791732403628471,-0.023615246012695695,1.0
0.23236194309599123,0.17334156366077258,9.839043495276446,-0.01031796044735156,0.01610690326384861,-0.0036143220975209736,1.01
-0.0406229983378833,0.14200437696954923,9.851862156728133,0.0012861079931445873,-0.0034311093397390697,-0.005804723542565723,1.02
0.08535635900645644,0.07332546342223475,9.788317429147353,0.005210773809984276,-0.005049985927947272,-0.01076938647166202,1.03
0.0993262248627904,0.050121991077787836,9.586604308821276,0.008148611286087203,-0.006752151010348424,-0.006595505766161967,1.04
0.182293276784194,0.11244231257506568,9.79929489698039,0.0011231112966328166,-0.0010166345166172164,-0.009547081647546836,1.05
0.12142954508266211,-0.002207604790205525,9.932251150731748,-0.01578649967338883,0.022263474368170885,0.010736950610641728,1.06
-0.1129037153883335,-0.06448658782826576,9.934503673844723,-0.012013992287468607,-0.013544997570272594,0.0050032684753839205,1.07
-0.11764215036358039,0.14615734660372956,9.724483599914684,-0.005770538725486742,0.00012242457582736958,-0.009420835992228534,1.08
-0.14616379708266933,-0.04816603943525136,9.896495560681764,-0.00030016919895406354,-0.004942739662725253,0.0017798001217185044,1.09
0.039928838030798774,-0.01843792695187609,9.654497380961343,0.0025809132660384567,-0.003150656725035928,-0.012864799493183627,1.1
-0.04595504671019976,0.15326237204608273,9.819537149572108,0.00886416424616291,-0.003083022946133694,0.00030199041701244023,1.11
-0.032283101727314543,-0.1453814810249631,9.783423327237077,-0.002425299856145075,0.007893520098571544,-0.006498457388348325,1.12
-0.018769890434848748,0.13405304904523865,9.7297950848352,0.005915025412099598,0.018008667118597405,0.02012272964825963,1.1300000000000001
-0.09980237446418051,0.20466798337255743,9.818642877593401,-0.00458183742848363,-0.018100534036325864,-0.005778825827430042,1.1400000000000001
-0.04134065334115336,0.11731808986207382,9.764756803719347,0.02731737998797169,-0.006864254076728126,-0.01855527295879311,1.1500000000000001
-0.03788112898000907,-0.14677619735868808,9.664009061254992,-0.017958110088518546,-0.0013906738171327044,0.02071658948633532,1.16
0.03494707615576489,0.06055317662551124,9.880257736686403,-0.0011114876375766085,-0.00046416379903532713,0.006072760863477216,1.17
0.009769079292902421,-0.049588844157754185,9.941369434324885,0.00809589590690798,0.0036476851412690966,-0.005631961257914247,1.18
0.08306211649227795,0.02095460880171557,9.753139062243918,-0.001021706254769721,-0.01115863027248852,-0.013546836476240694,1.19
-0.015763774954729866,0.037724482702905265,9.784309479530997,-0.009194068879517117,0.001113331950626589,0.004837344924736528,1.2
0.27302114751078327,-0.07827231989750494,9.901106265893324,-0.021019497649129148,0.008146584914643708,0.01035045111636696,1.21
-0.021448982098771562,0.0680974478100493,9.714143008655382,0.0025309881871997853,-0.0005112812500594064,0.013481207749048247,1.22
0.08864393600845764,-0.08907595562420767,9.924377164963067,-0.024303144041026386,0.007067417088331627,-0.006715669410976775,1.23
-0.21403566106981486,-0.021421797936800283,9.771688567161009,-0.008305069579766594,0.019443710470312525,-0.0007359339798275947,1.24
0.020500675452990523,-0.06069217609507065,9.840305262883513,0.011133086295592277,0.014763480646071638,-0.007671995062876821,1.25
0.0776972606687569,0.09185226358155954,9.846919701042292,-0.007733275095235798,0.0016210600758136526,0.005261118494756221,1.26
0.0031790009731446135,-0.09008811317256116,9.933347647687263,-0.005657194288174511,-0.017782254552688993,0.0018198841512253976,1.27
0.033442948723979536,0.034588213526536835,9.792876571622449,-0.012659907573943698,0.001260143883392906,-0.0074638915605995315,1.28
-0.032601945438444226,0.13958260386357071,9.90858814771281,0.001289827925675603,0.002923044871227929,-0.010012379137243541,1.29
-0.09824570235901481,0.046685793167863775,9.812937055723413,-0.011275469537977461,0.009562233915866832,0.014110571051708045,1.3
0.027570584720552932,0.11069707279276993,9.820975216855063,0.00223532069767791,-0.009860215105967357,0.005943056878374289,1.31
0.02257417498576436,-0.08691901197608169,9.656492519204717,-0.006145294941999081,-0.005122052384593198,-0.012859361301358936,1.32
0.053251637643612626,-0.06349679939955294,9.762762585786506,-0.012092210568343392,0.00013272550754160912,-0.017437339908837408,1.33
-0.0013806464574540962,0.06092107404995976,9.958603850699662,0.013129540246334651,0.0016683357180398584,-0.0048979003092643626,1.34
-0.012672339642816284,-0.006714087106246535,9.880446126442974,-0.012360299787850623,-0.019582920054966705,-0.013076028636157795,1.35
0.11471277874732107,-0.023959440960464665,9.7780596352554,-0.009201770903807107,0.0026549956780687893,0.012936833234443938,1.36
-0.010545406528362888,-0.066499581726351,9.78550664967342,-0.0013657621641260922,0.010297042706459088,-0.01392567747537258,1.37
-0.01674840654588514,-0.01555087105010846,9.936236169959292,0.0010774863494947137,0.015843564709808404,0.006953751532021795,1.3800000000000001
-0.022037295379348662,0.00445801253630876,9.897131632198493,0.00411637008446109,0.004621498775276543,0.011150110007937504,1.3900000000000001
-0.014819808912621297,0.054591652841073195,9.823285306632924,-0.017532425118726044,0.010188218645814925,-0.008514693631142071,1.4000000000000001
-0.013784958761339958,0.0023326345664348353,9.708102795872794,0.0008131952627460865,-0.006828991632801046,-0.007867486851892504,1.41
0.003445542969221864,-0.1560534066742415,9.968615367444286,0.003407860779521501,0.0015114482670141576,0.01170361279545766,1.42
-0.11165377875820302,-0.010975148098858929,9.84455062873286,-0.013024409942068736,-0.0007930173998049699,0.005511984492608228,1.43
-0.0127700127111893,0.285766543300397,9.754110551916686,0.01671290788940663,-0.005458254341947548,0.00494346967256432,1.44
0.03757985473356096,0.05922509347510533,9.731369890713891,0.0015505932258490433,0.007324869602014183,-0.003721731506969493,1.45
0.16471769419360116,-0.0456398026491872,9.826044755244956,0.0012934204639473102,-0.0016972704797166864,-0.0068318890405845755,1.46
0.06410546097427669,-0.11962908227264268,9.717763210746261,-0.007124629849493858,0.006774870685273743,0.00893694159386015,1.47
-0.10575330836759121,0.011419302023663598,9.849939910495852,-0.006686561191399305,-0.007592638351827944,0.012190362585341837,1.48
0.0004597546569589479,-0.05498594789812125,9.963098079290722,0.0019813433300866225,-0.01792205583943265,0.0054832646745081376,1.49
-0.1019653501562503,0.03941476635358873,9.802787654297006,-0.0009605751174111512,0.002660120862457567,8.127397161271949e-05,1.5
-0.08735099680057047,-0.05564322468768819,9.772633098042448,-0.013182334140765696,-0.005246044127374168,-0.01056601979055024,1.51
-0.13144448065374742,-0.17191824894803004,9.841929967714098,0.004733354548537229,-0.00405956965757975,-0.002718237395928629,1.52
-0.13419773517983166,0.09774411651945372,9.829564256847322,0.0003315080113167171,0.007171745114629006,-0.01045878865296225,1.53
0.2355113545515064,-0.09728727136546685,9.980812927968481,-0.015218298300672435,0.01637770386262311,-0.0080467128791972,1.54
0.0598659666722968,0.04533946866657729,9.77821822939736,0.005320422731414642,0.0034862014396552883,0.00116542445977722,1.55
0.14573286465718535,0.09303741479507448,9.900902682669868,-0.005265434022055403,-0.00802493236640833,0.0027103902590200728,1.56
0.20659430800227835,0.11842723459926813,9.762313562761143,-0.01328108936906342,-0.031091074095492943,-0.004959494613623725,1.57
0.016754791099897307,-0.04470581585346868,9.916925817171178,0.00481795433170664,0.009736235304473505,0.013363130671953057,1.58
-0.04369375240926837,-0.09838396830181394,9.988884216107841,0.000159569636954094,0.006982152950389699,0.003362990496668857,1.59
0.05836829763097302,-0.05385921661641524,9.8320694214239,0.003980175649893762,-0.007298398594587823,0.006795033743282064,1.6
0.12418358200768498,0.051722922504919916,9.81638698153265,-0.006976285193544956,0.003297028754040666,-0.008376819057697922,1.61
-0.08914180270923383,-0.031113378671012222,9.884147750366456,0.01649035203184283,-0.008310693858484229,0.008708763660820344,1.62
-0.019771624493334777,-0.16863472139119476,9.847922308472015,-0.017850664475831467,0.00387404625175182,0.0032001139898331305,1.6300000000000001
0.056511598478742944,-0.03417156759056157,9.648696950967283,-0.007572352903053617,-0.004187705079013815,-0.013110453091627505,1.6400000000000001
0.13885685805978457,-0.06932272026930802,9.630490546140296,0.012741730832966714,0.006958827419778332,-0.011491979866288828,1.6500000000000001
0.02971579714037518,0.11157789737730349,10.040115984862599,-0.017073507612498772,0.009226056172288763,0.00698797903216435,1.6600000000000001
-0.07580121776049362,0.03824635759565981,9.795269562329121,-0.003471176526242802,-0.008529811554242412,0.006378711162447449,1.67
-0.17040541736314338,0.015140696809589588,9.730596052353528,-0.0108516143891883,-0.008501727896031243,-0.006389157011642678,1.68
0.019694387294670365,-0.01653678701587453,9.884007414553382,-0.021171117823915113,-0.0032628110954992548,0.01751570939035524,1.69
-0.09961693980310267,0.05618134493975452,9.826615641560053,-0.005247696968143521,-0.002238687455830925,0.007897018256056581,1.7
0.03365292577769847,-0.01683857093254156,9.83205592600048,0.0165152010453151,-0.001424585570254345,-0.008265500480305141,1.71
0.15114351479431776,-0.0690840604669635,9.593643652367078,-0.023384011467344645,-0.020300206782807834,0.009617977910394175,1.72
0.0668450349505627,-0.09090499895365933,9.84967530774894,0.012314583180479515,-0.00344635864192158,0.00588055750776263,1.73
-0.07912168051997748,-0.04693635193904949,9.850425619800024,0.01683888514038714,0.0034044820559503003,0.003345141581275008,1.74
-0.022501911349999335,-0.17217512884402345,9.64685026443791,0.009304133154888516,-0.00016977754196939078,-0.011564656380660412,1.75
-0.13884953946359954,0.11779993075785869,9.779022963352196,0.00041770678622176277,-0.0013709690927301754,-0.0064101869172855834,1.76
-0.06139398643372351,-0.0006473670122807254,9.894923724505258,0.010608774056496469,0.007903221879743023,-0.005916042749630565,1.77
0.17235476391748325,-0.13317677518519055,9.816105307017434,0.005937043858320038,0.002194018501060046,-0.0015468623781629027,1.78
-0.02886826251707892,0.16511412400962577,9.947292862201026,-0.0036469642946983373,-0.008827992034282637,0.015892696964794083,1.79
-0.09109275611607864,0.12338529397396514,9.649406709058306,-0.005265769735839374,0.004794454959314069,0.012390020226598797,1.8
0.058571144573482406,-0.026335947800292688,9.768888758601495,0.0032759139213514566,0.010370524768433469,-0.006919754442886878,1.81
0.07590792783018914,0.06766611088649421,9.808555503902417,-0.00660809612988666,-0.014928835993645521,0.014125864226260472,1.82
0.12376356055937775,-0.08866366340275139,9.69695169573264,-0.008910260017196057,0.0100176269568075,-0.013854126671760692,1.83
-0.018188880028892105,-0.11283223050811045,9.81892189514831,0.0028046641709904853,0.0030627304454963634,0.01628069268194641,1.84
-0.1281351228505297,0.15352940884359878,9.805714814790942,0.007464182658218172,-0.00925796145629258,-0.002439260840749556,1.85
0.053329677526674404,-0.09288429327338923,9.80845542485767,-0.00686322986129476,0.0020529462535504766,-0.000656058907055407,1.86
0.0419543523186723,0.06003916405114386,9.888960634339032,0.0004338866512620238,-0.006933362509701081,-0.0014656132932274386,1.87
0.006164963768582524,0.08657775314066064,9.663785430357304,-0.013378317892196847,-0.0026392453013681185,0.007586390952315772,1.8800000000000001
-0.03457662326094814,0.024189304007312076,9.946897636872826,-0.015058890866887035,0.0028044863979887658,0.0037259197400998263,1.8900000000000001
0.02612873439913976,0.011588522104600355,9.808283988344058,-0.024488764458213668,-0.00907557429690768,0.0013716033069141368,1.9000000000000001
-0.15142393707054322,-0.18155349379149552,9.91308976769243,-0.006974832595128187,-0.009682333091996067,-0.009898104668310221,1.9100000000000001
-0.020075046779367334,-0.08990094353740186,9.910130482841696,-0.0027175437670492416,0.020861446846478275,0.012638467072403334,1.92
0.004473690845727755,0.05654937983356067,9.84501102866337,0.01338696008076343,0.010229872575099575,-0.007680267870956264,1.93
-0.2392972287633203,-0.01927649825304521,9.925202876963134,-0.01232734015904765,-0.017764578639990206,0.029671459060451728,1.94
0.16526611071092642,-0.11427042685840834,9.731072913933682,0.005399332716118507,-0.0027203793413513567,-0.018537743178245886,1.95
-0.18228638865707597,0.1908319065862722,9.82238962339111,0.012112727770911108,0.008357192916961421,0.004845792453059751,1.96
0.1305437532189032,0.05502606707356265,9.921741179957088,-0.007593449008772507,0.004417991034227831,-0.0007714830058008989,1.97
-0.06529035552908788,0.06496115280443732,9.870671295724271,-0.01662468447805027,0.0004995942158696136,0.004338812924437508,1.98
0.11403348383332208,-0.061701134263976366,9.996319242932502,0.009029618655890394,0.004290626828627958,0.010451400495136437,1.99
0.1550217710928243,-0.04971044283763129,9.808726666732511,-0.021608398838488627,-0.009721964609743462,-0.005370614118750738,2.0
-0.07688752171470359,-0.10683761864060622,9.896233218427211,0.02858614167137171,-0.009763099337536505,-0.007132053484637734,2.0100000000000002
0.0005809069572221455,0.07246598654602816,9.930343929086126,-0.005740988954035128,0.0023588787327213727,0.014332176612961125,2.02
-0.005974867611941311,0.046969841199681665,9.833606070921622,0.008932843768760867,0.01694705682554543,0.0019895622345675874,2.0300000000000002
-0.11567373755936881,-0.04773417588972392,9.807142274183532,0.0023963080083452353,0.007520839908281197,-0.007968712275014757,2.04
0.05321613562407295,0.010057256689221963,9.832544329453127,0.02332430024949574,-0.007239506234761177,-0.0063533244193669245,2.05
-0.11407604020874891,0.03111982195023144,9.801670537455987,0.011530312520984447,-0.012908810647389747,-0.0046645891665053184,2.06
-0.06613320680555208,0.07152462836614586,10.007804815010104,0.01264952787013334,0.013850498221687432,-0.002389332779535735,2.07
0.20989233317576284,0.11995499882990523,9.781523083608546,-0.0013821397006323066,-0.011080085196872551,-0.013112270322871572,2.08
0.047233920526106726,-0.0983093870229225,9.658871352892426,-0.009889014349796766,-0.004325383027543442,0.0005364325446430498,2.09
0.11328755696520297,-0.06627288642267642,9.81412417018956,0.005119645846234532,0.00026856537363843894,0.009512011884932666,2.1
0.06015103206486967,0.1954689475289924,9.793961679235412,-0.002987049002581823,0.01524720179405029,-0.01336889164085145,2.11
0.030626030864392154,-0.03901437205300304,9.565745095659619,-0.01315147901062983,-0.011704265185235157,-0.005363565942779751,2.12
0.005549431744763099,-0.08987636577886537,9.793719473997582,0.012344795972190735,0.010851857287426367,0.0013391716596447168,2.13
-0.07810229890240164,0.10802065292703811,9.931054108340689,-0.007721983290887969,0.005903945375057577,0.004932045147125307,2.14
0.034985222472682424,-0.09470704743373665,9.876696253368477,-0.006043407395482397,0.02077095237534383,-0.0024555682042091556,2.15
0.09872873461260175,-0.013830345105382336,9.869370801836954,0.0008218346345891744,-0.00948906959255971,-0.003690322228832801,2.16
0.03367663066098638,0.29580492475564385,9.862780012506738,-0.012276300240406284,0.02291734009424191,0.004151473127363496,2.17
-0.021167853074827644,0.1642007148094146,9.766606102611311,0.0006634173689833138,-0.009734237650680337,-0.009728209264267934,2.18
-0.08916444753500445,-0.15286495211391082,9.753625016071007,-0.018402283373415155,0.0019526660385229396,0.010709919017845633,2.19
0.02888132415255671,-0.048879265112825795,9.7050149943695,0.011643817182613618,-0.00871962106044881,-0.006250833094270395,2.2
0.02862130429274159,0.009091946012634395,9.959786818636918,0.014426036246832932,0.012061862189740433,0.007522010868000921,2.21
-0.07012102438017606,-0.07418246289890625,9.85655747370112,0.0017153087821015073,-0.0014892065502981147,0.01254870760021978,2.22
-0.06945606385216875,0.060226633059427076,9.744245555747726,0.00858450792381863,0.01194388276742953,0.005795698916482897,2.23
0.10436131410958863,-0.038339384775415,9.95720766800586,-0.005283274101791072,-0.0014282328841001867,0.003920779768360226,2.24
-0.08067061682853217,-0.1336283887831576,9.919598947256542,-0.016632031391590453,-0.030737127191708527,0.011994194122943912,2.25
-0.012092289907362965,-0.014647569462368129,9.727672588267076,0.011044679098330549,-0.004771266663124923,-0.0051395203292245555,2.2600000000000002
0.14004160025863818,-0.0352063358030257,9.777464614958891,-0.0025585703170385157,0.007763384801677959,-0.005780370165333375,2.27
-0.02902694549147221,0.009301054608808175,9.779663819926311,-0.00337690931577105,-0.014883321895013875,-0.017940514652171894,2.2800000000000002
0.0114924134811198,0.04645459856874425,9.684102297324756,-0.003419596952884154,0.008879289558771325,-0.01553265932599571,2.29
0.05096442251641428,0.00521685585326532,9.783220005442724,0.004229377914207264,-0.016979739873781267,0.013401492654699245,2.3000000000000003
-0.06834493959668007,0.04859767173156307,9.655871396918464,-0.01993932713590475,0.0035702353188227605,0.004538439526901382,2.31
-0.04793553260848805,-0.0012507182515078402,9.995253544394156,-0.014695531578624054,-0.0027865983504581316,0.004987588900692748,2.32
0.12267272930701541,-0.018986999519249842,9.757950791175288,-0.004816900788366715,-0.004559261197635358,-0.010003006897457454,2.33
-0.052855098264038974,0.007157141381938276,9.629284604096705,0.0024114806985185335,0.02298229733590638,0.00202706802077634,2.34
0.11987642739441312,-0.022145789022759963,9.904269218157562,0.0015055244759306946,0.013550176872760058,-0.005226775604315741,2.35
-0.020871594126733728,0.015409598772149598,9.944805697948068,0.0010801481319253955,0.013487610643154084,-0.003211035670514306,2.36
0.0029601463179813638,-0.04141660302416406,9.821856315953012,0.0038238339029868923,-0.010194930188435838,-0.0014476243180468803,2.37
0.19604731946224535,-0.139964341700184,9.786735758304017,-0.012163315539484052,-0.018049633525466784,0.003782386641097834,2.38
0.049339471559578775,-0.035504958743390956,9.932854682653682,-0.0009666609767499251,-0.009711576560012728,2.547110847568288e-05,2.39
-0.09933889227104954,0.05379093087396292,9.788340542623152,0.0060569923816023484,0.016838029618847183,0.006501699661551605,2.4
0.030347815672552587,-0.06338505503625308,9.760012839645396,-0.010709043257798463,0.014403522383520079,0.000876199265211294,2.41
0.08004864078022411,0.08366801799102304,9.657589659460719,-0.004227867861433745,-0.007597966191169356,-0.008909475596508612,2.42
0.0032604176419648054,0.07395393346575534,9.755657757063,0.0017056406571281703,-0.00026034437978097395,0.005182805886371126,2.43
0.07038427404169989,-0.12964049706165118,9.953630323508103,-0.0022076497193252204,0.005761257623938896,0.0007744734282757877,2.44
-0.2608458440619735,-0.007727450756842631,9.937862406264315,0.0029001751312029743,-0.017782226393000075,-0.012271597094469658,2.45
-0.0024518128607039437,0.13405087377138436,9.827490127462044,-0.01389202054046781,0.013201535872028705,0.0017983161740536434,2.46
-0.009467410534658865,-0.05186723692629685,9.895030068601839,0.0275531052990598,-0.01655329633985864,-0.0035242507365289572,2.47
0.030116839194901525,-0.13516694225294554,9.805831662640182,0.0051038828024990955,-0.002755350027351414,-0.008992552033977618,2.48
0.0809911241986393,0.05736387166111554,9.932645879254212,0.0023538252189546096,-0.0008305257445947486,0.004676637929613095,2.49
0.012546252988735674,0.05304326963795339,9.84124439329502,0.007544279479323538,0.011091975768983027,-0.0024247090349823145,2.5
-0.04529680549021441,-0.1517064753156988,9.940924430135803,-0.003280610033935165,0.0002920568306408913,-0.027124674910233862,2.5100000000000002
-0.000570624801849621,0.09582444816652046,9.751152068622588,0.0020984028425587685,-0.0037314403425504346,-0.002919918913444636,2.52
0.08685583749395419,-0.05936698540014307,9.92542371042158,0.006235931151787132,-0.00600070360425001,0.00526173866976282,2.5300000000000002
0.12961885857342642,0.1266580087955341,9.882926096814503,-0.0018023551607316414,0.022410421112574148,-0.008540867315112373,2.54
-0.1332560233927855,0.10711970449593496,9.74356934811618,-0.0011081499637018261,0.00557838371433545,0.01240449570561752,2.5500000000000003
0.037509513524843566,0.19795769992387474,10.025007972996452,-0.0018704312802532866,-0.0097139429915958,0.0010641418345457214,2.56
0.04434204453267629,0.22828280622123956,9.816854262430615,-0.021406631367979285,-0.004153115924299363,0.01576100741308909,2.57
0.06808969459360313,-0.035172287155322855,9.66329286565195,0.006925173401247074,0.0072859291134849315,-0.010266818941371563,2.58
-0.18525859960542557,-0.16519697644413756,9.739705216556644,-0.00014560520317983798,0.0006988594265518293,0.005654927207784597,2.59
0.1735286031958857,-0.10982395471534614,9.815115998852994,0.00775089703022666,0.004039482484417917,0.002302175886197578,2.6
0.03672159641545634,0.06434687332438978,9.63381601984541,0.007570645305390611,0.008743792542565902,0.0059402603924625045,2.61
-0.024515152780867907,0.036702084724322535,9.709886863315909,0.01462384179822915,-0.009707321323643377,0.0052486672959065174,2.62
-0.17563557871760915,0.051419364209371314,9.839937991852556,-0.0057960418999184705,0.011408226654981759,-0.007066653485787916,2.63
0.20991216662478607,-0.09298805531658602,9.83245795456911,-0.006027282610438642,-0.002349647605054934,0.009028203396429848,2.64
0.03645505347957272,0.2007645378782057,9.746649010464557,0.011702042017639925,-0.020792566323463376,-0.002579549821185406,2.65
0.07551163991390412,-0.0892581478135896,9.91874801159664,-0.00962786937849452,-0.013924119130133623,0.020255703735569154,2.66
0.07631019711634984,0.10885278998392034,9.676136958259228,0.009091037943453078,-0.005204114571011517,-0.005398143128233807,2.67
-0.01257209798351802,-0.06396452895419394,9.830519353457065,-0.02281238808991163,-0.009830656909693083,0.01088430960872624,2.68
0.023393352376425473,-0.0651435854706683,9.727883535974,-0.012168565859327476,-0.004660767564907853,0.003876449342033289,2.69
-0.05133850228114726,-0.06271191990625248,9.805288063853443,0.012911949232619424,0.015480594649105672,0.000947340030067496,2.7
-0.026438320463509465,-0.149548436947913,9.699095812147734,0.012127201135818512,0.0008049197213698603,0.02204780005589601,2.71
0.10336834980975942,-0.0977548182902464,9.84891203131198,0.009670222070422169,-0.014739081017682088,0.010527741701376112,2.72
0.0022275964689016086,0.01525365676009376,9.787377624832866,0.001419305864770707,-0.006398254466413731,0.00732387699440087,2.73
0.014620908956084583,0.008695053827431075,9.708439745266718,0.0032202973924416525,0.008822465925465381,-0.004365532870475974,2.74
0.0939619126260473,-0.008768454902753754,9.622734256857512,0.006552772103466448,0.0014625618614844049,-0.01895004175669204,2.75
-0.07393609602455263,-0.0606226865089733,9.714639736093204,0.005133438102372799,-0.015504999446423242,0.006239854159318536,2.7600000000000002
-0.11028073299591752,0.005475884889899495,10.120706813257025,0.0035963320393550724,-0.011938476142944273,0.004393601969429676,2.77
-0.1410658641889135,0.10371109005016395,9.835970478165839,-0.008664709007411397,0.008261553838815078,0.0036737228703344997,2.7800000000000002
-0.312997859493195,-0.045499450811806244,9.668399242158268,0.001997085907267363,-0.0025938325254814265,0.013270374371225444,2.79
0.15263923458599843,0.1367060426106735,9.639104903036301,0.022336314611420147,-0.006180679015605278,0.015611717682717983,2.8000000000000003
0.03515576865227218,-0.08361480583908297,9.7095513628339,0.0016111111590410808,-0.02162066936974292,0.006356257577957444,2.81
-0.038819278950259856,-0.02647732233112145,10.172115247157038,0.011972384268311643,0.0038065507089822277,0.0017637988331762162,2.82
-0.10952186384337331,0.010547346766003177,9.402892666866967,-0.0175382025982466,0.0052785015918253575,-0.0038905275829053394,2.83
0.0007191573655167051,0.08706259225441818,9.89797792517458,0.007258433049337251,-0.0023598321446991924,0.006104863892993499,2.84
-0.056594564041787934,0.03464190020152889,9.872439597720517,-0.001204650991301041,0.004099706390116151,-0.0011121081779584925,2.85
-0.14918469017104113,0.05568362610225365,9.835310522467946,-0.00041330773659852314,-0.017118555034974864,0.001634867879424554,2.86
-0.04874456685558242,-0.07149292833739866,9.590710898742051,0.0010879394861238012,-0.003897373261570904,0.008709601265466091,2.87
0.17603033490450237,0.03287799412594713,9.945361232419051,0.002784502694057094,-0.018190457788539904,0.011908984089486447,2.88
-0.06316429820392412,-0.07436376186632117,9.87592870643166,-0.00392179905634658,0.00640461324335774,0.01883613256689298,2.89
-0.1991185217826395,0.003097347505482228,9.890600691693086,0.0010386246599593742,-0.005813482449297846,-0.0007760372336770852,2.9
-0.012708946079433679,-0.07905120398600723,9.808774708876534,-0.003233024654824998,-0.0031974495671670397,0.015455299025775106,2.91
0.014120177049381254,0.06657905725162243,9.859328160993083,-0.01621989119013932,-0.010719247166210729,-0.007057618755952424,2.92
0.03428843631722727,-0.1475851086956999,9.746857660847079,0.0008721260319273072,0.013676268596020343,0.025018614229906273,2.93
0.07105868404441008,0.0827583420857282,9.773456996511932,-0.00855578190559026,0.0028182939273976447,0.02414869332058051,2.94
-0.08501758381202301,-0.11094660473772851,9.742174683763055,-0.005487503896138195,0.007114676576037397,0.003927322880702917,2.95
-0.1461685253329313,0.12028140786981759,9.666143343880334,-0.00445927303948293,-0.0060210083047676265,-0.008971893903462935,2.96
-0.12840702685948732,-0.12207866120626076,9.79331765992881,0.004275599621934895,-0.013870403672422725,-0.0031560220337484507,2.97
-0.0984035901412873,-0.07678348130850737,9.637551452032401,-0.0003734313196339107,-0.02061212661672788,0.00261861417038878,2.98
0.05455543271703818,-0.02771104734844696,9.728878834232333,0.0030321962544197136,0.0034451010764805293,-0.014636389273099992,2.99
0.031600040885677326,0.04293879715942621,9.8250832975395,0.005924964744458459,0.015392245023040744,-0.0019431483668142899,3.0
0.033590079171980855,-0.04697225981765274,9.92765008444854,-0.011581247039436644,0.014078862174284714,-0.006696711503843926,3.0100000000000002
-0.04771135758479648,0.05903033465098853,9.900167796251162,0.02134999434583838,0.019806636586080305,0.0015712931976031733,3.02
0.03972462988557595,-0.057675958599748535,9.887860170983553,0.0029629036356828586,0.009675542445682823,-0.0027135798425660536,3.0300000000000002
0.06361080734266203,-0.2506166668564824,9.64294227841657,-0.008371766416167775,0.006656475216172413,-0.0036591876031793996,3.04
-0.04106262988356472,-0.015593090566537788,9.973571822905093,-0.0029223033238709216,0.0005155740674556775,-0.008480489422433424,3.0500000000000003
0.020691922354922607,0.1973190692990337,9.777033959896754,-0.011045503310610763,0.010315014199539682,-0.006244327379708737,3.06
0.26259807113466965,-0.018973538644702827,9.826013657343811,0.013804894617843988,-0.017485183101352053,0.010227553428545057,3.0700000000000003
0.05792640989032946,0.17893573617380143,9.695562490432586,0.004901329548821004,-0.004295775047847234,0.0006389227758759776,3.08
-0.08133264131272297,-0.02832569052723424,9.974487306583455,-0.011668460018163008,0.02817527354698928,0.00068074084644788,3.09
0.047205510131912924,-0.1401138804548475,9.845150663116465,0.0225508424817009,-0.0014818083196774128,-0.00022767511803775559,3.1
0.0011359070394448216,-0.05402559942532226,9.898296368699448,0.01742698969971296,-0.0029017421912512532,-0.014102888199250645,3.11
-0.07274396676403834,0.1376714316933668,9.901393006241348,0.001174846217575693,0.003867456385925578,-0.008356544593101575,3.12
-0.06532756562002773,0.013751394855646146,9.869085043291593,-0.0013231053466138299,0.0012992400659666554,-0.004888403375320212,3.13
0.02933590995805918,-0.013904490330080219,9.987699271305123,-0.00632650399354216,-0.002271925109226294,-0.012718666379356381,3.14
0.08472971172002747,0.04369212166122195,9.873206423872332,0.0009713993162244612,0.00648932457152594,-0.01372764443661423,3.15
0.003392057629149442,0.0692172791665643,9.725992096337356,-0.008848636293478276,0.001996682532970701,0.005474874204721615,3.16
-0.03462550490715704,0.044163038815591776,9.793091943831087,-0.001953443336772619,-0.00019939140373997558,-0.006888187086360225,3.17
0.021770596939738717,-0.13048533920080596,9.76487688849272,-0.006402295375910313,0.0034161508192484613,-0.00858551015752384,3.18
0.06612730545963051,0.04109571135048605,9.875034549436384,-0.0053403674588008475,0.003641951284740063,-0.0039952603614833975,3.19
0.022590161644719886,-0.03471342911471974,9.905217754565488,0.003494254096730428,-0.022923991918667456,-0.008715457027208374,3.2
-0.06691777509136299,0.057062225034781144,9.935966257638443,-0.02525953635334807,-0.011426461115012323,-0.004488070892054878,3.21
0.17778362053261001,0.17796319536218083,9.736743761448254,0.001624240897864453,0.0013864644293267894,-0.0033586991685195613,3.22
0.18625042915490048,0.11317330659890723,9.765907354132839,0.004986340327618476,0.018151617803656643,0.004103581183065012,3.23
0.01909930088092869,-0.1582918349881437,9.827914397579795,0.008419073484109647,0.00035366720009366923,0.005501311718698803,3.24
0.0772427794146339,0.0543794460336611,9.726133972541465,0.017522664123702007,0.01779000548943346,-0.007497402316186859,3.25
-0.1254953825862811,-0.01223876185846145,9.81149360897591,0.0057701670439386475,-0.00941007763219422,0.010340160421790742,3.2600000000000002
-0.055131538648050364,0.05602621601721702,9.867466268699223,-0.02080050636581727,-0.0030041607027381,-0.006425569619630391,3.27
-0.04608172723012243,-0.03677291727725996,9.865713802647482,0.0009032238658870356,-0.003387842566543163,0.026305528819821903,3.2800000000000002
0.14049475100635095,-0.024149040738583524,9.89929259248913,0.012309907420446378,-0.008561061190097865,-0.011757677691257002,3.29
0.033824033489521524,-0.1864229893012711,9.810081762958001,-0.0016386784525751358,0.0038834191820270405,-0.021862843750022846,3.3000000000000003
-0.03863778657807316,0.01900641290701345,9.859535028303647,0.006785129090364654,0.011609170826482416,0.01226731544366591,3.31
-0.1304044627734405,-0.08025513364208543,9.887292866119976,0.0011347147209033635,0.007744117008566233,-0.0035999999272493905,3.3200000000000003
-0.018690534002815482,-0.07041954773857528,9.812248999830318,0.0027762567337558004,0.021029321897537714,0.018025608663431496,3.33
0.10344520333878769,0.14537903755095224,9.7069723828295,0.01397882024584142,-0.004487793266398734,-0.003327879517880308,3.34
-0.06768887454919048,-0.012879107025911763,9.879074351301252,0.0004235923570238415,-0.011181037507560691,-0.014600617854954213,3.35
0.0007926886951729589,0.07455219846940032,9.884806576084703,-0.00968936758513162,-0.0025851035886495237,0.009056095076806632,3.36
-0.16904261323288386,0.009850273361964737,9.659599154840247,0.009534417527233897,-0.0016285268175147399,0.006777070726852249,3.37
-0.00901302430500906,0.009524412756950384,9.76089293465402,-0.010323028250834561,0.004765679284257562,0.002270922471511807,3.38
-0.16793936881723212,-0.08239338030510192,9.853032217952178,-0.012299447022076563,-0.013718785154249227,-0.003989382448107951,3.39
0.058410443347335375,-0.04454665132385337,9.801314310458263,0.001859850043346255,-0.007995244650894328,-0.019253618030458143,3.4
0.06351331173554381,0.08637291887887666,9.685649862903526,-0.0018615366966376818,0.010580534645514672,-0.020706943971024596,3.41
-0.026056122617002388,0.11970217224141302,9.818946666261056,0.019286188055837917,0.003124385755218551,-0.004934658674194935,3.42
0.03471987714388731,0.016961931161445936,9.82152836789422,0.0017740599672998454,-0.002737090211784431,0.0026567529056925154,3.43
-0.0806076315744218,0.0047593627089637545,9.718134315026116,-0.0030752175939300283,-0.004841759298086213,0.019107949455975676,3.44
0.10420086183132989,-0.0098738627857202,9.6735941875056,-0.024970552771421194,0.009142405260145843,0.01179087312069294,3.45
-0.028979704249159823,-0.17335272907060895,9.883316855315561,-0.0003594575044036517,0.005427571860689504,0.0017096538254548288,3.46
-0.05402074576995104,-0.014313468918572977,9.469769059592284,0.005828793764370906,0.019594035688715605,0.02370792122084524,3.47
-0.15126907071390205,0.21268695229111,9.790674570999546,-0.001056425829243295,-0.012429138868349848,-0.013420371822039335,3.48
-0.07189213039710082,-0.11216671711290074,9.911294774916806,-0.020921544614133612,-0.014522036018917142,-0.007272885274190138,3.49
-0.057775833256434206,-0.15526804608914543,9.612996258747074,0.010391878554213972,0.017865265045062816,0.018127444980166104,3.5
-0.07684890632620427,-0.10718490844579301,9.780885939145433,-0.005119326323867504,-0.02009626909102015,0.005161620023193533,3.5100000000000002
-0.16552056522570477,-0.026212331603816308,9.654736166014427,-0.004433663202816399,0.001412656755093806,0.0020629973465667657,3.52
0.018709581705276646,0.10530564013559379,9.743091200777119,-0.0048148913263485645,-0.004778450556145082,-0.004128903721606777,3.5300000000000002
-0.07800485349572225,-0.040508989707501386,9.896368477719442,0.000321220388073857,-0.006926954693376794,-0.002524005867902289,3.54
-0.0987984564038738,-0.04498890292334508,9.84751326503117,0.002123042686079264,-0.005899314997459643,-0.0007825725764666545,3.5500000000000003
-0.09730442478942301,0.09707816594631827,9.898810273538981,0.005190574139714569,0.00642207761764876,0.019171580649754515,3.56
-0.23786680523726625,0.13712514017030242,9.771695548257641,-0.007661434713816844,9.780137510466495e-05,0.011417638962005908,3.5700000000000003
-0.0237818108518843,-0.01086732599961411,9.783090406304668,0.013324564035295961,-0.007034594149276678,-0.005767703378292893,3.58
0.02348361799097182,0.0010626032477514238,9.892143464930161,0.02091642334822707,0.0057943745051221756,-0.005007032468847423,3.59
0.037175557039466005,0.0611085719652546,9.850949916407108,-0.00012487808574680688,0.0025740668226612185,0.016044240608127185,3.6
-0.004810530420647983,-0.10721475237260181,9.498471271976397,-0.007194685760766967,-0.014224330160352886,-0.011486854276485615,3.61
0.07473723874236,0.048665906298046215,9.807815608240617,0.00808498043060487,0.0053462681167443975,-0.0069607990638543065,3.62
0.036787128269271725,-0.15807218103540835,9.72513740058925,-0.012090804119898381,0.006822702737943632,0.020008322131872598,3.63
-0.021470524825560573,-0.07662510623168906,9.758693385430407,2.8637161918209404e-05,0.007469925139900447,0.004840577675272108,3.64
0.17350290259933362,-0.20370424618613306,9.765409917879015,-0.027323563058449424,0.0025718951583908033,-0.010140313483444983,3.65
0.10004305192877752,0.03603797386360468,9.754630596764057,0.0007090675601015734,-0.007666427061501475,-0.0012276498116837147,3.66
0.05198298243872862,0.16559560558233316,10.002259505719522,0.02074775807683989,0.004056289749032273,0.005579861641099685,3.67
-0.008954776568131014,0.086443115167595,9.700528151619837,0.0031723962443012633,-0.0045883329509924685,-0.0010528100277363975,3.68
0.16909480937264973,0.041070592740696556,9.718055534073763,0.006580129349999754,-0.009618134066160635,-0.005617177142845529,3.69
0.06342285890372566,0.019308599636487844,9.896366307228213,0.003698377304437513,0.002219389966428206,0.008730463927751675,3.7
-0.055253669286325274,-0.04756133851901656,9.7773499927655,0.006343492212988935,0.009407256031039984,0.0012697982887442739,3.71
-0.11924721333631559,-0.08721246994270317,9.758700890049543,0.00245969323316571,0.0005423393597679554,-0.006967567710172394,3.72
-0.04011877592884329,0.07033830977560415,9.859552093712278,0.0007823018365426289,-0.0034455330551664094,-0.020975092391520508,3.73
-0.13463875067784384,0.005883003413966713,9.789646957097847,-0.015364818897530025,0.005198380164066652,0.013792066217150463,3.74
0.017893024831202562,-0.02944079433976156,9.881660066854081,-0.0009905051841789458,-0.017692744039397745,-0.0027592580027417735,3.75
0.0075670307536987785,0.11146915475991133,9.754098595731435,-0.013409192788539375,-0.0057047482799128845,0.005711774907051477,3.7600000000000002
-0.17257690473551873,-0.062484291028043995,9.923142509670951,0.008563070549138626,-0.0009449450323119705,-0.01982376925737795,3.77
-0.042033563751705694,-0.12994845103613523,9.979352028193277,0.012100242720389141,0.007413881710683959,-0.006979508139453552,3.7800000000000002
-0.0850694897195934,-0.025202598585061547,9.77102620173813,0.02136202699316067,-0.00774176132975024,0.003401849695305902,3.79
0.02389013665639714,-0.004197936367364623,9.777738340324174,0.008728423791853693,-0.0011779338963272116,-0.0016898620103506176,3.8000000000000003
-0.19841616935743964,-0.08241277005794254,9.683221500816884,0.006840991093730223,-0.0054411911189524865,-0.010308464687293947,3.81
0.07730245153458656,0.07693159283367051,9.740019018193959,-0.0004683587286190076,-0.009958507841689562,-0.0015800469355466335,3.8200000000000003
0.032931649350077884,0.009026155352455763,9.779476916425027,0.007003472731888415,-0.003968419404899602,-0.011147552021606184,3.83
-0.011277133231028184,-0.07361204015869187,9.68128334650118,0.005403511239982006,0.000165817866025748,-0.007647000157616855,3.84
0.06878477723409195,0.07807159988006329,9.79786431312232,0.006712601702353337,0.002052239973716383,-0.01604026679725399,3.85
0.008609022981741706,0.07238055119407134,9.736489262087858,-0.016945354681298,0.006307675739271433,0.003570719381569922,3.86
0.015475084947089587,-0.006998493816408037,9.86987349317402,-0.008161836143615235,-0.0018314637457795206,-0.0032599014950677042,3.87
-0.09096385590193617,0.09458615886202876,9.8699201681804,-0.0004272112576542236,0.003400042688503448,-0.00145448226287032,3.88
-0.091805940339231,0.043431571549849675,9.8241124613917,0.012742211205661642,0.008218708284965598,0.008423028141001609,3.89
-0.06324693134586606,-0.08783095120195517,9.640049282185316,0.011332196710560998,0.004681592594215645,0.008957700866871435,3.9
0.17355889961714005,-0.28293667038627474,9.602320043379969,-0.00997686315812146,-0.0009959142433600852,0.01534028446311928,3.91
-0.11285100786656599,0.0945467388619559,9.66408143283549,0.026405295862676925,-0.0004427284946558529,0.019763369891924298,3.92
-0.011195610704284154,0.15972651455091574,9.594596111092983,0.005087265519113942,0.003172858085661372,-0.0054216742717037416,3.93
-0.03914051040043071,0.033107473450959074,9.813513435913197,-0.007287492490873903,0.009275092972771936,-0.0026937253878694663,3.94
-0.005015661619606908,0.21994082598347295,9.719195210297983,-0.00021379096767468788,0.017196806967201283,0.001731145132617001,3.95
-0.04267138708533354,0.01613818864725591,9.861989634874401,0.00022911180833866716,-0.017640924164684817,0.016514881002426273,3.96
-0.16619428477807094,-0.010251834865184276,9.748828354259501,-0.005364897544137496,-0.011872301416853987,-0.006818968537739393,3.97
0.000682907645369585,-0.03482337186159266,9.931724682634483,-0.0009162000304629264,-0.009715937457875672,0.003988390270385878,3.98
0.012918411963297353,-0.12014139736157413,9.683171028233637,0.0005575170338824271,0.0084298020992312,0.00897414589979467,3.99
0.1313013244459789,0.08229786494623115,9.743531541373747,-0.006931177408205629,0.011484929355467008,-0.017148180846298603,4.0
0.0025981569754286345,0.15599531639890266,9.796951828217749,-0.026137433955612445,-0.005599312132932937,-0.001900983934502583,4.01
-0.08067602885873543,-0.06396027254051749,9.824423172251317,-0.0035043441921671164,0.011120069746161015,0.014978629594371514,4.0200000000000005
0.24732514549245066,0.09049220753226417,9.766893439999013,-0.020597474035941126,0.0016888257627779826,-0.0005374370236128376,4.03
-0.027461786179596256,0.10317775041723885,9.798461112073314,0.002817377205826613,-0.009466161558377125,-0.0017045120749966311,4.04
0.02285625550065857,-0.1384990439409459,9.764536326618265,-0.0005484929257874497,0.007019041279613039,0.007868389139829228,4.05
-0.116609095837438,-0.010832892197475734,9.893457485611435,-0.004605604635688399,-0.0016966538005324758,-0.01320381259345434,4.0600000000000005
-0.014538709721367032,-0.10424109748576925,9.834814411530807,-0.014284925363632458,-0.010721421485090034,0.001334811934577227,4.07
0.014078284089052135,-0.06660794032046678,9.720605111943824,0.00907083850246192,-0.008403321680914592,-0.0071427506099473025,4.08
0.20572065391960104,-0.03597879170772098,9.701142377583027,0.007365083005319148,0.0017215570044949874,0.01140527173366264,4.09
0.06209455791287061,-0.05938000988337584,9.663975522825591,-0.002964695263496186,-0.006857241767582798,-0.004874620017149706,4.1
-0.009352143890567861,-0.06271455592115305,9.716429076487339,-0.011916147890930378,-0.01721128831839228,-0.018158201939551796,4.11
0.190676991384284,-0.01759757625316234,9.78393792692707,0.02401013655308551,-0.0029842285848775876,0.008922079607340013,4.12
-0.034024720257233056,-0.09250017260832868,9.615851991539817,-0.007036217223070584,0.0008968230742594771,-0.018018160204951856,4.13
-0.03670111579732221,0.08309825055073983,9.710855131491737,0.006362814631625656,-0.0018941453384917278,-0.00970688456530943,4.14
-0.018967667260677504,0.03685721486213205,9.809122650411403,0.0002763186304716872,-0.0073900795302003644,0.005452618444424268,4.15
0.054760433837389114,0.052061879223455954,9.585213021806341,-0.004928280036072485,0.01595037993766745,-0.004665795525705389,4.16
-0.04081436298935621,-0.10151534061313701,9.928075138349483,-0.004525658891416219,-0.0007738741498335435,0.0073114710793052585,4.17
0.07857649218168933,0.048884657628903774,9.940712404565607,0.008254025051137027,-0.016421148889145053,-0.004911921430080682,4.18
-0.18875411811848894,0.019069314011484834,9.729028934794469,-0.0017578204779344889,0.0005960407318338803,-0.0020410974676866507,4.19
-0.030390015651918602,0.21453665897955318,9.741254106510493,0.003948232783883916,-0.00978186484460535,0.002438110867434644,4.2
-0.026938160750891352,-0.1489584268933845,9.772765121202342,0.0015508322575494015,0.0004085209198751995,-0.0265123351143164,4.21
0.04084393300142686,0.07076972821677112,9.723690332694666,-0.0008517083835531952,0.02413472279986449,-0.005896055236532202,4.22
-0.0023806811508087448,0.1448719672403639,9.877217415601093,0.006880846826856824,0.0044934721521691316,-0.018018857972764046,4.23
0.010440825234496496,-0.09203697088994776,9.9878995208354,-0.008745208091768599,0.017593094921345035,-0.01672112978211606,4.24
-0.14843731121519724,0.04554306352979869,9.83835386317132,-0.01886703053353701,-0.001713573184077159,0.014608429152946361,4.25
0.13853041686728626,0.0073116087136244085,9.926521127106978,-0.01158544804292233,0.00735665277171155,-0.010290752460801083,4.26
0.24088942520684384,0.049112141091250755,9.891652709986888,0.003244381682192725,-0.006399206297072923,0.008338135115083576,4.2700000000000005
-0.05580211851054645,0.20200630013866552,9.755671838681053,0.0021961428491640554,0.009861094477143043,0.013410763641780397,4.28
-0.009114411779515644,-0.029991804109307324,9.900395534822303,-0.010551076897600245,-0.00530834863743632,0.01807598376962533,4.29
0.13392629947958468,-0.0549161590673976,9.733359267838123,-0.011448619037140664,-0.005507524565292491,0.0062856164996957335,4.3
0.038006624870899036,-0.0036110179268195107,9.822635049732598,0.0004419046996146002,-0.0038905473392080066,-0.023222687840736632,4.3100000000000005
0.0491984954162347,-0.007378906233845458,9.760406782855773,-0.005298547738349444,-0.0020098333464487177,0.002424912921365105,4.32
-0.150801233596909,-0.02165168324386554,10.005405433136287,-0.017825333374124133,-0.0030956513712030644,0.0010667120295623064,4.33
0.038752785868674366,0.008526781452864812,9.830772660841921,0.0006497122564538455,0.016306159817817377,0.0030233668323068124,4.34
-0.07483093802374463,0.06450847483207431,9.774553179389699,0.0011941678832326642,-0.0029958949708236518,0.005328442187519602,4.3500000000000005
0.09955617951219617,0.056698313990313436,9.790551750996983,-0.009716150513794276,0.0068527415734580665,0.005337634089150214,4.36
-0.006106676791171783,0.11557635955974487,9.745545096354839,0.009801538539277649,-0.0062001152806779175,-0.0038155698254773093,4.37
0.10209507462978784,-0.11483684237531122,9.750479951894443,0.010246109699578301,-0.009627659599510894,0.004537377915145448,4.38
-0.046987156078415915,0.04278976539847526,9.886388119426165,-0.008975616808417184,-0.0037522238083825023,0.004529187902797336,4.39
0.0889029558281763,-0.16097064099931946,9.630853129337668,-0.004526451102924678,0.013373267891487205,0.0011985059768455802,4.4
-0.07824702407127547,0.044938681284384135,9.651233103217486,-0.0025797958832075346,-0.005159744485293333,-0.008273751471302873,4.41
0.03195048290803436,-0.03964373754427042,9.86485369044162,0.014578119957932891,-0.004568221415296797,-0.015365239357606055,4.42
-0.014863215855266947,0.06200910848890693,9.748241970828854,-0.004754784813044788,-0.001301912725752267,0.013023059040743174,4.43
-0.1270942146189271,-0.010364169411346909,9.834916573747261,0.0004186476725555044,0.0030471381676421302,-0.006107767504613022,4.44
-0.11869607417613214,0.034148369633663446,9.838880271096697,0.002925983982929061,-0.008187385578879228,0.012124039226639386,4.45
-0.019518559175659676,0.05816102112555929,9.832063770154939,0.005022162041412654,-0.004257033535212892,-0.017881442402975626,4.46
-0.027268136356794065,0.019467453084460684,9.940751421787501,-0.01029265807815307,0.005273610226838999,0.0036171592818964394,4.47
-0.039727870242996295,0.03221181064311696,9.924152988423993,0.011405008767020688,-0.0069296566900550515,-0.003247038281610174,4.48
-0.07511403744781957,-0.16062174563563283,9.99861423808693,0.005188200487182309,0.004473150285258011,0.004501976482531606,4.49
-0.11855512838026382,-0.009176750156726093,9.972623522682861,-0.02304330294941914,-0.006777334564978152,-0.0006930085958004827,4.5
0.005244911073559232,0.1594663743364346,9.738053575626981,0.006829718465943141,0.00620850989282865,-0.01603294820763192,4.51
-0.19338801875823852,0.038890034123310976,9.880946866248545,0.015485443039013091,0.007487950873711004,0.021054426749445212,4.5200000000000005
-0.01604257636107797,-0.1278561423414941,9.913976379861996,-0.005225800897156422,0.0055245572257040226,-0.01658184344963422,4.53
-0.07422203622457953,-0.16254848920623222,9.735971710885062,-0.015689554693373395,-0.0009720330156717437,1.4475013712240232e-06,4.54
0.04476533308010572,-0.2076966170381297,9.88304310121642,0.008524289398303596,0.0016831208224315746,-0.004242343230970522,4.55
0.2051155937684218,-0.05849883245598584,9.997843973904658,-0.008819617035237006,0.022189364164104063,-0.00837589341159555,4.5600000000000005
-0.09463216067107821,0.04395448054569722,9.641714085552962,0.007175364692697496,0.013819925650971596,-0.007606965069583046,4.57
0.0886652378086599,0.047731411532960004,9.793317146616332,0.028245985267497217,-0.007854072657029728,0.00319134647725471,4.58
-0.08597339690070735,0.24182336395742898,9.738681153741712,0.00015872295491237216,-0.0004072868896803433,0.000575652005458007,4.59
0.07009942412643906,0.059025835211027104,9.881534367123024,0.003714280110229435,0.008293377622996595,0.0034281339469988776,4.6000000000000005
-0.01733476475980075,-0.25268900664346944,9.67772169304694,0.013477019352196608,0.011631374256154655,-0.0067392154906606525,4.61
0.033652011374280054,-0.027334465402288007,9.838073781698238,-0.007879682675977072,0.005027590766177572,0.00018709009330288031,4.62
0.12635870636886026,-0.06393450440447307,9.927733136329289,-0.0017993413192878577,-0.002184598552778682,0.002330097944388285,4.63
0.08816954841422926,-0.09032941131554102,9.955141169895061,0.0074309828582818285,-0.001557435146093995,-0.00111765639911876,4.64
0.07305795932552465,0.13916980855886502,9.713558770136824,-0.010154783449097845,0.0028429402681444493,0.008019422083847308,4.65
0.02434729399596879,-0.23018050819960104,9.73163512712634,0.005078161182327297,-0.00729915059983812,0.014881719494753034,4.66
-0.09382436004674141,0.03603844661357652,9.846183632872554,0.011191146666634719,0.016377830678492904,0.008421421652749155,4.67
-0.05072154225688456,-0.07792007310146558,9.816713896031352,-0.006025928790314557,-0.007625631569860748,-0.004556487885542511,4.68
0.11260076580803358,0.03167559577614345,9.823797488463274,-0.004208758793986381,-0.001170391834581684,-0.007403834246683031,4.69
-0.025495294718743258,-0.05493288712752305,9.718647448140967,0.005452491882919164,0.005421555194682059,0.005047180094183201,4.7
0.006128617664826565,0.04256710763047098,9.680476489584095,-0.012885935345719635,0.007575635929382111,-0.001990027413257468,4.71
-0.06749200203339845,0.15855062650873478,9.77565541663295,0.005256174298962718,0.005933215944230126,0.016005196550862813,4.72
0.13240514025738756,-0.11951415411625127,9.753980424340613,-0.0017284564677855843,0.003404073604606336,0.01868257338184738,4.73
0.005400718661175092,-0.05623548195910849,9.750411572140061,-0.006994137863464544,-0.003875935434261776,0.0037816699664628816,4.74
-0.06534468090195111,-0.0670703531537136,9.856024243743159,-0.011773675941655586,-0.006809942276937051,0.003330934403494204,4.75
-0.14710536011158692,-0.10418169444696884,9.866464397696829,0.0004856489525050861,-0.008789215272187435,0.003918296944730552,4.76
-0.024585403353824316,-0.07719313018563714,9.725192495146802,-0.00045888896521855646,0.016963948096846357,-0.000335811567078913,4.7700000000000005
0.26498463984858917,0.15327948184449622,9.751086044667982,-0.0028960625998816305,0.004375815088694733,-0.0013892589848520213,4.78
-0.05022125122421203,-0.010332089926926611,9.81734162306372,-0.0005098864481075521,-0.012873494602133622,0.017340037410644854,4.79
-0.3119769462098422,-0.07039397762626931,9.838676841242007,0.003140728006516249,0.0032161136850778487,-0.003657353199288457,4.8
-0.014050508782426622,-0.07551408042459394,9.769557052929246,0.012006960011223358,-0.0027619733276840375,0.001054899005943521,4.8100000000000005
0.06452885737900775,0.015704385501557824,9.70361879321066,0.0008942900687509577,0.00017650305520297685,0.009457677303781647,4.82
0.020808243838197425,-0.03587017887505917,9.660668210777278,0.003241420013747599,-0.0032680055652958276,0.006546023724015858,4.83
-0.02974928810004958,-0.13180456942329863,10.019524067222902,-0.0075850534224245906,0.0039126040962537394,0.0051650902251084915,4.84
0.040411021775380224,0.16658086968989186,9.817348995729843,-0.00536315248553137,0.008750910837430063,-7.781484782222056e-05,4.8500000000000005
0.060115599027883715,-0.12490606283724198,9.900063829792499,0.002164376606725394,-0.005672193527757234,0.005952427755536307,4.86
-0.09052929330970252,0.007273935961874207,9.807710392592167,-0.02261224905266273,-0.0054522769080731495,-0.0012861463265536517,4.87
0.08297824589627545,-0.05902497739949023,9.80371637407584,-0.006474022533878704,0.003118571353394564,-0.003295988919437322,4.88
-0.045194326011524254,-0.02434459980975191,9.913764674603467,-0.022531688246621596,-0.03723825603129549,0.005291625249247157,4.89
-0.01680562581793271,-0.03952357037491372,9.735653357073534,0.004491531280807498,-0.032133967003797594,-0.006320837974183107,4.9
-0.11784167453860775,0.06638382110005835,9.754387229047445,0.010809278694609575,-0.004861862696254345,-0.002085654115491481,4.91
0.0062776320599357205,-0.05164097879406752,9.921868624616613,0.014308923839637016,-0.011382870998566911,0.01516955734008152,4.92
-0.2022024909531216,-0.05708148201219753,9.655283085949357,-0.0024590805702946867,0.008993522211515854,-0.009926470658138365,4.93
0.046494760045801165,-0.00849349861792808,9.748581600672011,-0.0010669393733698984,-0.006509608586326811,-0.0118299922483417,4.94
-0.05151964245572335,-0.012504362980939722,9.69499035900811,0.0018327077481120385,-0.005013510951109631,-0.00255750869056629,4.95
-0.007812345380165667,0.003596465154512827,9.80161525807679,-0.005905736091947396,0.020873094636329862,-0.0020741736264167435,4.96
-0.08595385538921843,-0.07255834358537559,9.766619821646584,0.005279233394021434,-0.008979544610188765,0.00688738008947199,4.97
0.06867141683898478,0.05188759879167886,10.067293947310425,0.0005940488499945367,0.002026304356999805,-0.008605313954523654,4.98
0.0011026229002566766,0.1504398187860049,10.007283500245446,-0.008474981111191804,0.0007122250392355695,-0.005440562753419317,4.99
-0.041916156936303246,-0.027628144770307658,9.791301367018116,0.00484554459214032,0.014421615654479074,0.017249173996712334,5.0
0.04139305694848807,-0.048564242825190417,9.801274797444973,0.01388585514574882,-0.01325690972754737,0.002995926315274512,5.01
0.049394508575023435,0.1935674198791454,9.871619513603843,0.009538028130875389,-0.0014944664256020422,0.0068559526253293415,5.0200000000000005
-0.19523298653152044,0.023063243566401097,9.859117634288646,-0.0020903048951590626,0.00520706504823922,-0.016370352960840658,5.03
-0.194884729359775,-0.056980645022023914,9.869122240104739,-0.0030768378302864175,-0.00812105821857816,-0.0038425798484354257,5.04
0.1586048502179459,-0.1581352932900393,9.885790886911725,0.008100326862222092,0.026496732019941117,0.017437498662654493,5.05
-0.13737073242553063,-0.08106231807301495,9.58692542711419,0.011832037797237691,0.006053019598369502,0.0035691927884885606,5.0600000000000005
-0.048553850182392465,-0.07556233390393152,9.780699903497792,0.002619685078977172,0.006256971999536255,0.012620938383690114,5.07
-0.023608249946841024,-0.16943117631241905,9.882103546252479,-0.00075052757116579,0.0007111815397489024,0.008371582951656993,5.08
-0.0916835469430472,0.015442015920773372,9.73311849884195,0.0037459476376333943,-0.006717233220700279,-0.01405929530888318,5.09
0.005843355579492892,-0.08216588515140394,9.914594867078355,0.010109925678380932,-0.005025262781687786,0.01774258231351378,5.1000000000000005
0.020328862146085102,-0.0503614401616762,9.814042060998771,-0.007361430108264519,-0.014154702668462787,-0.00740797827904913,5.11
0.09095554863944497,-0.19082597035337912,9.799668843938733,-0.0005330185393965449,-0.014428319840260053,-0.0168353857053956,5.12
-0.01548223156513847,0.07732750977250333,9.618004368794097,-0.005642180138397794,0.026514107764292996,-0.005624857966304079,5.13
0.1269652359439335,0.10569949727311966,9.795390100581795,0.007445333832143419,-0.010415119101568025,-0.01077186135410002,5.14
0.1509595932700385,-0.05505486766869225,9.887470496668131,9.343233680733244e-05,-0.004980522185218099,-0.004178037898516424,5.15
0.1749506873731479,0.007933890747528122,9.886994866661162,0.0012074057462369149,-0.0023602990624709223,0.0033836623875802088,5.16
-0.06413510123687231,-0.18087101375923834,9.697418892237328,0.0008652889219144186,-0.019922680578382885,-0.0010484654794367565,5.17
0.09249208627309549,-0.08697069433579746,9.947058513819721,0.009056583277750356,0.0034599532292240594,0.001067282475313249,5.18
0.057258458855387856,0.09885665286012563,9.83524776889656,-0.010755707527571504,0.032602770019822154,-0.0005472667133247948,5.19
-0.12556944625999458,-0.11190792559196175,9.875922879087708,0.0021506911074287236,0.00931282701004306,0.0072284836444190806,5.2
-0.08953628979157345,0.23150117472469725,9.89084616680231,-0.012450399375925552,0.02769793414118415,0.0006534361902033173,5.21
0.03508396212326808,0.10563882534568621,9.760026115841157,0.006515725373349782,-0.0014098943828936483,-0.010188273954525387,5.22
0.13006380029754458,0.11017728911009016,9.773544297459845,0.00826858742060969,0.008710162867020152,0.004659626749883833,5.23
-0.02891333198584858,-0.06859591294714039,9.71227276576824,0.005467228009009374,-0.001992296923916366,0.015656023951799842,5.24
-0.07562380679943814,0.062397431638011897,9.831683854550576,0.007509347246054212,-0.011175054839613136,-0.0018934634506502022,5.25
0.06245385199325962,-0.1993208994853375,9.882418132165204,-0.012297264097514362,-0.010750226432194379,0.003286543488984481,5.26
-0.028535041170802772,0.0022057719012818625,9.827672815733644,0.01127937393011248,-0.006673336845149713,0.012335959361621305,5.2700000000000005
0.028541575279936213,0.06013225165124469,9.910098041918548,0.0008995057448519091,0.00048541019422245087,0.011470269602378352,5.28
-0.08100932380372511,0.05882195349823961,9.590151147404557,0.010540380477631783,0.020329334811385533,-0.01885006161694052,5.29
-0.07179941271711175,-0.004012121822117606,9.840922936700963,0.017911712842604045,0.004957336940387658,-0.004948189668810406,5.3
0.005916392673532219,0.10216820148576314,9.71012441609403,-0.010035187056863045,0.004959635182002133,0.006938919265172767,5.3100000000000005
0.15669092672483786,-0.033540319443975466,9.651167911038652,-0.005387466982928263,0.0033954903436984375,-0.001960656925213019,5.32
-0.13331230142815506,0.0955140935786814,9.674310088948994,-0.02343074722330367,-0.0006169128671650283,-0.002478707076164258,5.33
-0.008572675681299565,-0.008376154492565646,9.945255568722967,-0.0026997480931713887,-0.012173738323027695,0.000450063968425897,5.34
-0.07761729867096712,-0.16685326497990535,9.934748494646133,0.011891146433572397,-0.005713244619608981,-0.014383063523793222,5.3500000000000005
0.009585302776864223,0.06166151052338075,9.885986272618029,0.013080219412310917,0.00010813328188304028,-0.0010586520544933922,5.36
0.05384457332710923,-0.06245140096528443,9.931341079510704,0.004692317413240793,-0.01579541567289343,-0.019553358420997365,5.37
-0.01409617917377504,-0.1858127399131887,9.711225292060766,-0.003216629151180585,0.0014844409071792229,0.010050230266116178,5.38
0.15270942917566407,0.009100476398263144,9.875806634360139,0.014271061285368408,-0.01851903348419181,0.01702205417849654,5.39
0.03560054297396391,0.09294700473856204,9.855388660123468,-0.008442422014880433,0.012854348946522754,0.01164405413529716,5.4
-0.028125588373056867,0.005271561727473377,9.75124373635965,-0.004276377218358374,0.007801206038399547,0.020102156116460376,5.41
-0.045142093301145325,-0.14893343568393175,9.81676126809091,-0.0027219695393465573,0.0025163939391798108,-0.005299973405589008,5.42
-0.01258101856540104,0.05049960992660893,9.868109320407106,-0.0030479636447431325,-0.02060915278496746,-0.00034171102949693806,5.43
-0.07319366717937852,-0.09944277743974674,9.961405422212104,0.018576458580949536,0.006586878584993709,0.010081047331251487,5.44
-0.13926056455598035,-0.11158537654650685,9.945985647918437,0.0025388386650515068,0.0016018374935246656,-0.0006396332055725847,5.45
-0.1540981949038212,-0.04763649998125491,9.73936494737331,0.00728370250501488,-0.009772799799693851,-0.004015140201297684,5.46
0.11977157962878518,0.06254060188804343,9.91936350813494,-0.019527061424021865,0.0021545016669783615,-0.004303655695439771,5.47
0.12749867079476782,-0.014085696969115546,9.889913646538325,-0.004524251390973465,-0.01629109090666761,-0.0025774709845616302,5.48
0.2194093840748236,0.034213635655818773,9.815715412830833,-0.00624728468738347,-0.0049206900292577275,0.02693426768254322,5.49
0.0606858207435022,0.024739825617529295,9.697870071825482,0.010801473468656248,0.004449247960021099,0.0010517972681681929,5.5
0.05944215263213403,-0.13593573784189616,9.66273747660917,0.010780334638187368,-0.013641592228008863,0.0023730523935772446,5.51
0.033001149433162597,0.028177121135045637,9.91571912422506,-0.005339906344923908,0.00972774795542888,0.001567565609852266,5.5200000000000005
-0.05694151692302233,0.02301183592735662,9.805188006768434,-0.002083232388345801,-0.0025814779004520233,-0.011215272693116028,5.53
-0.010554879863112729,-0.032732296478681804,9.7969345442948,-0.0006612196242661522,-0.008190031243327157,-0.02704763795790933,5.54
-0.07127485831476743,0.10405896304290621,9.787653203313088,-0.017694532505063056,0.010351263409965259,-0.003664232208032739,5.55
-0.17971009949049366,0.10893511476289022,9.908244844585612,0.006470912734931189,-0.006182671288832878,0.000740340376586173,5.5600000000000005
-0.08045946710225184,-0.05543405686781704,9.855181830784796,-0.01433055206328598,0.014165707977237927,-0.022442973070868823,5.57
0.13524160129044713,0.04249348929306622,9.738266886547633,-0.012074325144850658,-0.011497732211831384,0.010859948127487843,5.58
0.07015332957954633,0.06339883333745067,10.136394038617604,-0.020781696558622925,-0.008004029528406145,-0.015159489636363344,5.59
-0.16906222126078932,-0.04824231598416092,9.683023616940737,0.010408301202843964,-0.010218869347015592,-0.007096634983438788,5.6000000000000005
0.09587928779891658,0.15587036772955057,9.794179546626792,0.0020607582462856488,0.0017287145785929994,-0.0006504458896097094,5.61
-0.14914282191408673,0.08799610051897061,9.792844066242655,0.0040945221354614855,-0.01617777499957709,0.0030472397748907577,5.62
0.01077905828186916,-0.01420506960121369,9.847698116975916,0.001013197828345582,0.02266094853731687,-0.006490371938969814,5.63
0.07120261253510211,-0.006194545310219304,9.860135893815002,0.007768892897867891,-0.019861951398031916,0.02233180516014997,5.64
0.03973142279917373,0.09288494502822855,9.834858699302067,-0.00627141430060392,-0.02297535860186169,0.000989257808917329,5.65
-0.10508426681652393,-0.1678960197064276,9.716110726379805,-0.0087999768041058,-0.0022463994662749584,-0.002562435802186342,5.66
-0.08142701209362002,-0.22275840711220918,10.040850913166837,-0.020548448873574144,-0.0019585453051407325,0.011726088604580014,5.67
-0.039638749501148575,0.010629884536576581,9.722316108654196,0.010074063189439488,-0.0021089709279701035,0.010189065064780433,5.68
0.02909264876367448,-0.13724194224467745,9.976528879968585,-0.0059085136214002765,0.006553571523674269,0.008036084610837626,5.69
-0.2318180839960705,0.07822431759116993,9.695709297574584,-0.004284826119344552,0.0009104990606289837,0.014486792985332668,5.7
0.053512274407325866,0.11027305524317593,9.804641868844657,0.003126388931286213,0.019320970264815867,-0.010011850380633456,5.71
0.04223043075784526,0.07903560550026162,9.632792411143535,-0.0022467373611000474,-0.004748510090234223,0.003088319412262897,5.72
-0.025033334653676964,-0.06254000058939617,9.860371380089404,-0.007762911464496916,0.0011529260656872346,0.004313975141945926,5.73
-0.01980115910814209,-0.012714841002708402,9.803157804285169,0.007570555436921215,0.009669369158836885,0.0018444760066388714,5.74
0.0887991235802037,0.09673708655627423,9.737188321357548,-0.007721029248301863,-0.00466602765107192,-0.023742727322222473,5.75
-0.010783779311804909,-0.03820688835609157,9.776565144418063,0.0072982323169003115,-0.0006584751131164257,-0.00856382264198821,5.76
-0.08819418728619272,-0.02484952883103298,9.650914856476547,-0.004557688365395486,0.007275681182474549,-0.027044652996096645,5.7700000000000005
0.16408381534849367,0.0050311450073450645,9.993900104730143,-0.005783285415245992,0.002290141049188919,0.0016921629571339976,5.78
0.08106651252610884,-0.11263358311166083,10.010777806184912,0.0012146984880625781,0.025034998295244925,0.0002763427678633201,5.79
-0.009573540091700678,-0.24905875241447686,9.871087486700867,-0.004716503333183987,-0.005987785004616819,8.40735087015819e-06,5.8
0.00918725756557573,0.08963611103354091,9.805022411527881,0.012970881056371383,0.015201433186994752,0.004312487115829097,5.8100000000000005
-0.01842802687280985,0.0854655579091647,9.699329331660921,-0.0037729043744812217,0.0002346180606149833,0.002113881348282906,5.82
0.047959735802797186,0.1068584646137239,9.79375317764282,0.021811915569443247,-7.222155690545789e-05,0.002415306241745485,5.83
0.033662866533578306,0.007538303515099699,9.918507945092394,-0.01999238491017941,0.025710200168982702,-0.004173419230581506,5.84
-0.038510712815437685,0.04666080230068401,9.962182420448107,0.010414468557940672,0.005571816442813952,-0.0034590230830965326,5.8500000000000005
0.17118334989407452,-0.23937635993017842,9.790339531694057,0.009391672207037575,0.009974805521107853,0.0004393314118077236,5.86
-0.03476620948513668,0.03385248089000714,9.67771743966611,-0.018693372908647497,0.012437026334520937,0.020765664616140357,5.87
0.07746603340462903,0.13959274417282513,9.90356038766959,-0.010901593364071201,0.01174309362470455,0.004012390269832024,5.88
-0.07924189394529009,-0.13161735965925317,9.774448551914885,-0.0056977514927523025,0.015023542317336332,0.0013294923692284035,5.89
-0.03466515395137329,-0.08297477633936151,9.675599430941466,0.0021215947756094036,-0.004511746124223071,-0.005826522144834602,5.9
-0.044090950490965904,0.015941365268856336,9.928400739901246,-0.0029572811024044477,-0.01144007181490774,-0.015341830130368451,5.91
-0.11296501411115512,-0.1631528563849256,9.746543150365572,-0.004065547249569685,0.007300324195890664,-0.01048248735064743,5.92
0.01800614616461729,-0.14782989488414308,9.859146657962926,-0.010275244337253941,0.006439190260578264,-0.007995348256788928,5.93
-0.11310617892881958,-0.06681055289061054,9.799264572864066,0.008280709606824905,-0.004552547219607155,-0.003668744705793217,5.94
0.014601798936887376,0.10275764865649638,9.883470872306686,-0.0009971063477238803,-0.0017028701992877573,-0.014237071951082727,5.95
-0.06873322220232479,-0.09199930056569149,9.604997205795849,-0.0037651127665711075,0.00749126374142971,0.005102770372441782,5.96
-0.13364986224311204,0.051182049523157115,9.792106800568904,-0.01037329906544936,-0.006565868829871016,0.0009575490051755986,5.97
0.17769812714581795,-0.05379299576264943,9.737734984214109,-0.0038448639266973053,-0.00819354268930361,0.017655722216357094,5.98
-0.039701873292118994,-0.14574935393508295,9.744321851512742,-0.0022454783912453573,-0.0046456196828263355,-0.011186430447089493,5.99
0.03337627392373129,-0.04030083567762768,9.687166425341681,0.00021756207937953582,0.0008034061753539346,0.0010567232665727063,6.0
-0.04586859482324404,-0.07141778837955243,9.740136730421472,-0.006791195540138267,0.01328491327941006,-0.00048220310646434554,6.01
0.01287190663514194,0.1464059979311068,9.771799804558016,0.005130086134127505,-0.00936884414317364,-0.005427343131452916,6.0200000000000005
-0.1430582498808735,0.11441600442917553,9.886705838752148,-0.013561520053283024,-0.006857489452938023,0.0013686426617750117,6.03
0.029073912848805502,0.07527317277033586,9.874477892312973,-0.003939281899669929,0.01406085458023048,0.0011903096097166737,6.04
-0.1243961927072571,-0.08561034997543357,9.700056546940043,0.0061810632704912055,-0.0006446525018770276,0.013109136990799882,6.05
-0.04417494824820164,0.12946062086002028,9.821102899973523,-0.005974751894557524,0.009802218973819674,0.0021017318876344884,6.0600000000000005
-0.17064877679212628,0.03629361583223647,9.74540248959271,-0.007928097918236378,-0.004381167964314584,-0.009138252323575242,6.07
-0.04737339211598145,-0.0034430185997855545,9.761307214704997,-0.009028310135455473,-0.007194019560053223,0.005514318112309934,6.08
-0.12934206805519163,0.06716483108569363,9.93993513763791,0.003380159177552094,-0.017045365417440526,-0.010992283045391224,6.09
0.08121557449148613,0.11863910447496245,9.809094222937032,-0.004974845924960864,-0.005196104749529897,0.0016963291902495697,6.1000000000000005
-0.0543623827663201,-0.14438195138210605,9.70575728803639,-0.009334610604045595,-0.002962524478496858,-0.01563234332124535,6.11
0.01526382661286485,-0.09149178481325326,9.810587615758267,0.011397794788223716,0.017825475894361963,-0.016678013549545085,6.12
-0.11151217926516606,0.11406536279415214,9.894753529559116,-0.011497492501879748,0.010021697742185523,0.0005940557432797095,6.13
-0.07739677271054708,-0.1244853624171463,9.81932033843015,-0.016360733751787634,0.005425086971305517,0.0006046873543232934,6.140000000000001
-0.04627082034817559,-0.12042054557731685,9.885074190591679,0.011699034875445012,-0.022063386100679008,0.011546289234340892,6.15
0.04126794138660641,-0.09174300065453349,9.707033777447663,-0.006345835445018715,0.004379795417294832,0.003847649498503842,6.16
0.022739487415516197,-0.11890039572737442,9.67108866311952,-0.021192115742292402,0.002768255022400908,-0.011474149888088533,6.17
-0.09704029570187772,0.007025550593128472,9.95123141403002,-0.003259886929045322,-0.014252237384671464,0.002405091916424673,6.18
-0.10833722257685877,-0.19122768674077076,9.762031089031055,0.003980593282382474,0.002770796983356669,0.009764100071296683,6.19
-0.002134075573931424,-0.028044774610143805,9.68964692076236,0.01790219691202658,-0.00012546008059684583,0.0067052029068333935,6.2
0.05121468874660284,-0.10655027266350157,10.023514650769119,0.0033611162858084537,-0.010125059377580639,0.0067362871546335756,6.21
0.04018911274139731,-0.015641935094041076,9.93849003664165,-0.010850164064191172,0.008917850983212662,0.007095998012554763,6.22
-0.007175585156588152,-0.05895906332139472,9.90261602768563,-0.03443753964794883,0.004315463454284934,0.014833023890542823,6.23
-0.004347680860336051,-0.053899225443069625,9.83125401443391,0.006867130515272621,0.0025952430432833037,0.023686718412665907,6.24
0.05335925067074944,-0.12326215618254657,10.033826164240935,0.012639218055264492,-0.014034161479096361,-0.0047366600459388605,6.25
-0.06731031646574497,-0.14448394899365408,9.77203303437882,-0.0020062537365737477,-0.004824994068438699,0.0005934351890256155,6.26
-0.03998549468197435,-0.12434916958841138,9.889202160526787,0.01429374963697468,0.008670058717633669,0.005865062130109832,6.2700000000000005
0.29178322762187253,0.055048751454984446,9.938252982227683,0.0006332360700147368,-0.0022444198878785286,0.00528347040126972,6.28
0.06812904006133703,0.05537559576930208,9.77141163488889,0.01537320072624304,0.00620439097134853,-0.0029519251083922793,6.29
0.013922058879761619,-0.018213458978335522,9.971164525533943,0.01124505360192736,-0.000850255122452533,0.011734833071774718,6.3
0.0992575991760655,-0.12903220204876534,9.78063284530645,-0.0045064047913186975,0.014386566188978708,0.012160276855602082,6.3100000000000005
0.058617533764584784,0.22802743479752785,10.00200307311106,0.003432511246682154,0.007608984783677655,0.014236220818428291,6.32
-0.0469413232428513,-0.10567608115023555,9.884409588538752,-0.019073311928797642,0.012331213898838471,0.001457396752667754,6.33
-0.014782709089676672,-0.04362217744587278,9.8214666128066,-0.003500525364539743,-0.005977004134675159,-0.0045155633978937685,6.34
0.10605771807687568,-0.01776667937723958,9.766587957084123,0.013824753786500183,-0.0076515845662911445,-0.00502654510524999,6.3500000000000005
-0.1488298134211886,-0.0591728052183593,9.842773561676424,0.012780063557296667,0.008762544110512154,-0.004136670412134586,6.36
-0.1249530726255225,-0.13263539699446555,9.985047680538486,0.013807542579183811,-0.0015762700495906845,0.00022634398752412635,6.37
0.11424296647316595,-0.0854318257567397,9.644188144081033,-0.00260534951903914,0.0019728301211984663,0.010128721857870606,6.38
0.0023008929089261476,0.21480019551614485,9.783838657593796,0.015820020365793164,-0.028035629060083576,-0.004910159237745738,6.390000000000001
-0.06501304924180099,0.12036235548436124,9.754252583997449,-0.01029703263989912,0.0036403965219165015,0.005602364383701533,6.4
0.16097103106969174,0.01801640675494372,9.805243056677012,-0.012416193032860597,0.006012416635724632,0.0012445222082040784,6.41
-0.14810371933405467,0.09592824415888594,9.666040505047524,0.014434557258044075,0.013290649306917235,0.007581747128240384,6.42
-0.017740444999420527,0.10019438640844902,9.807795473172549,-0.0011830402465274506,-0.005949612336511228,0.01131853651621588,6.43
0.08727290283969454,-0.018188550763423496,10.002927483898727,0.011840605707717292,-0.015195570850242491,0.012729201083594988,6.44
-0.04353807654738971,-0.08925708371013052,9.822130862040318,0.01873420327173029,0.003452283249887285,-0.004682686210453042,6.45
0.0016322390477770275,0.06361577718040283,9.915686035230575,-0.0007459715434566483,0.009742076323753611,-0.002694798177618782,6.46
-0.10032806218480941,0.15670904491635146,9.842751614461482,-0.0059410858191198,-0.015141627532110364,0.009889445579245718,6.47
0.020989523240896965,0.13025879898995782,9.875620658573181,0.004184174027827288,0.007458877353919023,0.003121465839878614,6.48
0.20201678447969035,-0.15043487808311606,9.780579864254483,-0.0007558682934029109,-0.008136511813001459,-0.008959538195531755,6.49
-0.07799817675907846,0.016916722574119563,9.81017494592454,-0.0017271586027799086,-0.008599243163723867,0.01710804136781893,6.5
-0.07592156046788766,0.1462644514556575,9.886919414260523,0.00755657919136516,-0.004053235334755429,0.011958328616820113,6.51
-0.0947490009473523,0.09263869813378953,9.772509879299614,0.0008060527475883177,-0.001093307288581662,0.0008848629068574518,6.5200000000000005
-0.08304375019205656,0.043233666978028336,9.873649764470459,-0.0031769716767270717,0.013539729913465547,0.008011213307407084,6.53
-0.07864759262157398,0.06386437634287832,9.800791672387215,-0.00894371161607932,0.0036064365750099786,0.0026743727717517735,6.54
-0.05832411649064706,-0.029223119872302184,9.77233784676733,0.011490402188467076,-0.001185610927981488,-0.009870583029655955,6.55
0.044292024619258845,0.04792236134911787,9.816665127140793,-0.023697309032497827,0.0034687845224124826,0.010178913348401548,6.5600000000000005
-0.1410886904984538,0.03772131290207487,9.768877700450533,0.004599667028981403,-0.012308406140032351,0.007353779843156992,6.57
0.11347332436466745,-0.09064690245527399,9.779707606068527,-0.008967395561380763,-0.0036597517921192553,0.0022796412756974104,6.58
0.04798541220234798,0.04729461185601193,9.70328304243705,0.004713814503908726,0.004391789636388862,-0.012507803209656077,6.59
-0.05622581941648504,0.19708654705753134,9.640455256020525,0.003341419985304656,-0.009648505657323413,-0.003973387138151314,6.6000000000000005
-0.11762173051043048,0.003712498391054817,9.717127099147175,0.009327000116968192,0.00991484076535486,-0.0023255660395866957,6.61
-0.08545152724786914,0.19943032737698804,9.75817533268555,-0.003676096234820077,-0.014234937939160792,-0.018269011942016293,6.62
0.24057353410396687,-0.13747101866320915,9.655076816061156,0.009434671096488241,0.009816613829922195,0.007961809081358158,6.63
0.06999715904300359,0.08886894132294362,9.796558583245842,-0.011193488624467004,0.010747678353622081,0.0028746594961100596,6.640000000000001
0.18461820445360558,0.03343908828274738,9.831670387337342,-0.008069460841865878,0.004502476480261533,0.007268953060107838,6.65
0.13158847668275758,-0.008492523164157889,9.907141925902248,0.0032690311491583106,0.015479937183978427,0.0011942728437526098,6.66
0.13056826875381275,0.05725133320660289,9.799375371169948,0.0020337503868017408,0.011919809720309127,-0.012589116563445125,6.67
-0.010915008594948093,-0.0029908903530950735,9.926610642414454,-0.0029914555207962872,0.0067283404655310505,-0.010035154265291004,6.68
-0.011100952248093928,-0.11292849628303377,9.817100544008653,-0.007259692220126726,-0.005246733094582533,-0.008235620854933184,6.69
0.004472748346985494,0.015765406521010616,9.78014598274028,0.013956387012896919,0.0025656940980529758,0.015874641032970708,6.7
-0.08885710374045604,0.20331942875221307,9.697717782189107,-0.011824699974564598,0.007612146354813612,-0.005376974900039867,6.71
-0.05391163062100227,0.008940329403669933,9.950999378146207,0.012551949494849729,-0.00599087502361922,-0.004332786493862867,6.72
-0.11678468223826047,0.09334656223279476,9.71816846937193,-0.007999075386916181,-0.002763118962469643,-0.001046389154453703,6.73
-0.08859837592175779,0.04088775042793375,9.904881243754208,-0.004090974665279402,0.007111768467659022,0.006699530764728009,6.74
-0.13635979532948672,-0.012929509889015018,9.64519259427841,0.001668760342837125,0.00609262851916906,-0.009395390443322776,6.75
-0.10501345674701601,0.1642025700506092,9.647816902963376,-0.0023725355488732934,0.0004943295651468277,-0.005891763476651164,6.76
0.014669417620016018,-0.13831205649673217,9.762596527252317,0.013688742907062712,-0.02297075960221087,0.0038480887627889444,6.7700000000000005
-0.05077422591283703,-0.15509632004544288,9.790643011963102,0.009131049550867609,0.0025262660543820463,0.004097452808512282,6.78
0.2994087742062299,-0.11542766656477599,9.637869182139266,0.013311868203224678,0.004802930564670025,-0.0009460807128157724,6.79
-0.11990767515067664,-0.0890027933569024,9.78631896354908,-0.008336081123406126,-0.003158355857654488,-0.002310365993280781,6.8
-0.07112495069232214,-0.05674881758263062,9.69195421077181,0.0034045837446778494,0.02223120900486717,-0.002508808873085318,6.8100000000000005
-0.11108515685400676,-0.08910516953739216,9.768578522932073,-0.007327158756826983,-0.00968067631469451,-0.010875106506108415,6.82
-0.10627246933767737,-0.04261889727167795,9.81088393507515,0.009880940577847221,-0.014307524232365735,-0.005162949848060807,6.83
0.16114023072499872,0.028551415177357667,9.839009720433422,-0.002275086151251074,-0.00687554976439598,0.011371480269126707,6.84
-0.1279453502819731,0.04225269385035671,9.78062997368419,-0.007875867894167603,-0.003447919631721274,-0.003268538431802022,6.8500000000000005
0.0022335189444352603,0.14293123177216277,9.771374730646553,0.012802120468898132,-0.002511517009769785,0.00955641043802685,6.86
-0.030001364580534297,0.011388959544100623,9.89543970652386,-0.01993789619933977,0.0028502167297313075,-0.0014195291881523445,6.87
0.031010175721381435,-0.18679423680462054,9.947498640372757,0.009408884224611693,0.01066468706552836,0.004018295571101857,6.88
0.04631834116077628,-0.19005707188379925,9.759989765420812,0.0041566233346629275,-0.007423467567589504,0.011528225092187186,6.890000000000001
-0.17212744395896096,0.10246154724745096,9.810870815965018,0.0030171677761663225,-0.015340843552985213,-0.008407179030064178,6.9
-0.05732858923371589,-0.1262177751460754,9.819780592040324,0.009322772048205114,-0.00954666578638371,-0.011819253934874534,6.91
0.033859759535301404,-0.0229188399910521,9.783584275871382,0.006268006137810581,-0.011205094259435092,-0.0013130614777014868,6.92
-0.014880546440040507,-0.09929561407109988,9.697275429967693,0.0008105796827874508,0.0020180528680679806,0.005571853199826809,6.93
-0.0961777333570767,-0.10116905688709488,9.945891950001736,-0.009848369060289205,0.00446114812544714,0.006293468763642511,6.94
-0.15813264169106142,-0.12246704368439304,9.706795874899957,0.0050029259216414134,0.02072833587502682,0.013327637782402445,6.95
-0.019580212562959914,-0.11701352555290817,9.773020107813256,-0.004598196481872263,-0.004186774650437276,0.019078976555355776,6.96
-0.026881867400396955,0.1949955567004643,9.757544072804315,0.011234565922134255,0.00852701677537154,-0.00471135468647239,6.97
-0.1127222636497855,0.06666973449092423,9.800239175249013,-0.007992904316694655,0.003081865206577316,-0.0037694332358792714,6.98
0.006734447779713381,-0.0711272774418598,9.66950677007243,-0.0016396660220701978,0.005192645304667157,-0.005570552749290173,6.99
-0.15610053885713315,-0.19591876998861066,9.79466327205309,-0.016893345951320957,0.012674204325162988,-0.006239568356831637,7.0
0.21836277710755955,0.001752266703177279,9.705325794088004,-0.020882130296893082,0.005274736373927782,0.01052204276750566,7.01
0.20275597625662814,-0.032142691415703,9.969868750485542,0.026539554388483006,-0.002973944129991426,-0.026102603446560166,7.0200000000000005
-0.05640507058996436,0.01493743380386451,9.91154741253135,0.013945621091413134,0.011141784280321058,0.006057452506868062,7.03
0.1552359432385637,-0.058412216794526184,9.882188155058797,0.0034444321733289457,0.005880588590301475,0.012512817974800739,7.04
-0.013968423594730031,0.03241473178220983,9.763859062524856,-0.006091960621452013,-0.011070212864453692,-0.0005957730036706218,7.05
0.06270655824125058,-0.15624906625875015,9.96645469684758,0.006510583153318204,0.0021473812217574,0.009204641053345427,7.0600000000000005
-0.1303744564141422,-0.23434154905926544,9.923895438822862,0.00890374420008763,-0.007149042569702419,-0.017043651812181527,7.07
0.02830652691843526,0.16107505333631184,10.035204484202845,-0.005302625179750363,-0.0036872353979085244,0.01582814626592703,7.08
-0.2133813977678945,0.0013199932333561063,9.76658189431335,-0.0136744345621772,0.012426014372473261,-0.002138700319621554,7.09
0.007002354017915666,-0.07715677154342007,9.753234839929878,-0.007758010236795688,-0.001087204263410685,-0.026449005146766406,7.1000000000000005
0.008362447572186906,-0.12120420314357792,10.00537434193329,-0.0021680950156637226,-0.008236766320901659,-0.008832967080921815,7.11
-0.036313522942784386,0.15271216409318222,9.946665310171598,0.013113172831232152,0.016882933597910498,0.010639805459104833,7.12
0.12643449300239656,-0.025489573259882593,9.887587708935888,-0.0026346472436281,0.025307360093477636,-0.005349734503864497,7.13
0.11275490645054312,-0.06259255419667356,9.878363866371501,0.0015050450403729183,-0.0031196696933505504,-0.003237380366442376,7.140000000000001
-0.12419802900558663,-0.07385553178531402,9.689590998440673,-0.011042226789392054,-0.012320882534950344,0.006923141103756456,7.15
0.09986291548718162,-0.12854669710740302,9.801913260962868,-0.0030431066993280905,0.015757538360339666,-0.009802170728802287,7.16
0.06214364081546815,-0.0045384834724311734,9.787594760168039,-0.010812269176728798,-0.010365294939653285,-0.0030133056452928252,7.17
0.08303184829690921,-0.15396223621138216,10.028278867767542,0.01393023892471819,0.0037799831215008213,-0.0013802384132443441,7.18
-0.13724104498153325,0.03985074859605572,9.867427415896296,-0.0013055592534611058,0.018596621306158793,-0.006091230110974126,7.19
-0.29026925146744226,0.10641206306465381,9.706239114991716,-0.0029296909524489947,-0.0037530101051135877,-0.00526746618475184,7.2
-0.0087248355459858,-0.10719345842593882,9.787323660608868,-0.017550074903412507,-0.0048792662406760955,0.007528390495994285,7.21
0.0317626991911012,0.05931448211482863,9.894042891294331,0.004380928826526177,0.00904656461765442,0.01845023195205471,7.22
-0.1439860851779137,0.1187429341164809,9.85283327624404,0.0005938915413192898,0.011401393205278425,0.005633767522975471,7.23
-0.05671900020607428,0.0007109249362663821,9.732841228676186,0.003919082093135719,0.016247269477216452,-0.004966946301231679,7.24
-0.0036534252223584386,-0.1269460355173537,9.628946185251598,0.008636235654834585,-0.008843996041957023,0.001838730147081549,7.25
-0.017440578780914703,-0.063241764502121,9.783020445576463,-0.012054852715675968,-0.00866350871090506,0.003264833630081848,7.26
0.05273821962775112,0.006100696941833057,9.903783026381637,-0.00826471096031391,0.0014121640477544023,0.012191204394263877,7.2700000000000005
0.12215164095028866,0.07700824608464539,9.813889920526627,-0.008589359703770172,0.0022999861304376307,-0.009929642423589099,7.28
-0.05236514927162748,-0.0035469004993355876,9.924855264037403,-0.0008765905062980313,-0.011118763912801055,0.0060359876421300016,7.29
-0.030673639164561242,0.1027575539453478,9.673128225895246,0.0055491232131840255,0.007510003418604153,0.01520337279952084,7.3
-0.10369946121830659,-0.08846956815013696,9.994637067722728,-0.005792685967079415,-0.0008130798492792056,-0.0037236314252137724,7.3100000000000005
0.172077964235453,-0.10197802129844978,9.61331566055612,0.0077358026038350505,-0.004637439854562833,-0.005156415421209136,7.32
0.09351902818203647,0.03302492290065709,9.765070789577196,0.00811994599218355,-0.005194449484689553,-0.007027221277718284,7.33
-0.051498138621304146,0.14178941796414982,9.819585828636066,0.00312492490568472,0.013247478054004842,-0.00098910886298017,7.34
-0.0845231227985691,0.004870181720051747,9.873523574004487,-0.0008410012331238194,0.00018557826434204485,0.007219986708580795,7.3500000000000005
-0.011075760422230773,0.10477644185619904,9.858122740426023,-0.004784192318958474,-0.018071113382952083,-0.0035650575925580087,7.36
-0.08118073114810953,0.05044331718676686,9.822926927904518,0.016474494179557944,-0.007773283389270829,0.002816574314765705,7.37
-0.07261026152264369,0.03320771335780707,9.779876459670344,-0.012057049525927661,-0.009101113778746305,-0.003379605600619344,7.38
-0.023657658655344777,-0.018003281948823925,9.84982368101777,-0.007246977623814135,-0.013102387900913464,-0.014546964461472021,7.390000000000001
0.1604359523974783,0.32719416744233787,9.820646056397777,0.0060874708111165075,-0.03203819674384801,0.004285883284192301,7.4
-0.01641306639212672,-0.2885039086559366,9.936240900720707,0.014268287174240618,0.01275037452575436,-0.00517810240747029,7.41
-0.04331444429628756,0.0012036462078867333,9.861850263802072,0.007522086767859477,-0.006293284988672662,0.02993372806657697,7.42
0.04676230766935732,0.043167917144273815,9.8149789884858,0.008409094606191896,0.0032854090829612867,-0.012264288697353423,7.43
0.0469466734820995,0.17365946659430986,9.941638708321623,-0.0156274330918229,0.014095918657455861,-0.003679636658830981,7.44
-0.22987895183743118,-0.04183477835905087,9.759965236700667,0.004509832365729961,0.014696437536240108,0.023505955157215888,7.45
-0.14408364418291253,0.03234327379934044,9.716643741057167,-0.005713749402452431,-0.0030112960167948907,0.011385586836248181,7.46
0.041936723145980834,0.009543071682510314,9.756160424198862,0.011998135196897413,0.0060376600240029665,0.006857790902511374,7.47
-0.19190030071274997,-0.1574662701674927,9.680841491174462,-0.0031576196208111047,0.0013688921754646307,0.011059279604466577,7.48
-0.03258775293309494,0.07052454295488281,9.741617911932996,-0.0035393073317608183,0.015504012450718082,0.0032342622008228275,7.49
-0.05828370900468882,0.17670098889548128,10.05493940453762,-0.0020205195837155795,0.015103490502491546,-0.017638307399518178,7.5
0.1383420742274664,0.008136003758761797,9.758265328412573,0.004968036790806681,0.004103093104978636,-0.012045744829749006,7.51
-0.03805106018776322,-0.018466461827736824,9.813778552468897,-0.0029775637393441657,0.010669983130562496,0.0008560103407573284,7.5200000000000005
-0.0707454742023401,-0.1467452581205102,9.824745553347642,-0.014521747138426484,0.0024138205167907024,0.015570196866991123,7.53
-0.012420566710781346,0.06874426086687459,9.833077932677568,-0.00841310287254745,0.0027855140717998124,-0.027439771058179463,7.54
0.03467137610494705,-0.08920957914903088,9.951306297187518,0.01592235882560187,-0.008813751153334463,-0.006479686247420917,7.55
-0.14053249012098665,0.04874621412185203,9.844473130222795,0.006010287174229551,0.00607885077358462,0.007216077434875372,7.5600000000000005
0.11596979391128232,-0.07751722586568577,9.747747296573054,-0.015195607161076357,-5.5832810493836674e-05,-0.00022275031472195403,7.57
-0.029733484587485884,-0.019973805379930404,9.658360867835546,-0.0008867407656203275,0.011752552022022227,0.006615425874661177,7.58
-0.03482084124164621,-0.10526015003178271,9.991388900156387,0.008293554203548846,0.006752005378679438,-0.004166484945516767,7.59
-0.1739675439426066,0.01410287942155685,9.72740009911254,-0.00035742680595480635,0.008278407004536342,0.00222669806972035,7.6000000000000005
0.16048074966607268,0.014080486893548023,9.917820982357577,0.004449690566131736,-0.01730847432894134,0.003676674829064048,7.61
-0.10561047744410422,-0.0331071925056216,9.799734993247366,-0.007306632978004539,-0.004299177715503025,0.0004488274255231062,7.62
-0.001572541365289847,-0.14419737481108116,9.819427655983223,-0.0028394260822043747,-0.000513425784945917,-0.00770789476639871,7.63
-0.11769218952894206,0.15986890039488003,9.773909679126184,0.0016985148281781313,-0.012366201151170018,0.01638779896849636,7.640000000000001
0.06351311962822258,-0.15887423506017928,9.68966633073677,0.009075714827883958,-0.006813097576002126,0.013712568337549112,7.65
0.08685490845610438,-0.004642021848313781,9.939654632416476,-0.009805976401193395,-0.015047260296385074,0.00024698524727968286,7.66
0.013494888613302076,-0.06698041647847146,9.82670156301145,-0.0066068643371850954,-0.0008768859584436676,0.012806894711831319,7.67
0.11480585847272036,-0.04675891682606541,9.640447358982888,-0.002444470377487297,-0.002064370919522143,0.005655949952771543,7.68
-0.07742057871942642,-0.15994681480779702,9.798008824536039,0.005556068015565197,-0.012114526783042836,-0.010541726396564382,7.69
0.0970427150988315,0.05658620815886897,9.828866208264326,-0.005003600203603541,0.017598586110479448,0.004136323641219193,7.7
0.07908173480519488,0.14820993421249215,9.70831923214158,0.007754483866791421,-0.012109675354963047,-0.0012675684596161105,7.71
-0.020350440894900148,0.191192148914298,9.915836136233247,0.0064057343305870245,-0.00463190196829216,0.0024108359825448455,7.72
-0.0875808120663253,0.028999107519548064,9.728856519081674,0.006284783948643017,-0.010931485210771108,-0.01997989286978895,7.73
0.15040017274386536,0.11405976296869065,9.853523066727167,0.006326145921293863,-0.012955599880297305,0.015603117396676589,7.74
0.11990100830949274,0.10371241116055285,9.696870786848764,-0.005429871430644381,0.0031846219755611487,0.003250711364796087,7.75
0.044534952248501486,-0.09146891286673466,9.719714359238884,0.012351624684088435,0.0098793060093809,-0.0060351438911817185,7.76
-0.0224684599109004,-0.03201678912612355,9.83307034225305,0.0011032880076964709,0.006851599689543888,0.004711235872239745,7.7700000000000005
0.08277491184042358,0.011886296276202834,9.86100342235858,-0.0033139484241410844,-0.0052651268639250645,-0.0007325248047777272,7.78
-0.07648172252868012,-0.0338170346031701,9.800923625512677,0.00756132425960552,-0.0077185400911305305,-0.018186157422647564,7.79
-0.03741716819808042,-0.45651397386464065,9.895377576875042,0.003201000047719487,0.022253039120336174,0.000970401875744541,7.8
0.17082140311997232,-0.10085869598019746,9.74971496726549,0.009147721851713092,-0.0069273085401422956,-0.022180405256536355,7.8100000000000005
-0.03417306446305904,0.013035693460329068,9.769303730323843,-0.008991376579430452,0.0033991033084212895,0.007607286324708137,7.82
-0.10421912698582957,-0.08403513556639049,9.936375715134881,-0.00039639023133641676,-0.0038305212467305,0.005856881093639751,7.83
0.034162432388528285,-0.008446622653849661,9.71068001239186,0.0011355772899941674,-0.003482492957437186,-0.0035561536656574357,7.84
-0.0050653647736330935,0.1396853685457605,9.869314349706022,0.0051380231606746995,0.003756753181977975,0.013880746203696106,7.8500000000000005
0.13661653432280577,-0.05377599620809547,9.988399281352823,-0.0008457109713043705,0.01950413960414898,-0.013448266446561101,7.86
0.03008999179581421,0.216658611579594,9.660312233745575,0.010798496728896236,0.001424358325745694,-0.0014490567738044064,7.87
0.037373068969961946,-0.10990351070507401,9.868760092237716,0.011065086529184327,0.011890651033050438,0.001097351833879876,7.88
0.04538206952995157,-0.03634121996483721,9.815246392836999,0.010021588706200147,-0.0020435487723950603,0.0080542529907125,7.890000000000001
0.10008625269443537,-0.10110526347146583,9.899632835089816,-0.0006405054614338132,-0.007980336501241202,-0.006646027340675731,7.9
-0.07327158527553393,0.13600543118002675,9.929034439155021,0.004932677812621443,0.001171937995373826,0.0017976677252227455,7.91
-0.04330096819210138,-0.046177164064238656,9.759398971862106,-0.005007332279889035,-0.004658648078315907,-0.006028929024958076,7.92
0.09793813243782191,0.058468523167356436,9.771478651728211,3.2448583401938865e-05,-0.011945068571878086,-0.0027328477210278295,7.930000000000001
0.0053955052721123865,-0.015542075689037106,9.714902912282,-0.0016803595948545903,-0.0049194690021604716,0.010214196886134612,7.94
-0.016807478638592322,0.19892431703615723,9.990918251624498,-0.008807107627102448,0.01511059646054572,-0.006262098138633658,7.95
-0.16118075637590468,-0.21993866067830048,9.796757018898335,-0.011480907733264434,-0.00795528602764445,0.0015711019398548878,7.96
-0.011657866125743918,0.07325721037404455,9.833828798617697,0.004136703700814146,0.0033689380461844783,-3.97128527000025e-05,7.97
-0.12010675298439294,0.03043148028457379,9.92451737858759,0.0013682346886002747,-0.0034510494283826743,-0.010715659292764183,7.98
0.0612494343040813,-0.11398590741235622,9.796736790011897,0.020659634714825268,-0.001019243076192664,0.005964761298173181,7.99
0.030867207710089297,0.06851757845580744,9.895200932175207,0.012162542293388525,-0.0036934569173364728,-0.0026565162520829455,8.0
0.1458246280078876,-0.12650965881762882,9.831136530289402,-0.012191684283459445,-0.021443240938360194,-0.013793949464515657,8.01
0.09848823633649476,0.059973174340972206,9.753865897314604,0.011106975965900205,0.013082715066327204,0.000557684874729629,8.02
-0.10071022206191271,0.0738015576120269,9.994239602619961,-0.006724318459003362,0.021711588966085063,-0.0009183172606752875,8.03
0.05462011687858577,0.06006922848831486,9.759853581445787,-0.00652076591965175,-0.014414857134851253,-0.007079329328733703,8.040000000000001
0.0067730358966655805,-0.09126778933403386,9.775156444761711,0.013211970050287439,-0.009446701781078865,0.0004890863912574093,8.05
-0.166636029966336,-0.0072712002236616545,9.79950256995333,-0.006544848617572048,-0.013508342989402138,-0.021035056804458722,8.06
-0.012385040008862428,-0.012539743798834236,9.657523086057699,-0.005546637715345574,-0.030559331162432146,0.007390859696889541,8.07
0.24460588413056145,-0.09806778966324481,9.887720461900518,-0.001955599794833503,0.006777033620785112,-0.009281755991434045,8.08
-0.022337399124498555,0.1456027947125805,9.802392268831378,0.01170946632396765,0.0006780668703597922,0.014136221036479234,8.09
0.013803231135139772,-0.011306177280870328,9.911312587505284,0.00583949352959863,0.020386329971890042,0.009564861744933631,8.1
0.05189871003226441,0.004168340269843153,9.75273585326649,0.006804045525935307,-0.0032754193397000596,0.01033473620289488,8.11
-0.09772091370016388,0.043321838759040755,9.847461148431034,-0.005661943953719232,-0.024512704607467465,-0.003382050845024944,8.120000000000001
-0.038555153216351966,-0.14001526942960082,9.761652268333215,0.011434219434591726,0.014420675471155327,0.0006956016763472134,8.13
0.06880425608099965,0.07701232425773756,9.913660080744867,-0.005196431421748289,-0.00656130147101462,-0.0045166210421011405,8.14
-0.11285172973888179,0.00251433318890955,10.073162062696468,0.01302323417606272,-0.0006360180276735293,0.008945733776745133,8.15
0.029215874535826497,0.015918093720706437,9.689575657404008,0.01657678672757971,-0.007422123943608014,-0.012388675103650153,8.16
-0.13653571287565122,-0.004123367139276737,9.68658321811233,0.004355602776293782,-0.007363890217815009,0.009530425670073539,8.17
-0.11125059681817387,0.02996475370719473,9.864488221375101,-0.007162248809810557,-0.012237916204502755,0.010344093227827502,8.18
-0.0963936643486765,-0.2366701576121832,9.809770774236858,0.0005285124822975062,0.014027311317674889,0.012769813440290054,8.19
-0.022740808160598293,0.07134278663157159,9.679165324634345,-0.0001875390554065674,-0.0033826095393521068,-0.00028641164920731544,8.2
0.11116303163982742,-0.08562787286335292,10.018505908273067,-0.0005033180508684304,-0.006325991489626957,0.0007008540452153461,8.21
0.0005483428172130238,0.08881218146599222,9.922998213886387,0.007757472257278567,0.010484292342013573,-0.0036528700331768405,8.22
-0.08901596958182864,0.07325490772206908,9.808100640936383,0.0032938240167320627,0.0040966917711487754,0.0026284418992941687,8.23
-0.07053415585703846,-0.11906900458673259,9.821697266405838,-0.021992959715034677,-0.013057765247767009,0.009497511980699702,8.24
0.11077099561844726,0.0528071733581568,9.698332418082662,0.005661080941192471,-0.0036926997073438695,-0.010111057048436956,8.25
0.10613128159199497,-0.02085034087754576,9.87041268602121,-0.002729418335395097,0.008255767144043986,0.01012556784598369,8.26
0.1758034502615168,0.014658215717426856,9.776509960245614,-0.003977492636034549,-0.0023240570215954546,0.012767657247639137,8.27
0.09025424417473125,-0.13385903896921633,9.965939194585147,-0.0018864837680754119,0.00027740097502925836,0.004315070921379,8.28
-0.11319112186184398,0.026233515631499577,9.815971949029425,0.003920637355619149,7.908530865978982e-05,-0.010084305395541667,8.290000000000001
-0.13613144170784394,-0.07073731039204582,9.767493462615805,0.00728683633725341,0.011886657875322703,0.01084681492651529,8.3
0.19500119884469858,0.13246968681555374,9.940717571540898,-0.01419028002197771,-0.009845486111076395,-0.019576771945340406,8.31
0.035080551966790725,-0.12901355981082166,9.84740002013209,-0.0030304913548260203,-0.006048111243405594,-0.00590421504187897,8.32
-0.2658368124620574,-0.044023139431244765,9.81610304900065,-0.006622931341170616,-0.001531451774863478,0.01477334565073378,8.33
-0.09719291614517507,-0.1605396306571996,9.806709387328471,0.00946793887021272,0.005951431069615327,0.0011600037860313944,8.34
-0.05506729107244407,-0.1560165998420409,9.90671510002784,0.0018641904835297724,0.0007986264609465654,-0.005825375087019151,8.35
-0.0981096462307434,-0.14914859853627158,9.926700993643452,0.0013724483767382526,0.009200137503562956,0.0034853067997467468,8.36
-0.25384275859420935,-0.12320509138465635,9.639885835969398,0.012479899374515983,-0.006456912962793437,-0.006183411084464903,8.370000000000001
-0.03233994339471545,-0.01712721254302693,9.742035614187268,-0.003586241938969652,-0.007602596105295542,0.01172335831794198,8.38
0.0812661085623993,-0.0295088266105433,9.59203034373176,-0.0076084780345193614,0.01275528738746654,0.0015412637459649087,8.39
-0.05555928218601332,-0.006822878929829431,10.088706803304419,-0.001174129103419292,0.004865946169949159,0.0045831992890601105,8.4
-0.285335071396149,-0.05325038254853623,9.866794298996062,0.002600727091649542,-0.019181829920987353,0.011393397128125416,8.41
-0.09080105593063148,-0.1171935445680875,9.887189141100993,-0.000959069153272933,0.003139087442230986,-0.004044095811444087,8.42
-0.12507804483506668,-0.020432774725157466,9.895196996092443,-0.0024299523799563645,0.014378231614213272,0.005876588741054645,8.43
-0.1584861304429847,0.050889696228684604,9.969837769890756,3.388352741935224e-05,0.0033247219452894306,0.0001331566195088055,8.44
-0.1193548671611662,-0.007211171210769307,9.705578605100415,0.001778371672453421,0.014981300283200914,-4.1513979686080585e-05,8.45
-0.07599000470900007,0.032246805083414924,9.823799044648863,-0.002026696231972969,0.005049373056798406,0.015116119462735023,8.46
-0.11667319354078393,-0.1157216169645598,9.679628589415262,0.024850787313670963,-0.004090471330962896,-0.015491166996903803,8.47
-0.1308625140771972,-0.06318054304990252,9.620915911065678,0.010981024370839062,0.01072833945823548,0.0015871007839793237,8.48
0.08874512310359788,-0.15128087693790787,9.724221993798007,0.00470754199709308,0.005924866062904244,0.004245608832372017,8.49
-0.010511221982731276,0.1525175708867674,9.8050730069021,-0.015945404364078535,0.004251935968651283,-0.012910301690842639,8.5
0.1343247559091495,0.15150152482640658,9.910198876101262,-0.013731501867397007,-0.012406855318765633,-0.011099376207790026,8.51
0.033980838326588485,-0.25472628515491486,9.991984707050321,0.0028891087082825884,-0.00041069843944499616,-0.0045419962856194035,8.52
0.12050582596784948,0.14171622540405135,9.655497785238891,-0.006418075768350108,0.008023069226918,-0.0021521633472386665,8.53
0.037072257142595856,-0.20296920660004833,9.90095198987451,0.008427732306568627,-0.007834634373427544,0.006876209837121299,8.540000000000001
-0.03226847958081823,-0.037515320892337105,9.763185142312748,0.003968862631949917,0.0014414041177757697,-0.00725800988536511,8.55
0.09817568592671422,-0.04958655160798156,9.907020823450878,-0.01177522680295461,-0.004031315586585031,-0.013989663829971409,8.56
-0.07088861393345001,-0.1953964436330163,9.749517957774698,-0.004904332429984317,0.007918038166830317,0.004688784770562483,8.57
-0.1946414060486487,0.12316833711289635,9.836833372896606,0.0060767999337255005,0.012184217449398224,-0.004880787603004515,8.58
0.04320316308125839,-0.07315470727053999,9.690619958167591,-0.00507876274349373,-0.0046995192678991726,-0.007597461923158715,8.59
-0.05805110508667454,-0.10964971534773688,9.810036214470747,0.0029503255748882453,-0.02324539613160229,-0.004146921587903455,8.6
-0.12926402059480455,0.0007836948248850046,9.553752073251314,0.009446108485675418,-0.0033189771080548,0.008152065004092228,8.61
0.022178457117302833,0.057114324289411135,9.963119516093675,-0.0037782119164826125,0.007437554118583768,0.00819575877500291,8.620000000000001
0.17136924460808697,-0.02209046262046896,9.977196587061222,-0.004315504182168194,-0.003409282494635356,0.008476769983845184,8.63
-0.0204877301481234,0.06111191902262991,9.767232312406504,-0.005472742502004036,-0.008144162688627115,-0.00732386223782398,8.64
-0.020289068274316414,0.0001967222953459096,9.750561697603537,0.002461233657842345,0.015440207220360429,0.00438220226558014,8.65
-0.040921428361101575,-0.05602003529583091,9.830850333379454,0.011446344759532972,-0.014914768992886056,-0.004777022455823825,8.66
0.17594586562945672,0.04761196995667701,9.845284030728099,0.003642417477469277,-0.019358006228692808,-0.015174434410624911,8.67
-0.001144302619942167,0.0019888812635422645,9.761951025241867,0.0009749975765689193,-0.0003507378097996197,0.011019525533880139,8.68
-0.0249578182117641,0.0027166052626417412,9.852597956201201,0.0047221838326028795,0.017193812310041526,-0.016208590833970134,8.69
-0.040659503883278915,-0.10565823064354335,9.866000312634693,0.0072017228985560835,-0.01293041580426155,-0.000379194787392367,8.700000000000001
0.11113312961072115,0.10444708799611752,10.020510470417447,-0.011699083102566296,0.026417684116146433,0.00028439850117599165,8.71
0.04923771668383117,0.05518539398572049,9.734366639576214,-0.0045818531349163,-0.006767808710358517,0.010447268151955591,8.72
-0.014518306477414356,-0.11359360911443879,9.693850886124482,0.008656546458934218,0.007782397360866857,-0.0043327370405767405,8.73
0.06476190071756904,0.12102142602538135,9.863833417002118,-0.002770750762950559,-0.010320705225966125,-0.006970114974153387,8.74
-0.030263053411740088,0.005041346925638602,9.710287547462931,0.0064546339796364705,-0.002152817350150215,0.010262336851016003,8.75
-0.0861548465013311,0.22557194563033317,9.78635192382583,0.015346442777112767,-0.009070451959377687,-0.005254011635411115,8.76
0.0575686180371087,-0.01202585139496001,9.753113912695296,-0.00482647263587568,0.0027827070648263025,0.0014802292478874202,8.77
0.05518531955289821,0.03901325826486673,9.636575454049622,-0.0041728103155234345,-0.0013608469388382714,-0.008085813799153659,8.78
0.040920046754057596,0.028902527559731817,9.64189534808715,-0.008986041837587184,-0.02232621256951994,-0.014029068891562902,8.790000000000001
0.07484505879904384,-0.20437037777549874,9.789875474661224,-0.008743367148051087,0.010010213165126316,0.0007809432346927174,8.8
-0.0028386729664994265,-0.1359483213498499,9.815227013271716,-0.010015920392976982,0.013533859312217582,0.00549541036824544,8.81
0.05488901757132504,-0.003423657597015586,9.795411624410429,-0.011761843860718988,-0.021268607712130377,0.009283679076167247,8.82
-0.00815667701757333,0.0852173154633146,9.845062570031411,0.006234390218326038,0.0055452318421956946,0.00034373728043553465,8.83
0.026607595109420647,-0.008056053997167426,9.845313367573544,0.0014957220699333262,-0.010767797168715525,0.010253943951915747,8.84
0.018244287402118812,-0.0659655443330614,9.841265313681015,-0.024063274553753608,0.010253459953910485,-0.005604348141500638,8.85
-0.19665773034123968,-0.046297741362872825,9.715423432910983,-0.002959660207264682,-0.013135029512005266,-0.00577653749797519,8.86
0.13920142033050226,0.03653212977428094,9.735324388294787,-0.0038837721285982247,-0.0065377513800248845,0.007694616640236169,8.870000000000001
0.07023860902035307,0.21713409282983887,9.678280326995823,0.01323323871013841,-0.006122223631457874,-0.009329290509750043,8.88
0.20772565766306172,-0.12090893985489655,9.709232474225248,-0.00905128976363633,0.005069954078846004,0.004636529083756922,8.89
-0.1375918374328071,-0.16254408535166887,9.88972321363143,0.0032927017034048846,0.008063281164159912,-0.009664096776941753,8.9
0.020729347230551004,0.08458796431256796,9.874373713920384,-0.028243006457274736,-0.012033763141628986,-0.003856016061482592,8.91
0.049437280020568616,0.04865339715632935,9.758346622693498,-0.002357709013583483,-0.015322868972096719,-0.013054110658227454,8.92
0.0705414201142197,-0.041953384380913276,9.853122550089275,-0.007039005733340267,-0.0054335686638904935,0.004770242008200284,8.93
-0.11978808312827077,-0.04733910006367162,9.820385225592785,-0.009846030711590004,-0.015297557190689284,-0.0010538700337972132,8.94
0.04923137382934485,-0.11136288809377895,9.756158191623047,0.0036667459152499972,0.012465367963823618,-0.0007159567919475727,8.950000000000001
0.00046804000748922893,0.08346436939256519,9.794433277150656,0.00133270700141197,0.005096159850211083,-0.00491489172598151,8.96
0.013326938465076788,-0.02636471998174876,9.772515411343067,0.0008755442126670355,0.006336540529237969,0.0022625792591504236,8.97
-0.1268622353062889,-0.10517851700814816,9.886187641197585,0.004236952090461667,0.008280299044169928,0.007993553406839441,8.98
-0.058774708575844464,0.04967303421763135,9.824280802957386,-0.0085696932144858,0.015134133373655451,-0.002629950857846545,8.99
0.07685013509020078,0.052148348884433274,9.70767107958746,-0.00436815242571179,-0.00428836269075742,-0.016754525882832497,9.0
-0.10902698708619958,-0.17800377936124537,9.85040957781112,0.0011637240203314111,0.004443295646478417,-0.0040279523870894555,9.01
0.12700050115602604,-0.1417288780284286,9.662846852992658,-0.021389174303334323,0.02488649932347053,-0.004233160343948243,9.02
0.08310156796946466,-0.002722205128293775,9.768530758062576,0.0014644983780691347,0.008703718315810656,0.013646915935076429,9.03
0.09381504891907994,0.05098652119280307,9.971825052381632,-0.022649290080322904,0.003556557751383919,0.011020608290109238,9.040000000000001
-0.021039901287652995,-0.0027273133621943378,9.930230325973522,0.0015821131671240063,-0.0032601254498554806,-0.008465764217354508,9.05
0.058458476939163985,-0.031795664854720525,9.774074493590312,-0.003454284015952473,0.0068874592289097,-0.002959793259219947,9.06
-0.07292255555296749,-0.0753785530157376,9.821164439610538,0.004297086925202231,-0.01043311831614926,-0.0011978817717125517,9.07
0.1284392339632625,-0.005350997105199239,9.953196634560612,-0.007134243435179729,-0.013244017052752752,-0.016688720214224607,9.08
0.02530914011626317,0.0800602953777898,9.894703959689396,-0.012208312717644535,-0.004766009441587223,-0.007742744975831739,9.09
-0.01736082304634347,0.027137632441335758,9.704624283939541,0.0015235722118740983,0.002725038139820603,-0.016114923632582098,9.1
0.03438201811051544,0.3160558854181003,9.827250174543638,-0.004691828273678828,-0.005551305330408941,0.0009267993309190465,9.11
-0.0523140669890952,-0.06338049256287384,9.72450043697661,-0.012525851222695346,-0.005233428594183063,-0.0006504934999491558,9.120000000000001
0.02392695679034093,-0.07452026390948703,9.896853052584484,-0.010608367426939672,-0.001768031970167751,0.021044511555972267,9.13
0.10860804392035837,0.15357833463150602,9.862301498353908,0.002721007927098213,0.010408467328623137,-0.015076855579684174,9.14
0.011740098777461079,0.20578990351732174,9.79990471290874,0.009178878575667777,-0.002909033062992348,0.004960986205822945,9.15
-0.005616765569280751,0.1647190984199886,9.770053012810124,0.00570878882101133,0.009324176640551095,-0.013488703154265454,9.16
