ax,ay,az,gx,gy,gz,timestamp
-7.406352035982298e-05,-0.06847752846817823,9.7600225896368,0.00835515263099823,0.012454602717189865,0.007342811677097586,0.0
0.036509925973035734,-0.1628864166398383,9.841281184718383,0.0017100417788283515,0.0028581368276580743,-0.0037163202322195834,0.01
0.22421475372853306,-0.044301667215710896,9.802963025050753,0.00269459903213607,-0.007596329572946253,0.002538310415735804,0.02
-0.014552319069967621,-0.057392491229821624,9.72579946608751,-0.001694643426715116,-0.010729449236113143,0.0005226022113079794,0.03
-0.008450465906873761,0.20337741026115796,9.776637571624725,-0.01205950880175561,0.008173853430139568,-0.014716708257098778,0.04
-0.004860657599126423,0.1790035762972553,9.99920765735044,-0.008760644583629091,-0.01496769063912358,-0.005183641321526548,0.05
-0.23824143449849955,0.05468547020551376,9.762671964754395,0.003008476661182407,0.017907746522426788,-0.010468929274280045,0.06
0.12489947912186328,0.042384183896357716,9.798896833983438,-0.01394873034655041,-0.0034093352651002225,-0.012141315602761122,0.07
0.18283612621603013,-0.04688081696678135,9.637258369459266,-0.006693575652077707,0.0005672296988376676,-0.015238727836635586,0.08
-0.25278510361334955,0.16392027346900634,9.912000723763228,-0.02245869293654514,0.012626249313680504,0.012004077842483729,0.09
-0.052662291684031026,0.1084567689596083,9.874919152769635,0.007004993178281515,0.020462844831334124,0.026387337253544904,0.1
-0.025580586313400835,0.02982393296089347,9.677610584217025,0.011431252716055799,-0.006401364435073425,0.003591425608529014,0.11
0.018496595853894342,-0.1408772565366627,9.834534299670322,0.025685639404185,-0.00024244560169601502,0.0037719062824906726,0.12
-0.14019180258859162,-0.07045604099255125,9.766919068653936,0.00035486616001536187,-0.00019317741797635635,-0.0012833032411587399,0.13
0.15304288261134602,0.030737461294553077,9.930415723676704,0.001963704619577213,0.006664100041490331,0.004029275587389724,0.14
-0.04910656908616897,0.08770720396630244,9.925854662398764,-0.004946155099139911,0.003397105785235768,0.003233731590203638,0.15
0.06982281640472968,-0.04148309190129561,9.851823714089742,-0.00945033022570418,-0.003602482485141454,0.004893690551932673,0.16
-0.1919068504901998,0.14008536896590826,9.560867265017619,0.013690458514237658,0.002109546238601404,0.0009107551422584039,0.17
-0.09753223964908972,0.04310857014557068,9.524307513913088,-0.01666321506101726,0.008271138603121881,-0.00416261114415339,0.18
0.047250514417965,-0.06642753198881994,9.713016456438874,0.003249973220507556,0.006218290799385617,-0.005551672907415654,0.19
0.0007447818961408992,-0.09042925496382265,9.810603697259573,0.003914801101581589,-0.005931506595842896,-0.007444593174746437,0.2
0.04202810879054535,0.19509479152543097,9.946238363925685,0.004923392251621481,0.009179744308796891,-0.009508814300391548,0.21
-0.06602406386956151,0.03778508053672309,9.584548649486615,-0.002811888029539492,-0.016775251542352758,0.011205218695815238,0.22
-0.044263608451079926,-0.0970405992776555,9.85506315102525,0.0015789049932425682,0.0032014213197402446,0.007120969349447686,0.23
-0.1729695170004528,0.1016456217279028,9.767593019572606,-0.003960334628956788,0.006934325268307344,-0.02589043259536198,0.24
-0.06951927971669923,0.0384039006457136,9.9568033023527,-0.008917940405816902,-0.020912021643980944,0.006324235045242542,0.25
-0.01803652585519965,0.16443683236153647,9.800871726295576,-0.0075176735706932165,-0.004638457050236195,0.019222498495805894,0.26
0.009213243327049694,-0.11483072056486435,9.741886636791012,-0.02123976937075189,0.0034900233036002024,0.013864788792599201,0.27
-0.14248721136766382,0.04891940308649538,9.80246514369375,6.861662282245408e-07,0.0008287259304845579,0.009609811634328221,0.28
-0.1615505617489947,-0.20449427482549243,9.623751069901802,-0.014261332175959799,-0.003720996600688516,0.005609176383480214,0.29
-0.009932854177921566,0.0718284030240112,9.86309687004889,0.016180891075675576,0.012775194639307454,0.018927512024592558,0.3
0.15103895027589198,-0.12257314057389715,9.747462306475988,-0.005122050440049407,0.008534758752896018,-0.018541361763721342,0.31
-0.012076893368538255,-0.20620288192061154,9.851703652369041,0.010878550038132517,0.0034826553310382535,0.00448299637990001,0.32
-0.0027069160637888225,0.03028562943092298,9.903177894471531,-0.001147423458946792,-0.010778332147010997,-0.000984471290392886,0.33
-0.04790405647501372,-0.05087440484149213,9.69312968911765,0.014240462720047684,0.004962826066870279,-0.017793716515366195,0.34
0.1627638952105407,0.04038304754006909,9.952957098396912,-0.012172448448607131,0.0036846466147981392,-0.015651613790730184,0.35000000000000003
0.04156680157642447,-0.16247864137595716,9.903651992486925,0.009280465951138375,0.007472118180792995,0.00016062164983753362,0.36
-0.06347960233864096,-0.16100368709719012,9.669275119105992,0.008977826129936596,-0.00551931075188583,-0.0027583301176080455,0.37
0.1828585577358745,-0.0662248947557545,9.781615097898781,0.007239322045136988,-0.008274328321090896,0.012502870952083465,0.38
-0.168195538038317,-0.06394476875527928,9.686717526300356,0.00578220436190423,0.0021821113598088342,0.002081592767821639,0.39
0.1515713381343715,-0.02563067176097838,10.07978256215025,-0.0013480472303233394,0.0011482235564141434,-0.005134465746456219,0.4
0.01003457547758102,0.01424252494438405,9.744953320324278,0.0008307126376736556,0.0014470825655172373,0.009953438326232905,0.41000000000000003
-0.009307040771114652,0.042805223508565034,9.80659328593777,-0.0016393784138953175,-0.010387665845754998,-0.01409358674449062,0.42
-0.03560097830695522,-0.07850663950762388,9.894752863985785,-0.0009714950657820008,-0.01813567138172301,0.0001890279959871905,0.43
0.02055379486773485,0.015278966776559086,9.825748862193757,-0.0004884695650977496,-0.019740352994207244,0.002968902003577826,0.44
0.15818709921691018,-0.2298843786853194,9.691259160660644,0.011258338599176583,-0.006732005872660269,0.0003599153239856997,0.45
-0.1223737211523593,-0.1687424465388088,9.70279511078827,0.0046235786355097305,-0.018085161125925096,-0.0047770256134743675,0.46
0.06404952760946446,0.05423928077417385,9.834702214051662,0.009205963343298384,-0.009311779239958967,-0.004892768957551242,0.47000000000000003
0.143356510370201,-0.010817813828736762,9.695329215916187,0.000482291119820894,0.007759759973774859,0.003597803015660563,0.48
0.21053733373836164,0.038772663513305355,9.591141491954305,-8.081701209086274e-05,-0.0024730235862693837,-0.0017835752403441805,0.49
-0.04463261158286079,0.06899397767189802,9.857857797008707,-0.006750796271643925,0.00042518514140665084,-0.012103817751437944,0.5
0.06466528202363385,-0.02114398506214794,9.724936899355225,-0.016309064151723184,-0.011628546306408702,0.0034146451061984563,0.51
0.17091825973838326,0.07110704388310035,9.769876710016662,-0.009512784605531533,0.005730770702314484,-0.007607906926178798,0.52
-0.05598360329088917,-0.07816499592606355,9.847880848523248,-0.011563752073027374,-0.0006896410748158184,0.006156884158030673,0.53
0.12810701577090097,0.034536028651478125,9.74167792994653,0.017398393590842713,0.009889097593677744,-0.013646848021683398,0.54
0.0018902325228995398,0.1426037224097366,9.807682347685839,0.014991112465612142,0.009764904242162597,-0.0036672160787329685,0.55
-0.04104579453796046,-0.16436800559769948,9.878160772632574,0.006459310286064911,0.0030633189161861393,0.02082536990025393,0.56
-0.10017458055535955,-0.10578182001521395,9.825909314406752,0.011357373739479893,0.0049816837930014455,0.007571610720272648,0.5700000000000001
-0.20045258210602018,0.050889157868123806,9.824912165505697,0.008549161258462827,-0.000316317338149891,-0.02363617295505968,0.58
-0.0795829209549608,-0.0827208943253837,9.776632790870728,0.0012161000176026467,-0.0029812881515648166,-0.008264901262743008,0.59
-0.05678236750145215,-0.03218653904763366,9.849221495817787,-0.01091700139782978,-0.013598599776190452,-0.01283813361081071,0.6
0.03922224914600172,0.008950787364065575,9.714029439526655,-0.006757264419483465,-0.005451690594112291,-5.3735343065608e-06,0.61
0.17147566130602396,-0.13966958883022226,9.845966823782495,-0.011064251898366517,0.0032787982022935702,-0.008813883372613433,0.62
0.12156044094826263,-0.18699423547942298,9.586741955238837,0.0013883283050400224,-0.002263157373158317,-0.0040721437491911166,0.63
-0.0038647812989227523,0.07232767831676096,9.949461463093188,0.012561678759154121,-0.029930761565305136,-0.009820058395851953,0.64
-0.05585439934900686,-0.05703779429333164,9.85779386667931,0.00047841322155588845,-0.0015679986733926749,0.008831633030143273,0.65
0.13013499745088372,-0.0014189454614710396,9.854300780252597,-0.00040367692005622825,-0.0011122830389739787,-0.008440886101512134,0.66
0.18609720871764823,0.047651869982824446,9.802477597855006,0.0036537351239472426,-0.004894755114427356,-0.002237041446248796,0.67
-0.11707802069800673,0.07651654429903904,9.776235169679156,-0.03176325731657254,0.001866094273299228,0.01357511728271345,0.68
-0.023197467280389825,-0.04711271785866489,9.757498839451982,0.003051037809570242,0.009393751021930486,0.006262329763505483,0.6900000000000001
0.09332219599650457,0.11141444191168898,9.874706662235253,-0.003963025202374243,0.00582628194944653,0.003936197468693895,0.7000000000000001
-0.01956703743859485,-0.1006493592998853,9.770431246103916,0.013605046162444524,0.008148848238088218,0.016435101276169733,0.71
-0.12540904018744722,0.16594072728539244,9.77056185597586,-0.005103789027072376,-0.001337776435407073,0.005632774465001722,0.72
-0.09939720314232336,0.08547245174102086,9.60899101707787,-0.006526207594862411,-0.005911796804834694,-0.0038622978410748775,0.73
-0.04845619127575925,0.05815573575602554,9.804230197349987,0.0036825371255357433,0.004579196334771449,0.01663830136216894,0.74
-0.033331794936041124,-0.036874320358914824,9.91160435480709,0.009045021272667365,0.004614606237832156,0.020458120747822377,0.75
-0.07352950623992278,0.029943338507354002,9.905716772711765,0.00020739993959539252,-0.0034320280748267092,0.013615326429636077,0.76
0.018894501441421806,-0.059215412099527125,9.761221341603934,-0.0014602362539778838,0.010806291530923247,-0.0054237814049817755,0.77
-0.13221835110722693,0.02750897382443847,9.80635019051578,-0.0041134616083375285,-0.013383380736762778,-0.007788993973174085,0.78
0.20463199861319625,-0.06361763015827386,9.847205201348165,-0.014573005187433026,-0.0022718978383593773,-0.006670792753091422,0.79
0.04928312429465721,0.09584349225868932,9.80348927266548,-0.00652028437890408,-0.006621376438025616,-0.00031403922700788423,0.8
-0.13254526680223086,0.07085776664258985,9.834506786483349,-0.006240745817748035,0.008484539547224616,-0.009015424965145173,0.81
-0.0569328644711155,0.016410737517819733,9.857778956906925,0.009416506307263652,0.01199026827138734,0.004370531473508671,0.8200000000000001
-0.02156650185686287,0.03255430957026983,9.871162482788712,-0.01270916847598051,0.0019415403133497921,0.0166492581352505,0.8300000000000001
0.06261189603533712,-0.08014108345278496,9.679055221311641,0.0028272568076101413,-0.0019070243602824996,0.020647325201033212,0.84
-0.31197266004574203,0.13287050231293882,9.797207349619274,-0.01538763052373504,0.017321354715387444,0.006117319142041829,0.85
0.14150546425291152,-0.060324378888824096,9.811370388712048,-0.0012928759050634482,0.004897220010164643,-0.01635993402396691,0.86
0.08241631868394446,-0.10051799234899944,9.735175660476674,0.004369716536824557,0.018196456883434877,-0.00734747315157249,0.87
0.14637000387235888,0.1920649877309221,9.77426872494236,-0.005530569829513812,-0.005593676851750797,0.005013045268659151,0.88
-0.006976595093529556,-0.00268028934422616,9.628215103450003,0.019950579580794842,-0.008446117727137846,-0.006190283019696667,0.89
-0.13188659157244606,0.1064385977183767,9.966550635928238,-0.02185618605185413,0.01328348942045493,-0.008562585405326369,0.9
0.13848328170000287,0.07060211069493891,9.591390871600035,0.0007225971342702827,0.020420008150269484,0.00426419647174733,0.91
0.08700564410236802,-0.027841756850580053,9.838894831029657,0.024111083629084908,-0.01386413857012551,-0.006272368341486823,0.92
0.07553794080407294,-0.0750163654500991,9.743717027744335,-0.0006610389325331234,-0.0063995518225474215,0.01941837954672096,0.93
-0.10477016258760515,0.09766454648173106,9.803541074123139,0.003379706556307496,-0.006677835380260106,0.005807267844247364,0.9400000000000001
0.0650085266875032,0.021398391250192286,9.89087552358818,-0.03002870756667536,0.010241133625286978,-0.0079638167978577,0.9500000000000001
0.08410959649926937,-0.0687593163773924,9.731702141427343,-0.007128647424760611,-0.006389104658751788,0.018011162304329923,0.96
0.0020101623260369993,0.03725223559464482,9.955006877720017,0.01929991894363843,-0.005930292189868518,0.00394048123181887,0.97
0.06062923044249591,-0.02146913031747942,9.925797203462466,0.001315900032529594,-0.016197146038784686,0.00889649212375226,0.98
0.06845292305340815,0.10341198938551113,9.756340363604625,0.0019458936842537938,-0.006738039206849608,-0.0004641930418920499,0.99
-0.006014621975112201,-0.018838196071859516,9.842441943687573,-0.011354488633112843,-0.008984698990636369,-0.004474536826727065,1.0
-0.03516146080473832,-0.14181036203625286,9.771275063385598,-0.0038898922693761362,-0.0181758025383903,-0.016870016961147132,1.01
0.0987821295415015,-0.1556079178493782,9.69125819130977,-0.02102505687109096,0.010934116551328539,0.00895631253458708,1.02
-0.25649861921283096,0.15661270507973354,9.729230453073855,0.013282666969815041,-0.011722303861379645,-0.014496378401694798,1.03
0.039094636810604974,-0.05363607573299992,9.677482726517137,0.011422506401932453,-0.008016572217009618,0.00920344484287022,1.04
0.022699500614406593,-0.024973691692407166,9.744007191250347,-0.016965716049211436,0.004725107513581091,0.012147230451969998,1.05
-0.1063249412166652,-0.09160974737150332,9.787839915985266,0.0003551490977877672,0.004524776904529692,0.011704173311407017,1.06
-0.14889148446587683,-0.08698295104064058,9.858716008071047,-0.008760352174790728,-0.005200203188716727,-0.0059403423048178,1.07
0.03370390852252636,0.14214757884688775,9.948591115722982,-0.01196400297896091,-0.00462418552180657,-0.013918099375610858,1.08
-0.032335211225631,-0.00035316795218799933,10.014772729068383,0.011557379282216658,0.013399059334578023,0.004774696967489219,1.09
0.04836164181547975,-0.14799348804552034,9.830184533253579,-0.005373561221964632,0.01212421563199794,0.00775800854946036,1.1
-0.2075501776891125,0.03384047039372325,9.780176728023514,-0.0006563804039204377,0.01696814896507693,-0.008933950021600244,1.11
0.04674980127595443,-0.008904354270051349,9.85667871662665,-0.01604285515805319,0.004142261468858015,0.002339034616465271,1.12
-0.11513520461054366,-0.08960442188793888,9.942188234045148,0.0019862920787674064,-0.007422854286638392,0.012600959835249568,1.1300000000000001
-0.007259863740349397,0.06415822470971012,9.786162430033734,0.017386730755560964,-0.001697951649438927,0.0033270320280857396,1.1400000000000001
-0.09118450914513185,0.08922906217198569,9.829454947269756,-0.013501938866006034,-0.00501609914008342,-0.004161806123375077,1.1500000000000001
-0.061198176822775355,-0.09320804875168673,9.7476214550649,0.002357715674256012,0.01746913054444125,-0.012410273269143166,1.16
-0.16529042491482548,0.0005218933867611966,9.648968190522105,-0.009946757528914843,-0.009170819761734075,0.008785410793180673,1.17
-0.13929452818994326,-0.04088556536896636,9.782051986868671,0.011915114775807261,-0.013077821706784055,0.0059126760288565885,1.18
0.09079758433991697,0.05470723692885113,9.581218665704569,-0.004595176045947437,-0.007465457049807123,0.0002993688938572659,1.19
-0.05973905179971592,0.15961205588936792,9.874310081340058,-0.02073417572255374,-0.008007095232362801,0.004472941229304381,1.2
0.12305061425821642,0.022055360516054653,9.632208245477742,-0.011974526282858675,0.0024555359311119363,-0.0030389316223235693,1.21
0.059451495940955536,-0.09158881827133027,9.868035634315202,-0.0026550973305028164,0.0005006819217757416,0.007309576000945245,1.22
0.01597515959152641,-0.17017902965479476,9.8667512994443,0.0050325359233120235,0.010443443220414095,-0.002808095176908596,1.23
0.03357283534006635,0.023942226110238017,9.78955139078629,0.00047192394795919624,0.023975442901278794,0.010964068467588376,1.24
-0.017024649582324344,0.08740650800968276,9.62030030288197,-0.00994491460681661,0.020258555182480972,0.013464550445634596,1.25
-0.020635609614384588,-0.1530240147134806,9.709855916239947,0.003558525417064098,-0.016380806374769203,-0.014833810156862963,1.26
0.11934357649455846,-0.021503229672402313,9.743993583574186,-0.009244316637143089,-0.012101037016780891,0.005182589677832034,1.27
-0.022673865703284966,-0.007477391857099578,9.83798661561237,-0.0032829863786325293,0.0054151100325175875,-0.003843298033532667,1.28
0.004187095479753902,-0.012303018238701474,9.98833241512062,-0.018819602297377457,-0.008953034152320951,0.0002715583179055025,1.29
-0.03392863506505924,-0.1515232006785854,9.84674099645374,-0.009853896462315392,0.0020495131317620928,-0.011259279227439968,1.3
0.005939294681461204,0.11609420016416533,9.902395777811323,0.013825644735855137,-0.008928844434507503,0.009425339129769783,1.31
0.08177846476071735,-0.0225815088572733,9.812206257352374,-0.01787016514126309,0.007071507276540707,-0.005906114196230025,1.32
-0.02680782960576616,0.09116057411241958,9.822098251128704,0.014668923151559021,0.009795322061221192,-0.005870912891826169,1.33
0.0674687381752657,-0.09390364665542272,9.859832699364903,-0.003033261941372163,-0.010287225678297447,0.014179274835827146,1.34
0.04406513254127853,0.10924296526117268,9.89325894356026,-0.003355709958407936,0.018589824864123566,0.01735557896174669,1.35
0.02441520000254698,0.059464369548946294,9.614042085309904,-0.020633422165088313,0.003684002202922639,0.014408839254147017,1.36
0.21760663024829396,0.012867332092991818,9.834099922836486,0.004275634755355207,0.011826749133138201,0.01365690692879082,1.37
0.011700583121325991,-0.04679165163504843,9.645814596162943,0.009813699173491992,-0.01691722647586304,-0.0029328921157153664,1.3800000000000001
0.10876142599924606,-0.004177712063387371,9.79545345428502,-0.00421319804427391,-0.02374204106225102,0.00971573967399605,1.3900000000000001
0.0422622928355511,-0.06986361987547005,9.675089371235119,-0.007295180656894927,0.010826258508514033,-0.002659917592124895,1.4000000000000001
0.1272620280246514,-0.022030310738061266,9.78000611449165,0.007119321640692681,-0.0022145110936615795,0.00469673470346321,1.41
-0.028225187646006584,0.23119439483223397,9.800391075514696,0.0064162154665315845,0.014378789268009276,-0.0072693521938385,1.42
0.16332633302496358,-0.07570177002237058,9.792905664758417,-0.007933470551574206,-0.007507074853239501,0.001839294967556448,1.43
-0.16275370539250222,-0.09624354876001502,9.724480822117798,-0.0043772953173506525,0.0037859350433736613,0.011313272793171672,1.44
-0.0986710846402974,-0.015617007053628944,9.849690649155267,0.0007351293799082332,-0.005994947795521221,0.006861551774699769,1.45
-0.03296147978066221,0.11001435907949307,9.799393082996778,0.0019623081819187048,0.012540053830822545,0.01225673852774833,1.46
-0.09044645394320269,0.035993040147590624,9.813118463687097,-0.006474163498649358,-0.0016993176190475887,-0.0026467478603553174,1.47
0.17588981223090033,0.027236020616415713,9.888677403970641,-0.001973189538315241,0.008192217224009528,-0.0011637692058446619,1.48
0.14493782718386197,-0.03927555809310472,9.706245187941485,0.0035966137128338855,-0.0050139128117649345,0.01786382745921523,1.49
0.07084523508559092,-0.03538415848943143,9.899851125984823,-0.00408173885638455,0.006719320680110619,0.005482811104210795,1.5
-0.011960042016997283,0.02183787158542557,9.910007210473525,-0.007808903353748883,-0.0009255390027656682,-0.0036519493206446296,1.51
0.04061195643191794,0.23195471784189792,9.937196287618525,0.004053066161887347,0.00814575160716008,0.013482118208804192,1.52
-0.0027074915573226783,0.11575196718604595,9.594699155667774,0.003998726302609664,0.0037027239414065306,0.007375156854529483,1.53
-0.021221927424633254,-0.1386535067013195,9.511798441686402,-0.0016289856418374008,-0.011766614795029176,-0.0075367182772863904,1.54
0.04458275683258031,-0.16112496749081512,9.942673701185395,0.011636556377143488,0.0034307278872318563,-0.013102809639220126,1.55
-0.05822488272322551,-0.03968413720505849,9.626366228120203,0.012666636244330088,-0.007113457875152716,-0.009410643303326837,1.56
0.03654738340862234,-0.0986154161603114,9.871042382229604,-0.003990076198117304,0.024542255178949035,0.0028610032715979633,1.57
-0.00590288158928232,0.0322255619920192,9.702640166832264,0.010306207418186213,0.0041537093925018255,-0.005349336498212421,1.58
-0.017331319145241046,0.011565914923310723,9.780622554654245,0.00604481459750581,0.01412431967094515,0.0029448264346424737,1.59
-0.03336222355299653,0.011819490408499153,9.84938430374694,-0.005654326625433038,-0.00992497048764231,-0.006908093200188607,1.6
-0.12564367496204143,0.013479091589452673,9.892102336301987,-0.0011485031054456188,-0.0039357572139857655,-0.014928226089150067,1.61
0.15184223370941838,-0.045053737482470824,9.842713538645528,-0.0010077181382712555,0.00018111122848310727,0.007196423548595029,1.62
0.12842291049059112,-0.19559146543511868,9.750842053157209,0.011112789683543307,-0.004860298828274151,0.003299271433688076,1.6300000000000001
-0.02009656272301276,0.04166634914512463,9.820579586826327,0.004636033548924743,0.00888898599450862,-0.008940142958808118,1.6400000000000001
0.11882232350972846,0.24437903696345017,9.79389455502773,-0.006174534961701974,0.0033736673790878764,0.00469116280861394,1.6500000000000001
0.06886050129157986,0.16842426230215368,10.020112160977924,0.020180271339332173,-0.006968218165237299,0.0020166714769469887,1.6600000000000001
-0.002775116347662052,-0.06546288165701811,9.948613835838591,-0.007119701935384494,0.001841589201761052,0.00041803956353370704,1.67
-0.03694142618113088,-0.03541954376143041,9.905453611365685,0.001334658429443199,-0.0060146282564023995,0.019838230588460994,1.68
-0.07235973644296563,0.02284557279314745,9.834515924293985,0.0011533639408387046,0.02073460317156753,-0.004482948237377652,1.69
0.16195097465438799,-0.010916421666810528,9.84279699109038,0.003032492665632764,-0.010361383693131242,0.0002677889368186955,1.7
0.10451719747626405,-0.11924710516482039,9.790173485381231,-0.005955928471925882,0.0017118363680388125,-0.0006548364873466025,1.71
0.25843102910819876,0.07218598808420654,10.083297873172821,-0.0019642555531518115,0.019062326826579813,-0.003273053105847343,1.72
-0.07015335016574063,0.04520105706772573,9.819852161246976,0.0003245554690103557,0.005050848622815063,-0.0013224466224561967,1.73
-0.07522904083508804,-0.06593547633722896,9.715814665524507,-0.010218924438038372,-0.010064167694850712,-0.011079033333146953,1.74
0.05704404622751813,-0.10298568413303091,9.705517792173055,0.013633233635209888,0.0013404420514799733,0.006621968396610932,1.75
-0.18914556164145596,0.020554656684388075,9.80804284753745,0.005680778126020157,-0.0020112227666029938,-0.009781690758208431,1.76
0.1291249137247936,0.021428425394673743,9.8172106444253,0.007285612785292031,0.001375635597875388,-0.0056309807798539556,1.77
-0.2641265149292813,0.03171094060685693,9.750645403210743,0.0037095549319882525,-0.004286143331848025,-0.014504392748947572,1.78
0.0011057061781232207,-0.04718682906471891,9.897438913313305,0.02075332834613053,-0.0034432821858271165,0.0004624171452027686,1.79
-0.06451508116034324,-0.02187349212281167,9.753829430027952,-0.008369695995254866,0.0142268433538387,-0.002430747580024158,1.8
-0.0947320865632992,-0.05201923205096089,9.925574147187714,0.015342244433553136,0.006195672295665577,0.010403907060832298,1.81
0.0013098053106168914,-0.1631716535308426,9.90487774171181,-0.0025012436306806303,-0.003477232112822441,0.01694503323030105,1.82
0.007106624850242373,-0.15258000677191552,9.817090993303353,0.002930356299902237,0.013281652127810635,-0.008407918297681827,1.83
-0.01863994372552214,-0.08345831149385521,9.670439440732064,-0.001423237559146959,-0.0033549946590512598,-0.0021063641112242498,1.84
-0.21903555275415032,-0.0648756808108751,9.759862016552619,-0.004755165452330546,-0.0183761518421896,-0.003837687491546056,1.85
0.015296826756817417,-0.11969860142001076,9.905619995580707,0.006335513736969017,-0.0017093198789915717,-0.004688159341418275,1.86
-0.1314713954427383,-0.2496306478768504,9.858931827618424,0.003325360036154533,0.0015936921032030282,0.012012110477295024,1.87
0.039804280089733066,0.13150273107898092,9.938016390088338,-0.00046546979366395887,0.013512435802717753,0.004621381550453821,1.8800000000000001
0.09158150060665798,-0.1267850112197105,9.728285828808545,0.0012719011538785394,-0.0008248837558353346,0.022941623430543987,1.8900000000000001
-0.02310510304144505,-0.055605349446853296,9.616273917923609,0.0018346122430959028,0.007878203027825577,-0.00271541506925203,1.9000000000000001
0.08133339971643633,0.03678828569378092,9.891669647192494,0.0038752213323697826,-0.01968675091884662,0.008610546499003746,1.9100000000000001
-0.049250541020206574,0.12521793196674766,9.870351508737818,-0.009938086561819073,0.02207389906653432,0.01489851454684543,1.92
-0.15242158597805,-0.17238977919483645,10.044363387644646,-0.006558608603101194,0.013344400113887303,0.00014921876758592883,1.93
0.024768105888981665,-0.01828732564165481,9.945281199334666,0.004550929603353223,0.01160395802988056,-0.0016758477129587008,1.94
-0.013996473787997721,-0.0012036557382174825,9.9021964969858,-0.016606813626996727,0.011798028091887156,-0.0037936201748315886,1.95
-0.016382161246117993,-0.1003478478312194,9.747819235760112,-0.01139727006961822,0.01514167187014464,0.002261673606594077,1.96
0.024794471092143198,0.012640340912916421,9.757599647359415,-0.0031825093584096522,-0.019588906253396633,0.0010671811316512307,1.97
-0.09753422416488461,-0.07174234656677102,9.747605574368656,-0.01843845393419754,-0.004125825625119489,-0.00014917308091919022,1.98
0.03183888914230196,0.11019759296419825,9.849361726934237,-0.009360922743613768,0.004889613111261442,0.0009917792618214696,1.99
-0.22861424715251466,0.02243259593508562,9.731289251982025,-0.00951816387163996,0.00741916611477042,-0.011683808563174934,2.0
-0.0049310405937979356,0.013499637461867449,9.75633279538148,0.011301580959083398,0.025931197025964497,0.003959177899793323,2.0100000000000002
-0.11716388976434766,-0.01916831298318737,9.863886026610324,0.007173032833006904,-0.007377495767451794,-0.02182820432080174,2.02
0.06658908720288724,-0.10266098976379692,9.721346507082854,-0.0068171206857449785,-0.001705527770515564,0.008462575760776522,2.0300000000000002
0.10444835730304043,0.27643077822912016,9.709043451984666,-0.0010953313129253726,0.023205625024612483,-0.006296522660720156,2.04
0.010985521417163524,-0.08657441919150764,9.744056274232195,0.015051058641259144,-0.004173024558105662,-0.008127257607225758,2.05
-0.08017021077970378,-0.014682198342164965,9.711748724606375,0.007538447441231403,0.005481040116549516,0.00127285841777429,2.06
0.25847177937067756,-0.15782714981874255,9.689350773105287,0.005042786432186717,0.0006558904133577436,0.016656379733331204,2.07
-0.17571642943840096,0.1641028406056374,9.682654291571488,0.0002790301246423371,-0.012525042936065297,-0.0074249092585572905,2.08
0.033242859599286335,0.21219583272331277,9.862647494951196,0.007400889234589227,-0.00500183555381188,0.005094756578989456,2.09
0.08932873360046978,-0.06138935842071243,9.722489130453928,0.005662713590695736,-0.0001838127007871186,0.01541234842465126,2.1
0.1198013680776326,-0.02419594851477499,9.62367530533627,0.0028045791369351704,0.010635404479976063,-0.00510412792825116,2.11
0.29875454533367024,-0.06688429248763506,9.747914086163792,0.011824209711995236,-0.007571499001485329,0.011479172040525027,2.12
0.12885082465671352,-0.1107810366710899,9.951612535546602,-0.0003771891318402898,-0.011068818923661959,-0.008054879386306075,2.13
-0.09757521052909435,-0.05023464194554409,9.819533870270533,-0.011973067824592952,-0.008737836719742377,0.015021351375815749,2.14
0.12871221717084735,0.05952030176493877,9.882167361634451,-0.008342574200032562,-0.003876060228805371,0.006107510773744416,2.15
0.06976040415920706,0.07298401858532862,9.780898420366228,-0.00413883070297637,-0.0019332663794565683,-0.005489349589848148,2.16
-0.07685644272578346,0.04786314085248444,9.79412899071447,0.0032675799954772805,0.009408513291649752,-0.005899252134835405,2.17
-0.01887426706825193,-0.02411975235704329,9.738669210100833,-0.0011765629833683541,-0.009715106684167668,-0.006239329355551678,2.18
0.007397383942471704,0.019757606846446327,9.74679327788456,-0.012245802525952235,0.0033528712770662223,-0.007753067085363912,2.19
0.11937858384702936,-0.027812381839478317,9.56829610113367,0.013714655502254576,0.027204705573287993,0.005561840762139357,2.2
0.23832491775373074,-0.1341023614061872,9.755502396371774,-0.009924512531997833,0.011793928917390225,0.00904144896391665,2.21
-0.03992219735608887,-0.0646026798163335,9.880372369597714,0.004746859770307678,0.022613586035603137,0.01125306544522929,2.22
-0.18961376959682827,0.11833711757467763,9.856648815323448,-0.00745509212715286,0.0017517299983564002,0.00900991684046477,2.23
-0.12167808486346868,0.10084526642423673,9.910692814753764,-0.0029104879908699983,0.003883633063978785,-0.0012337534150774257,2.24
-0.025958538035412357,-0.12607711324169096,9.627716869628891,0.005451287764889932,-0.006472609133813629,0.008550827291405367,2.25
-0.038933583458480615,0.03122501692930518,9.863705394682144,0.004728844953971448,0.004000195786262573,-0.015099603776763603,2.2600000000000002
0.14029573094786668,-0.2436838750557957,9.774500339905286,0.011920208607947494,0.007709894553465368,0.0019446049245805312,2.27
-0.010938716799268807,0.03696302959052538,9.76680106866626,-0.008268435331563434,-0.0006433614699840249,0.023863121319744947,2.2800000000000002
-0.024051209203647048,0.02531530882035345,9.780610785857036,-0.01202563230998632,-0.015357482438126029,0.016648007732613723,2.29
0.1294541218535089,0.0036649041157551993,9.791165397728816,-0.005429761663779052,7.60421303403477e-05,-0.00768827835436602,2.3000000000000003
0.22010556203976828,0.06002340191944883,9.913523550806675,0.020464425915940648,0.004655715702267652,-0.0018111771336580685,2.31
0.06422530894581584,-0.07427270529059839,9.78458746847148,0.008520873984669046,-0.0012598409773951764,0.020537397544764798,2.32
0.0038589266291539394,-0.24751795687323602,9.686416495221565,0.006365190290925954,-0.012258679712206524,0.0008332813398529977,2.33
0.1798346364843818,0.11485623478692226,10.015438400049863,0.008117735211151226,-0.004166077085405291,-0.00014046778456958456,2.34
0.030307973688322744,-0.047072664119431895,9.98977793343694,-0.008860327393709809,-0.008285750403509276,0.025720079030315604,2.35
0.0818753034441913,-0.057220616330425966,9.840177125612826,0.0067258949804834735,-0.01984125211095419,0.002139089790169867,2.36
0.014426314029586183,0.09610309256407133,9.734154790579304,0.010529278929280796,0.005114400786764225,-0.006537416554805193,2.37
-0.042978017557135206,-0.04931149843234648,9.665199487809419,-0.013912436836048004,-0.0014393500654837673,-0.0071550038513794045,2.38
-0.06561803785105964,0.07930004360022659,9.869550859645962,0.002082798726382853,-0.009756060958931315,-0.010675121809716666,2.39
0.12858427327682673,0.15026216913825896,9.697867705642706,-0.013468957130690903,-0.006563525534904504,-0.00463772802198986,2.4
-0.06402447441726354,-0.20575979303998856,9.751100338289795,-0.006240293732818719,-0.011169784976951687,-0.016092234002868074,2.41
-0.0378707132302559,0.13586875303365675,9.743970312179744,0.005308943954946053,0.013461140944429897,-0.005912151057881069,2.42
0.147243618356883,0.04690293973904517,9.809941029223266,-0.01233082279298756,0.003231987273893927,-0.0033014589295878543,2.43
0.15335806376353678,-0.024089319257898832,9.765499335142637,-0.024782155799854495,0.00747047822186518,-0.016440978073353776,2.44
-0.10268801766862393,0.08999188911752769,9.872897760570678,0.005841486143490554,0.006808978231468793,0.0122301870006506,2.45
0.19279924069130364,0.06701945164773909,9.687395266572699,0.010200907640024029,0.0038211362293562316,0.0024051083633623216,2.46
0.18433873556700295,0.010105174554301535,9.632192460574675,0.0016050252591133574,0.001737791938059067,0.0011126950243689688,2.47
0.12772059472430408,-0.05362364077278406,9.960228309856706,-0.006787309589645723,0.011071433146272479,0.011896516232595833,2.48
0.23217529478765775,0.008639356849148034,9.724189771965897,-0.00018212804781038045,0.0026027754559364413,0.005351095973659902,2.49
0.15587922796393067,0.17052368131644066,9.875087557708968,0.0017949021630303222,-0.007257426637855867,0.006325241276318896,2.5
-0.04575755490473072,0.0643121947329534,9.752930593661027,0.00250583540136957,0.0027037029024252405,0.008865253599547407,2.5100000000000002
-0.14924740149699478,-0.0666319080732343,9.663396744310136,-0.017706586907685076,-0.013644685889158955,0.0018414488702822684,2.52
0.07802118537619966,0.04046561102516706,9.735889164034145,4.502513468922759e-05,-0.002801623216467639,0.0002939660440635342,2.5300000000000002
0.06460908825102404,-0.04276433349615971,9.796481231216351,0.0049930791265732095,0.006670517659166977,0.011452889854297085,2.54
0.12442637385869562,-0.05880105770276918,9.765747136998234,-0.0063959499337541284,-0.008569298983230679,0.014062638563730065,2.5500000000000003
0.0957291290440767,-0.04677129284604506,9.716776465859231,-0.0011135608215810703,0.007594360910523786,-0.008748378508851845,2.56
0.0061748418807777905,0.386574536656267,9.769032025702423,-0.0010022122028925328,-0.017467615600128637,-0.002665252551894109,2.57
-0.039313610285499005,0.01685718085004263,9.818774287957229,0.00985781088798353,-0.0025080491744396112,-0.00021692465959733092,2.58
-0.04645208686955504,-0.07751827785167732,9.644686691362205,-0.0193305428356823,0.005967394485354259,-0.0078645396610357,2.59
0.06916128332344834,0.1608979206557696,9.801460683756645,-0.01270627432093708,-0.0028912612914397885,-0.0011028447657077274,2.6
0.07126493588429876,-0.09310152418274897,9.85436457697448,0.0023245297374245573,0.01204038902811761,0.02009292177923506,2.61
0.1308081864731171,0.05273001911845291,9.843810611201684,0.006545338657610501,0.006544741761649985,0.014206810208014628,2.62
0.11364370334473312,0.025466831950805065,9.700454702191696,0.0005035870871556731,-0.01647905516590408,0.01230606111807203,2.63
0.010430929305308348,-0.0954119445678191,9.633594017787136,-0.0071911678002091195,-0.0021415181516066316,0.00422403092384114,2.64
-0.1178251172962159,0.008525207766799402,9.772202625621265,-0.0036130026782142306,-0.005070517491873668,-0.005633299406929181,2.65
-0.06406153946497779,-0.06138211700636005,9.806569809508893,0.0022698457416717647,0.009470455012107562,-0.003423705516103976,2.66
-0.09023522888330635,0.10489029717956083,9.815829111460856,0.00229419697674722,-0.0004119503206408704,0.010981400497300365,2.67
0.09351555579813495,0.012820057053190427,9.490739638007662,0.003641643267492308,0.013692032767009452,0.004563183190009527,2.68
0.019353898372415735,-0.08465512736725336,9.935296871275638,0.022894422949504282,-0.0015009439107392711,-0.004781788267552681,2.69
-0.05780621101453141,0.011154517443287855,9.50426132265296,-0.0001577298526224258,0.005124341569403761,0.007312648074405753,2.7
0.049150276611754945,-0.009982907308394118,9.876550653589796,-0.00971800332741172,-0.008781651721339054,-0.0179459625139391,2.71
-0.030023307265044985,0.10923845702334199,9.960585415595519,-0.021530005693925935,-0.006707267859931917,-0.0107251164226345,2.72
-0.1563877170671416,0.030113236474028773,9.917111583034563,0.00010289236857719684,0.002891849831128086,0.001038842663029974,2.73
0.06419321063041808,-0.06858642068429825,10.032604526396993,-0.0005971772023008317,0.0025807346770428015,-0.018609121935727498,2.74
-0.0027764768614633017,0.008602800205172645,9.799280733179094,-0.007743945594868966,-0.013382882048032419,0.007034185996880279,2.75
0.05305792542098634,0.05547636112078991,9.898063000688634,-0.0004511278114851631,-0.005388878883196583,-0.006982282018656027,2.7600000000000002
-0.06345768695607584,0.15843862283483567,9.883345823557464,-0.011510318756516189,-0.014576438402575862,4.40424461009982e-05,2.77
-0.14108778280310383,0.09180488646656061,9.907211887315327,-0.0025067969746563894,-0.013658467746122782,-0.015129701834901,2.7800000000000002
0.03962634659689115,0.20568410073072543,9.705492342725265,-0.011863525450825004,-0.012006872682172584,0.0186409221961636,2.79
-0.026828166098122753,-0.07931000024484765,9.898185202236196,-0.012115231703481123,-0.01195372008137776,0.003909824022412809,2.8000000000000003
-0.12797141831312334,-0.1390328055723313,9.835756593959372,-0.0041997921232086975,-0.01908628432058255,-0.003701679233691878,2.81
-0.18453281742559097,0.1009538085561522,9.937590409495904,-0.002082730894896645,0.013086919685748696,0.00891789742770197,2.82
-0.023530456102965554,-0.037316139113343,9.772173888606787,0.002483748218465923,-0.00805421465227424,-0.004157869663722305,2.83
0.091081736149338,-0.08840405734778616,9.93642124969717,-0.025866649528286684,0.007732492631126611,-0.00786435617350663,2.84
0.08942756360065984,-0.022078772222347717,9.780717995615746,0.013774140972824717,-0.006936373221388656,0.009135529575773026,2.85
0.0021837186474259543,0.03660258265839587,10.008049587350918,0.00318053280332238,-0.013531634180037768,-0.004983525384025023,2.86
0.08825653173191891,-0.01099802106900775,9.736847293469431,-0.013267770034068732,0.0015953455207606665,-0.006943965955761023,2.87
-0.11459606951086465,-0.17054108395611894,9.679227796488524,-0.006349401603866555,0.0038029830207718857,-0.00512993628347329,2.88
0.006592990334781432,-0.01401409674499116,9.944734285091222,-0.004153905855747376,0.00957309697865848,-0.012537144307871055,2.89
-0.037815498476130804,0.06936430979142857,9.740996514207177,0.016397123106024408,-0.008136504061929643,-0.003949671331650236,2.9
0.021714425260011275,-0.09074365839791443,9.868944669894878,0.00873067224697924,-0.0013854422641082001,-0.0083565383272655,2.91
0.07319078064061713,0.035797848679793375,9.735893771279702,0.0037105411550751727,0.012482213786739034,0.02331126785653051,2.92
-0.15934483563888335,0.15168291419290397,9.825669345385638,-0.005229059588996319,-0.005749033716219069,0.003991064350384146,2.93
0.07489106398595274,-0.12321316972601476,9.611399015018316,0.010987450243638872,0.008837999146331916,0.00583974235200613,2.94
0.11126183712737306,-0.10917965720452796,9.850075666433668,-0.0007418572304182977,-0.005862572372691714,-0.0017697607292679182,2.95
-0.2116619926147245,0.00018850597873750873,9.827052542926532,0.0025515006830013525,-0.005592935252093727,-0.005484588403955599,2.96
0.01888087154455226,-0.1328268310726797,9.764519190781412,-0.0004425168914654217,0.001493010242662042,-0.0007977548064666441,2.97
-0.12383617848025788,-0.026500293653799797,9.670359410137568,0.004199206370658406,-0.0033653134006409193,0.014413444216970972,2.98
0.15882508063313772,-0.009288270828481047,9.94612024589424,0.000801495775429919,-0.006963748028827983,-0.006365533416648862,2.99
0.0222566775278562,0.032079797045066756,9.722864769629558,-0.004697396164431135,-0.00902466173600968,0.016492120452999314,3.0
-0.09282579644448394,0.07105713776577753,9.804558945158929,-0.009953997905791337,-0.007531230267295055,-0.007995157513163528,3.0100000000000002
-0.019346274356270902,0.026871303945844735,9.763419738913948,-0.01310551985703667,-0.0034582082346463357,-0.011120116695261749,3.02
0.17648106172049963,0.02988860446327328,9.725013605690437,-0.009033349914817806,0.018480912516147238,0.0010047124461789454,3.0300000000000002
0.0285035681305867,0.02772995138707395,9.734205090748889,0.008933398552211133,-0.011693620073380897,0.01108564218439235,3.04
-0.0968348666711646,-0.041634570745755856,9.815062321017551,-0.009058995882712842,-0.00761053460635049,-0.006765773460618902,3.0500000000000003
-0.003973045275888918,-0.24569970128238172,9.886484365314038,0.0023554185665619082,-0.001935584983335894,-0.0021561223195663936,3.06
-0.050263878782993154,0.05869639544071817,9.928988807528063,0.01609697710390117,0.006698269270572264,-0.015452438654071775,3.0700000000000003
0.008485661757331267,0.16691277240993163,9.822544494040743,-0.017735047132671763,0.029500960375721207,-0.007804831753928359,3.08
-0.05618796704334342,-0.02712952154321335,9.754885471771987,-0.005265100873320267,0.004499594987556614,0.01405747586478247,3.09
-0.08819345535556944,-0.019114343699621006,9.864032878310294,-0.000967018579059236,-0.003929303033145831,-0.011832057172093386,3.1
0.012047012423406856,0.03304897587211829,9.816342137528647,-0.004564120128735288,-0.018233042652890736,-0.017712973590777354,3.11
-0.12014655273715391,0.1064574674883395,9.923275145507082,-0.01925473592500985,-0.015797786672632753,-0.0024005804936285883,3.12
-0.03402641565559033,-0.11471493094824739,9.578197550354329,-0.010257642099269841,-0.0034533467304311634,-0.01525825691146891,3.13
-0.1063662213798672,0.2544868605367622,9.771509817587365,-0.0057321805172687096,-0.0014740281651275543,0.010518524454229402,3.14
0.07467004685247046,0.1143049810259188,9.826511931029085,0.0003404021296494418,-0.004403427463317319,-0.00445273918316578,3.15
0.10291949890882016,0.058096329508524495,9.659234332369978,-0.004240153689000816,-0.008573677152853044,0.007129510600468517,3.16
0.06746695739723223,0.013885226664633347,9.876984716267513,-0.00212973057224201,0.011351943271664347,-0.004419546887484441,3.17
-0.0056105311534240376,-0.09311772305718824,9.7444950145844,-0.002639550649600974,0.008528476884573704,0.01633115773449139,3.18
-0.10534488544718368,-0.04648453721796444,9.858844935227967,0.004367248830870896,0.0101255356034921,-0.008852403598643564,3.19
0.12316244457848252,0.09743616659537661,9.893558591204638,0.015025678611933336,-0.018195940427479892,0.008563397866188335,3.2
0.023836970667925426,-0.17630666856737576,9.739343248748273,-0.006647671253537838,0.012472652682231307,0.0029388075541446814,3.21
0.041400381885535464,-0.0005090793396395573,9.907926263339323,-0.008848713629500085,0.005561549671794342,-0.001840127403611557,3.22
-0.10155055495456144,0.20190614953933406,9.806068993542311,-0.0012460140939143981,0.0028088067420180365,0.02093529626439751,3.23
-0.1787850215749427,0.09718409905354596,9.853463003699687,0.014058742542529694,0.002861243850534236,0.017632146863896896,3.24
0.019839517476376276,-0.061599069559757295,10.003816029107577,-0.006274590874405129,0.0032454190926396176,0.0033465922097172156,3.25
-0.2237264588028967,-0.11963161812134984,9.973133929335381,0.010701522595379837,-0.015101393244779085,-0.0006009408462964199,3.2600000000000002
0.16879879065498238,0.11598560620803221,9.756784122037079,-0.011740673520216228,0.005650347038561044,0.010698308882822279,3.27
0.07064655899320821,-0.21143437793470873,9.7678729201361,0.003941783261695588,-0.006850527765936793,-0.005563501851382427,3.2800000000000002
0.06019073871976032,-0.11692519017896041,9.763224613731806,0.0017493846672548253,-0.006244835132307856,-0.0036637331469169605,3.29
0.02972115892410518,0.10762787183671108,9.874548292746898,0.0010841151890927244,0.01804626530248739,0.014560340814701261,3.3000000000000003
-0.07299315786614495,0.04378569410110748,9.670754748777068,0.0054158978369312025,-0.0022015317855681063,0.0033811100734117963,3.31
-0.08086769976147613,-0.06445911630715331,9.665747357203033,-0.002388109585529317,-0.02118631436667558,0.015373571682711572,3.3200000000000003
-0.06604957196207252,0.07118537962682533,9.69022535682264,0.000768105851911526,-0.0006000812336791606,-0.0007903987330624106,3.33
-0.041982517226048954,7.71153345389387e-05,9.921540677233128,0.0016152878335977464,-0.010446633450677683,0.0028671769555354697,3.34
0.02217939764198492,0.1664122415052031,9.745238964753906,-0.0035574509952404415,-0.003228841597623345,-0.022310637733815857,3.35
0.23087776577720853,0.18911518163516433,9.807028688983713,0.000675565328846021,0.001628229558247332,0.008387731158984738,3.36
-0.1405144942978964,0.035688972242529926,9.943284274012454,-0.005825348080086966,0.007483035352858685,-0.016355891106938577,3.37
-0.22458748985369612,-0.11869135287844144,9.730094952064984,-0.0005373397405428615,0.009361162022994874,0.005418480441672365,3.38
-0.09549679714831005,0.10069231760053432,9.759450333100487,0.008538716334923408,0.0029819711927980305,-0.00012362123618610922,3.39
0.06864336842868628,0.07065805011885436,9.945953386786288,0.008917024558531238,0.015012608409422562,0.003619518736614462,3.4
-0.09421455830535361,-0.0878998760819878,9.838076697789711,0.01122863739989506,0.015839356004339153,-0.0077115003048936,3.41
0.08514258645035211,-0.09240042925726825,9.844454186055911,-0.0024562738480763033,0.018213785492591953,-0.008480001892934106,3.42
-0.03606300639524679,0.064215965111913,9.781655794085445,0.019783985564546965,-0.015989138434215983,-0.0050145284189507255,3.43
0.047733811812116556,-0.14799721144681294,9.787596936588107,-0.009888487781534297,-0.00016024520384707902,-0.0010802227174058338,3.44
0.14900462578579823,0.07517217557128782,9.889914495648915,-0.008396235235704416,0.007219520653218136,-0.019157015697889503,3.45
0.061628210828423874,0.10378246405900984,9.712237007266523,-0.0036973003318291732,0.014794098239834888,0.01044073953654342,3.46
0.13045961954779287,-0.03697362429847003,9.685390281951216,0.002881664751119147,-8.173816283943986e-05,0.004477020427342704,3.47
-0.02551424149771237,0.04655764152025996,9.861784240818809,-0.002484636969141552,-0.0009273554220485231,0.0006377343015717455,3.48
0.026539964652817424,-0.07955770753208835,9.639087551538875,0.005361088493444744,-0.015002245186865477,0.010991065796919657,3.49
0.020771351934778384,0.04860373901548373,9.83008395857515,-0.005879790779292526,-0.0018692581283795335,-0.025351695668646892,3.5
-0.1310420775219173,-0.04194173005337036,9.737106490993497,0.0025539185135061444,0.004892482063700246,-0.006143423794001456,3.5100000000000002
-0.014838480404320618,0.21116396295397877,9.83544842764296,0.007713294623002145,-0.009460898916794665,-0.0005230567422032926,3.52
-0.1203567098176348,0.009183852577603324,9.834960533848186,0.009361023604237954,0.0233043763349494,0.02163378086516026,3.5300000000000002
-0.09610470754243902,0.07172897043696913,9.955849683586173,-0.005537695669286822,0.014162436036711964,-0.01104655402143243,3.54
-0.09684063081220018,-0.07073911711196092,9.711784937435603,-0.0026040971559349517,-0.0024112922811335875,0.004154241268695948,3.5500000000000003
-0.005869695257562792,0.06384518240299822,9.88789482069551,-0.0039291499023124035,0.016614448477329142,0.009716985901892019,3.56
-0.026502967476989908,-0.030561050801014886,9.929461178797256,0.006729773252206214,0.008728643002057234,-0.011188275911548997,3.5700000000000003
0.05386815618249893,-0.27622224322785555,9.78690446104488,-0.0033969419801060515,-0.009465421500864367,0.00818216950721287,3.58
-0.12454605715383733,0.09211270521821426,9.742371256376405,-0.007032258305228251,0.0020908003611715053,0.00484413966984074,3.59
-0.04764955001783924,0.037139494382488245,9.759915499202847,0.01286398521301917,0.0021531788066848244,-0.0011529820756351616,3.6
-0.02019580203243253,0.12933555572996489,9.874320718772262,-0.012269638578403675,0.0022840743840095387,-0.012246705893123122,3.61
0.06695156854537132,-0.0029971763110854224,9.757410288895505,-0.013402007473435236,0.004517675756842675,0.0018640366159971078,3.62
-0.10613024358103694,0.08799708877498574,9.684936238566115,0.01070024417134927,0.014217865471571653,-0.004594875487981386,3.63
-0.23349105531775263,-0.05456566559879224,9.662725705619073,-0.0029240168705601194,-0.008025936658482296,0.00092614515581294,3.64
-0.05493845959282948,0.02513815980026389,9.754368717063027,-0.00036034994758372827,-0.03011612312707779,-0.007648483618482613,3.65
-0.12484838943712587,0.1555509668515032,9.639386580544384,0.003923250383531566,-5.7788123768368136e-05,0.00436290301305599,3.66
-0.06463004157860064,-0.060982185715640284,9.822359259968128,-0.005980234720022818,-0.0012044311034903775,0.010337014970886039,3.67
0.025222002967000712,0.1469636819116966,9.709967455827504,0.003275876331087618,-0.006049753043848134,0.0086352698271856,3.68
0.09578589795091395,0.05765372099281796,9.834904866444182,-0.013634043997906315,-0.0027502566370333405,0.0008745381112667259,3.69
-0.17478803205018756,-0.095706968620343,10.087951107760839,-0.00895592617214977,-0.016938403222654635,-0.01579351703921069,3.7
0.14595112257221443,0.001731060577519835,9.731070965056583,-0.01714637965725458,0.014766107218835872,-0.0060771608261055345,3.71
-0.15139561679907285,0.05224402389444891,9.908038011314147,-0.016604874939902602,0.005418585212991308,-4.519277136853004e-05,3.72
-0.0833850086791018,-0.022723701777280378,9.892525923419099,0.01097797335735438,-0.009031577090696834,-0.012485439480944958,3.73
0.02782487548057085,-0.04504170776357132,9.758935410769972,0.0035526266085271004,-0.016355398531140698,-0.006902593781317994,3.74
0.062102457263675116,0.1039488470311964,9.792337969586482,0.0112409582975574,0.016589327395781634,0.005334864151532282,3.75
0.07947591152402066,0.003922877748332092,9.644184273083866,0.011826656058303263,-0.010557336968605797,-0.0017224058809483806,3.7600000000000002
-0.08757260010361335,0.08255220274297373,9.920298286842288,0.024762618137101584,-0.01019173170582282,-0.010422759472758681,3.77
-0.025131763346533068,-0.031450622138935486,9.759539928469785,0.006110359352317106,-0.015190114450759684,0.005949411456660333,3.7800000000000002
-0.11031990286953826,0.17696499950557906,9.752713933641765,-0.0007771570312879041,0.006512853446038051,-0.009679592262369481,3.79
0.22524085208617628,-0.03664795827436655,9.800528632994375,-0.010377087424377415,-0.0030753327258695126,-0.00026966397564781683,3.8000000000000003
-0.14878188442921647,-0.09794690770438624,9.862359200219725,0.0035334612198748175,-0.005256356590537497,-0.009786390435481438,3.81
-0.18625254292973706,0.12268309139209843,9.82326148150512,0.003175756468321504,-6.519564493047009e-05,0.007417393297205798,3.8200000000000003
0.095480785441077,-0.057816918348046864,9.646853057219323,0.01388991530690876,0.005086575139647166,-0.0033828537434489672,3.83
-0.1475992396012967,0.08042786529770785,9.836328222601828,0.027304880707643257,-0.003293170939938111,-0.0020142465636484204,3.84
0.07552557801171944,-0.048105171434283577,9.892053763667644,-0.02126798989571072,0.005133002479477764,-0.006602841215372662,3.85
-0.1524391889562961,0.014890453781579686,9.642094179371313,-0.0007531555206750178,-0.011545888897751546,-0.008477478719442155,3.86
-0.25857462875378595,-0.016591779521905145,9.863631149050057,0.008961508786588288,0.0012995819658710788,-0.005908462244161096,3.87
-0.07577238389094745,0.034517794227908426,9.902597190304322,0.008011894966782146,-0.000270086507487197,0.01577363466426767,3.88
-0.04522762494368586,0.07416431020730652,9.852086081792738,-0.0020344959348741923,0.013108459631804535,0.0017023307980719884,3.89
-0.17481434805241294,0.07017605546496224,9.791635422101857,-0.00026673735658190817,0.003565458045161326,0.006912121196277725,3.9
-0.007009719617813351,-0.1742923204896521,9.684079215983559,0.0024639552756474674,0.003857030918576044,-0.01795398419988755,3.91
-0.014737280693630976,0.1254402828103954,9.863750854860386,-0.006731980933142679,0.0034885977100098703,0.005204483123838412,3.92
0.106676004419972,-0.09717337662028436,9.691792822630472,-0.006776705028584244,-0.007640925749066203,-0.010812071281448166,3.93
0.06515071834991891,-0.13005234120520195,9.866159653029047,-0.008436754302558322,0.00244791108399641,-0.008615713128237248,3.94
0.14670505378886683,0.027104338663600493,9.785705912697852,0.005713415244781842,0.006921314971566925,0.022434104592530965,3.95
-0.2033434976792543,-0.05425032338913638,9.86280988275372,0.012897264565449481,0.006663287611002045,-0.0018526245905809097,3.96
-0.17982883903599864,-0.28021127408925295,9.977831756881756,0.015972915179725926,-0.006970916686120675,0.012784925199156106,3.97
0.007969924829346959,-0.19240317360727005,9.805724553456184,-0.00011548204806000064,0.005113183532390237,0.004769205491436228,3.98
0.12492906682426418,-0.08949563944640052,9.884718024705483,-0.012354224159539526,-0.0048062919789245775,-0.013216185424304984,3.99
-0.1176825390328608,0.0419484077502352,9.822406839200578,-0.0006129625525583366,-0.010004441018238443,-0.0007775403142724381,4.0
-0.16514951639965503,0.12023490044269998,9.896053073835336,-0.00625373655695758,0.002584773137061285,-0.02490783725571647,4.01
-0.12308167172536887,-0.044602756471917415,9.833615486566408,-0.0018910337282726866,-0.008773937973123917,0.010488076791273173,4.0200000000000005
0.06471147237332736,0.040093939448014676,9.641769607601965,0.01184949158012865,-0.011265923191436752,-0.0035476837100944488,4.03
-0.12637313948853243,-0.1561723864404575,9.578063098427677,-0.013228970512810148,0.006268871643011785,0.009059282323374227,4.04
-0.04199398205589125,0.08657702485318025,9.887178945070328,-0.008651836915175865,-0.011116032100279656,-0.011923162391682614,4.05
-0.06117928319547891,-0.01799847663156384,9.986029686469621,-0.012217749858577882,0.0062386343382877,-0.016633190659442874,4.0600000000000005
0.02976205223009376,-0.14547102492447184,9.882994716351025,-0.01755788226477274,0.003055114439008963,0.008429715696952444,4.07
0.08993012071829092,0.055474984955404066,9.778573006950497,0.00270236606336264,-0.00517665837775237,-0.004698686163456151,4.08
0.16108953528596048,0.04989230256789402,9.73877629972118,0.005537991633633569,-0.0008139684603166966,0.00041242112359603374,4.09
0.05663663264473685,-0.16092360768229208,9.632975282253224,0.006725553022006618,-0.005395858158993434,0.0010090219720700392,4.1
0.04921262978421165,-0.18704893969492142,9.772405679545907,0.002476877594357227,0.003129320445823335,0.011972329676497027,4.11
0.0750178006612821,-0.1723743084470655,9.83712233429996,-0.011006616803736373,0.006540696333388499,0.022626062926173543,4.12
-0.13735276267061924,-0.08096794401541096,10.022257283455009,-0.012340374119274298,-0.008081998642445201,-6.573142372342458e-06,4.13
-0.1253918819814338,0.12924558975696582,9.988578650183001,-0.005627484690652187,0.0011166993280057585,-0.0035413890773202013,4.14
-0.04710384375514676,0.15095980269305673,9.789452437163508,0.0004638750959038926,-0.005501142691618076,-0.02155533906159965,4.15
-0.04454804490528995,0.08670288109342192,9.774835819729878,-0.0034986310976244765,-0.007064987383641347,0.003604093000460333,4.16
0.048982231701546974,0.01642303231218605,9.730318409961884,-0.007718319565477857,0.0034184455078538414,-0.006876014588128523,4.17
-0.16598447156003374,0.007990192166661325,9.793479384415944,0.008408564227425246,0.022384577684276055,-0.00940955142456834,4.18
-0.01643543686304965,-0.06107543577931451,9.919427282254942,0.009023580159049437,-0.0019040911353153148,-0.010617953060868181,4.19
0.04325048400197712,-0.1425621235099533,9.91623845565793,0.005553350034041677,0.013973682934112308,0.015552717950477662,4.2
-0.12763654848661884,0.03987417836031266,9.659134306688653,-0.01319383751077291,0.010862325559643584,-0.006489631924379009,4.21
-0.23296878361607332,0.008963165900173207,9.789126268869822,-0.01286494448131213,-0.007362394147831732,-0.0058337681984856095,4.22
-0.027149035314093763,0.10109270907808468,9.820893899764348,0.0024867609020723163,-0.00693878550651676,-0.008415124425727954,4.23
0.04748191230790116,-0.17779724260038882,9.6729632414444,0.01280875040501953,0.0025891330032632377,-0.004819597567733451,4.24
-0.0023861505192029715,-0.18891073106004697,9.902472320772995,0.00030393410525251494,-0.0025683410986420897,-0.01250647226494403,4.25
-0.10552254676971742,-0.15471337318691847,9.985603887143606,-0.008527384762363385,4.737142927782458e-05,-0.0028874184113587805,4.26
-0.14995665696051472,-0.07909988569805304,9.573297736026683,-0.00012628105956113755,0.008008179156032923,0.009314985385135827,4.2700000000000005
0.01326659822720004,-0.014863809933345882,9.897261784464156,-0.009899864665687421,0.007792496532976949,0.02427060352476655,4.28
-0.04280717155962661,-0.10670149618953924,9.93639262170275,0.006956579420797828,-0.005840285444800836,0.0016590177414655956,4.29
-0.26510893742243735,0.03684920426659551,9.861760842499304,0.00710892119990643,-0.0003520989312844806,-0.009161906839344786,4.3
-0.0665822971743742,-0.0923478718894492,9.734229987296699,0.00825065560933844,0.0024859658188995317,0.013003562510989922,4.3100000000000005
0.22807089707183348,-0.006655474015748547,9.848020902603983,-0.006975757421006339,-0.008439153818071364,0.012375275053995697,4.32
0.10639820207289104,-0.009113897698345736,9.601631793978552,0.018057888871360856,0.0029806126059319965,0.014394342209511541,4.33
-0.013885295481433153,-0.05530628742279534,9.815475234984133,-0.001770719196584665,0.0015697788162886304,0.0064629017359444894,4.34
0.049180564855787305,-0.051470129004436344,9.552702194409086,-0.007424954069196211,0.005260924183193554,-0.011667886951884286,4.3500000000000005
0.17032883452131944,0.07002535083306581,9.808235851471498,0.01022598185992544,0.010526814610330794,-0.01874932095416247,4.36
-0.014612422944226875,0.0918936413299534,9.841754164679344,0.003161642775466994,0.014410206935808979,-0.011047774664604318,4.37
-0.12049806418536944,0.028278185228044758,9.834306732669853,0.00850595243350479,-0.011820701733964614,0.0025863198765068525,4.38
0.09551582647096668,0.06602906367759132,9.84481202490348,0.012090590370904023,-0.012193384310078319,-0.008747880042556708,4.39
-0.05244727162855441,-0.036793648494123796,9.767012513243174,0.0003371461946425604,0.009965943743094749,-0.004767452313536774,4.4
0.003027378769944572,-0.12515710768122082,9.613643482012963,0.0004898481314735159,0.026069068312201252,0.027671891966735723,4.41
-0.15332885627188397,-0.04048618629497379,9.953947158037375,-0.00034605545238985085,0.010245549609675773,-0.012022320085657076,4.42
-0.14888754364555654,-0.018956961972836084,9.817323170693143,-0.011455676103064513,0.009356438784041073,0.013769595650453442,4.43
-0.14635075514928242,-0.1398701134421913,9.98593818448933,0.006690377652491395,0.007424048276197808,0.01654264319034091,4.44
-0.07167073949242989,-0.0066806270211440325,9.721160478712218,-0.0036887227968684573,-0.008052952506614834,0.012205173747266103,4.45
-0.06894230317089649,-0.05852781348841765,9.69469882278843,0.01461367558517792,0.00366460178331677,0.012400981227903889,4.46
0.1714592499030202,0.021670635422888357,9.706991444648798,0.009031916672538885,0.0056793531384335405,-0.002918890996232474,4.47
-0.18780972876950583,-0.053951064429724194,9.762460980633463,0.0018328799526564148,0.009638020290103869,0.009524100812968343,4.48
-0.1814049693214284,0.04911622040771569,9.815075257731595,-0.010180045530470206,-0.005280007947922736,-0.006939046486719511,4.49
0.15611595133536557,0.06745712473438573,10.029625755131539,-0.002280533387953757,-0.006085833351338934,-0.015275215604676333,4.5
0.05232196187689552,-0.038908796346009154,9.685468433567886,-0.0050948073391175585,-0.01150965117255761,-0.0058442653846400554,4.51
0.033729538643329136,0.03379610592812864,9.9797701655643,0.0027333941844159605,0.009673538086266243,-0.0016359510347776548,4.5200000000000005
-0.062404408448771,0.14037277094935274,9.856031888674982,-0.010104808381696938,0.011425580139078939,0.0032655647777669497,4.53
0.013939977292525208,0.09107266274300356,9.930005678210572,-0.011295345545263298,-0.010415047745585878,-0.005940873274471399,4.54
0.03254396175073844,0.12975649506536704,9.78081206404826,0.01740572170820507,0.00604079011942331,0.014909529939133697,4.55
-0.15309614316490697,-0.0012601188866102498,9.909363455834942,0.0005059945908008805,0.001797375667696736,0.0031170317576437933,4.5600000000000005
0.02101590659635081,0.023082387561092144,9.761727359904299,-0.0020761784939017374,-0.004421325436185156,-0.01146146536853243,4.57
0.07171104739796608,-0.051616890069387335,9.835153460975581,-0.004594904830699993,-0.01323669797186526,0.008044354012372537,4.58
-0.09111890269496167,0.07641509132678506,9.846302526563528,-0.005933168055583882,-0.01854225078311551,0.014270059291176139,4.59
-0.02769330090047997,0.038835857499055465,9.657544944375982,-0.00946086855267876,0.013651855969715805,0.004435291869083278,4.6000000000000005
0.23281715455378627,-0.11005414495500315,9.77877627364773,-0.003982154980715991,-0.0041395167746037425,0.005363278813704748,4.61
-0.19678587211994447,-0.10690513127346586,9.76899136936302,-0.011802080304820084,-0.0032172348609857838,0.006088595183524768,4.62
0.07640325481939798,-0.10008116963734037,9.738078595105367,0.0022108561872256956,-0.0013902274912198918,0.006428717440978797,4.63
-0.0601173683261616,0.03453679514227446,9.802572260609296,-0.017010577427850396,-0.00030314927073359365,0.0066139443844095615,4.64
-0.007718607643477655,-0.1488334065893235,9.721161578161867,0.0073973617065424295,-0.012170764139761077,0.016472270821206964,4.65
-0.18717066245150882,0.06426032572502496,10.014234545663252,-0.0025103639552738156,0.002339281108984729,-0.010696886222843769,4.66
0.07651611645831519,-0.04573194737011667,9.78091916788781,0.005805447638146647,-0.01161788024913165,0.00557716651583119,4.67
0.1824461155074862,-0.092515795690762,9.723161076948426,-0.0040555521972436325,0.0055039899520727695,-0.014276372833740676,4.68
-0.0609540969210092,0.11915778466222915,9.860735315693224,0.0041684086910619795,-0.010047805970483452,-0.00040962383028210454,4.69
-0.15303416751901558,-0.10191102399506857,9.749065838117568,-0.006643391006920947,0.0035766752796306213,0.004466767356286764,4.7
0.0693853357732774,-0.020169445996534183,9.64693443627653,0.014908797529427595,-0.011098541203038555,-0.002269509952856234,4.71
0.14652814822208707,0.030186968164068708,9.755070276392974,0.014148749586224516,-0.0031740970782997945,-0.01932878031641008,4.72
-0.025365763617469107,0.09978794851157852,10.003138687341226,0.008372198760819941,-0.016301022451751756,-0.008351973148889356,4.73
-0.018368075901859526,-0.19361892318220586,9.792770590496977,0.0031205265529639353,-0.010207985689631353,0.005561852121982138,4.74
0.09541644904561895,-0.07176544182902898,9.595402071400219,0.004643058465232186,-0.010266665680338396,-0.0019042369167445736,4.75
0.07409101556837522,-0.09294646373311678,9.675873174455347,-0.0029959117350207825,-0.013328679590374995,0.005798711413719522,4.76
-0.02471875650132657,0.01647199865325481,9.769926854627952,0.006832843768223477,-0.0038907448451396247,-0.008329696944403749,4.7700000000000005
-0.009628577908276682,-0.006886486797966114,9.811146877227573,-0.003388103183217789,-0.0015621627933581647,4.369067819720131e-05,4.78
0.03736315235304221,0.031532383137994516,10.036637753641875,-0.009483562940871644,-0.0055912750094437086,-0.0014644673629406553,4.79
0.10705977942220564,-0.1149666778738804,9.75931418296514,0.010021558057412184,-0.010214253720599548,0.013830843906099911,4.8
0.0759021236885626,-0.055954905430184144,9.677458963655486,0.0038678610037832994,0.011459755531298847,0.0015518838984838474,4.8100000000000005
0.22999420685055114,0.00911121221349205,9.651617923320913,0.021663632383544216,0.019935230894723974,0.009609894734850478,4.82
-0.07794640654523127,0.02019065917105944,9.950399873222974,0.007459202342858819,0.015306783382819577,0.0011677346677634378,4.83
-0.043886511735797315,0.02870464163874803,9.882216225992366,-0.0022481190885792267,0.00844555460954899,0.0012809435647585243,4.84
-0.1133178727871091,0.026049195797884755,9.781057126567465,0.008699754161358108,-0.02080832852442589,-0.0028598965180310376,4.8500000000000005
-0.054684758050841414,0.00978740482706392,9.93855887361898,-0.001847717960529405,0.0014515653642498635,-0.017307920328677777,4.86
-0.06116267316034584,0.08775105129615406,9.7626597997915,0.008545613704358749,0.010705142279536282,0.00507204650285837,4.87
-0.03892629655567945,0.05973323507974761,9.755150023963912,0.014049724142168712,0.0020849634382782913,-0.0010840048303766506,4.88
0.17706929253490722,0.058977991693010184,9.850499909178463,-0.00893444969229828,-0.019821941410080677,0.01580432622064438,4.89
0.07503316870056394,-0.020634906475981683,9.775017931295361,0.006231421901899824,-0.003765293037167978,0.016797894268351734,4.9
0.006606720874722891,0.03313102669725827,9.5986488789108,-0.001029942323280678,0.006248057014157544,0.000800667118716317,4.91
-0.03174853474259576,-0.01476151621612673,9.837646392949168,-0.017487527081475735,0.0023993858930823724,0.006922005620706894,4.92
0.0709295741854736,-0.04922460647092792,9.75148345258724,-0.00792596178160634,-0.008059978786521456,0.002085452711652263,4.93
0.11511114772721796,0.09034332369085525,9.804072050653367,-0.02085812258807001,0.01800351260503091,-0.005824011367434714,4.94
-0.0250022240372574,-0.1156213039361488,9.923232429687006,0.004439499572436252,-0.006536651256785822,0.007943004536006434,4.95
0.04410657682378698,0.013799660017377317,9.831595378775388,-0.007307838006066345,-0.009854370295593416,-0.007997223502117116,4.96
0.13824738271908782,-0.27253455242541597,9.752736877062134,-0.0006768983446404274,-0.0003991317956207203,0.003448779626116293,4.97
0.04015661751418134,-0.05951092950896704,9.943499328484375,-0.005279956704464842,-0.011452903689113388,0.010659736583417252,4.98
0.0645306877216119,0.06121195202839685,9.964856394422425,0.0017875093311224917,-0.0065171028650271344,-0.011360414766302639,4.99
0.11916512841079963,0.16607705950725798,9.805566269401298,0.0020671515376876493,0.001976274978697074,0.020687798918028157,5.0
0.13602951845582129,-0.1462052381738892,9.69922048796909,0.004425588972023101,0.0038050750667523382,-0.0014712566371034076,5.01
-0.010030790483868547,0.0698779864111664,9.826563038167677,-0.011647245792805402,-0.013662728196200432,0.013454994083077012,5.0200000000000005
-0.013497054931667786,-0.08467034939505157,9.8453810960493,-0.003415860184441959,-0.013959797818164326,0.0024863305780843475,5.03
0.015053697533909716,0.0012426355280324998,9.992367833516912,-0.0056285592086055495,-0.0018977796790796352,0.008853494499349015,5.04
-0.14338594903658486,0.04343666897341976,9.793396683353084,-0.011248968923777436,0.008148778386755354,0.010998507475408256,5.05
0.16738754938448064,-0.15122679125999217,9.942431014312316,0.004749540383936737,0.004490861015682463,0.0024700378669488088,5.0600000000000005
0.16503491375555834,0.07511456837882949,9.638524917769747,0.0012655266198410484,0.011059445834421082,0.003861935298525988,5.07
0.19543197106908128,-0.02531327112170051,9.714075345400582,-0.011820643912285305,-0.008680154536827326,0.007525270716554069,5.08
-0.047750562279850375,0.2009196636333963,9.998833587561407,0.010118888443575872,-0.0026858714365047714,-0.01443127691083423,5.09
-0.005153404136975449,0.031465256415216504,9.687012948584583,0.0066750282330077125,-0.004940241451061871,0.029041694191133068,5.1000000000000005
-0.13869410500057675,-0.08720804410914071,9.815043683832606,-0.001158323543595983,0.0036153075642610566,-0.00028154916244693267,5.11
0.03315295376138676,-0.10819451982181252,9.947549020518448,-0.008343693596952527,-0.011914968896316413,0.01731537593401684,5.12
0.06890573607299243,-0.18505965784760023,9.554215573221388,0.007370760816464426,-0.010249314820306183,-0.005955213438086697,5.13
0.17226746638341972,0.0729466300785616,9.948959986968315,0.012530391997002652,-0.0074056485323454845,0.010795711468658124,5.14
-0.01059554805825244,-0.011578512686595929,9.702926706496552,-0.024204928614627294,0.003991659911690108,-0.0019219404034370822,5.15
-0.1346210100600241,0.06571370586242563,9.840188789984131,0.005891164251955121,-0.003105232586578971,-0.0020252645240280503,5.16
0.0030100937369519336,-0.15061638910805672,9.679730225208754,0.007731235214388837,-0.01249349919652978,-0.0033236091682561702,5.17
-0.007583235711159063,-0.07765342699282257,9.964937105080882,0.003691421835289096,-0.009842797056235138,0.0012405874196481047,5.18
-0.08036117638150107,-0.010762685495282233,9.949107198123219,-0.0026591040716282877,0.010719006243791114,0.010357498500041308,5.19
-0.10107430516448035,0.051583358094714364,9.831930508532276,-0.019539644252210407,-0.0065608216908268225,-0.013427863221601152,5.2
0.05859870415892901,-0.012203767898294388,9.711623420895119,-0.00012747522802939368,-0.014133506514279,0.0006109069884212168,5.21
-0.006397789222152376,-0.12260833057695592,9.793948084162874,-0.007105941735199115,-0.00255381667437958,0.004625790057225691,5.22
0.03181039614644941,-0.18459942173597912,9.886519568283349,-0.00834868295045654,0.007232074042155787,0.007962335534253458,5.23
-0.06321547733044118,0.09208945789308529,9.850880811571683,0.010725051089784159,-0.0014458325522388937,0.004418018751241737,5.24
-0.015996046166675448,-0.12440524395758955,9.727173565332787,-0.0192613839400357,-0.0024654559704088115,0.012767376898791273,5.25
-0.1552353997091241,-0.16750736055676296,9.971693980131853,0.0057050372296945226,0.0026970826382441237,8.689920000775875e-05,5.26
-0.03790951527347817,0.08382801399611278,9.892958376172636,-0.009447154662760162,0.01167349592162829,0.0014945590670246889,5.2700000000000005
0.04885783025701445,-0.08720059666784077,9.834495875815026,0.005306303740824916,-0.002317413157313814,0.01994255554747029,5.28
0.023623077290204644,-0.03576521104587569,9.659158668206285,-0.02007636496981736,0.015829680307760052,0.01579420461475767,5.29
-0.10191202949806633,-0.22274036671345054,9.748292980452247,-0.007249970259189072,0.0002611228668400094,0.005749035893278287,5.3
-0.09907376946731596,0.05155811590202547,10.07772279907852,-0.009215995392541716,-0.017001359751529693,-0.016853040288653174,5.3100000000000005
-0.03856263270176009,-0.07007251520229328,9.734711177897227,-0.013374559379642461,-0.005011127098907457,-0.0074654514746517525,5.32
0.08071275651787979,-0.0853359717856561,9.647506636413002,0.002042900267582403,0.002035785990326066,-0.005514940985178332,5.33
-0.040661515233098314,0.08515994281105116,9.86744856141219,0.00574091932922086,0.018947105801060977,0.01614322348342636,5.34
-0.11859045627049612,0.08806181477976545,9.92554728765592,-0.003919412987989378,0.013830097946678348,0.0019086122297367414,5.3500000000000005
0.10800106836078334,0.14514396142130856,9.825425769041793,-0.011842671060215105,0.0008873841974900162,-0.015308296645573698,5.36
-0.07388695174294418,0.0900057354670648,9.74688694371339,-0.026499725645567743,-0.007283987235326277,0.008239212370446785,5.37
0.09990558101187202,0.008925808547119916,9.651796273837395,0.014487081386349101,-0.005945179385272653,-0.006410253133669333,5.38
-0.09613542880696982,-0.12829363242156308,9.783739744420057,-0.0002410031440666211,0.011000147837435382,-0.008175282192145212,5.39
0.1011001085539328,0.05464510318507698,9.798596742530476,0.02203538639416406,0.007985695407430589,-0.019999412935750457,5.4
0.15020151621048639,0.04656084478068464,9.731584288711957,0.03220968771772617,-0.006045941835668552,-0.01095180689708811,5.41
-0.05640950102033681,0.12342512780995847,9.88143893624553,0.006593546847437574,0.011381472494159068,0.008870191322659406,5.42
-0.06209718145363283,-0.0010887923334142887,9.764902252011943,-0.009231941228579277,0.013407717221768112,-0.00643319831713945,5.43
-0.15681809585677028,0.048480278694782344,9.751361231372353,-0.014086982190143852,0.01667874544803581,0.011400961354535673,5.44
-0.1270031292088478,0.04307427628471627,9.852579222816015,0.0027367504258073577,0.005200439244664768,0.014169299481822148,5.45
-0.010455861844047704,-0.02123063811733557,9.808643184154429,-0.0014557789661249008,0.002579826789553682,-0.008430811367178617,5.46
0.025656627698598986,0.07801686555459067,9.85592734956661,0.006568443718165708,0.004509117002572769,-0.0123134599213563,5.47
0.011062388745352147,-0.06592116656030955,9.830069017191072,0.012849836518247329,-0.006036141124529889,-0.011044250230261073,5.48
0.010470891567597673,0.03828753984107363,9.908322681285428,-0.0009229883808274218,0.01092013775291394,-0.006439444667682648,5.49
0.04631637719180636,0.012191931279786496,9.754823346279412,-0.01344317637319916,0.002141907540972501,0.01639598443843097,5.5
0.04518982092282567,0.07961021069590474,9.879906595113209,0.011819495405216578,-0.0033020623550926525,0.0035558609042549406,5.51
-0.1371145874540114,0.011356963373463895,9.921611307295898,-0.0028513745090457954,0.007323363466736035,0.008658362805827198,5.5200000000000005
-0.08414522907496133,0.1217613848920469,9.799446899547377,0.004167728559307786,0.0013732517277424236,-0.006915768846806301,5.53
-0.06166314370463591,0.03831737289266919,9.81632801570508,-0.0034232208061008088,-0.00045213642808166556,-0.009223057343855333,5.54
-0.045495108550130094,-0.02296328316514922,9.864538198870754,0.02537829998476856,-0.010256090624507079,0.008915168426732253,5.55
0.0774744461413139,-0.06709707848039637,9.84872222729534,0.030279912915180746,-0.005318209402785577,0.015891923946686266,5.5600000000000005
-0.06576104944338035,0.01893714889318815,9.72342295508532,-0.003677079699737615,-0.0007241783771203432,0.008782645949565746,5.57
-0.06328374059221799,-0.1353598954251959,9.751030753745153,0.006405275674567043,-0.006450587447452369,0.004570137457275916,5.58
0.02383555175656127,-0.19657160331577533,9.944463190378919,-0.009725454123558401,0.0007022853566912212,-0.01711218035170843,5.59
-0.026459704687224618,0.059141418045189936,9.73024952272253,0.02435574145176435,0.009593519995402928,0.005033073035603161,5.6000000000000005
0.027357003015756783,0.03389464524769228,9.7123894915247,-0.010130881426304137,0.017288045571778717,-0.01490071215249514,5.61
0.08649845216929282,-0.008899407926366044,9.921406411834983,-0.018156621988851023,0.0023031842020059803,0.006387920052330458,5.62
0.05031738957968205,-0.21051342544198814,9.761848075500545,-0.006175749963346252,0.0004369198896070434,-0.010298083563437366,5.63
-0.05759832461280169,-0.0643085419223298,9.900720941653862,-0.004663220065084512,0.013340746404803,0.0017026455961294716,5.64
-0.0007089974785771816,0.06416718773423104,9.964222566402174,-0.008062976399117107,0.004059628340161691,0.009258484994546538,5.65
-0.10354268037558056,-0.01485300195049654,10.03748240280324,-0.016311935712755025,-0.003765130241857605,-0.01263174235096346,5.66
-0.12445519421538952,-0.1307907336715394,9.613814149323286,-0.011891659573528057,0.0021675040830636608,-0.009120962671624855,5.67
-0.19511995924638317,-0.09301956994232607,9.908064592929057,-0.007507544972900801,-0.006974545054748947,-0.007759591717511329,5.68
-0.17247434698390676,0.0376266237618726,9.757911218949117,-0.014088817605172506,0.016962733015248515,0.022743515131761444,5.69
0.08853519539994119,-0.016649022090348947,9.766453661990834,0.01026356621414398,-0.013948417237061358,0.001368949569130567,5.7
-0.14773028707845748,-0.029318196218066764,9.894132543513056,0.003299123361932336,-0.013294556051299249,0.018351650191441925,5.71
0.008350445992704398,-0.0127843895941349,9.69669326244782,0.006248273204395955,-0.006126833932057955,-0.0022524241982819523,5.72
0.04559193296914939,0.0019358175273114808,9.863990965146101,0.005109285013684353,-0.015633393799640183,0.004332875100012893,5.73
0.12483375586051926,-0.05585096274929968,9.682043661554397,-0.003138544359934768,-0.011548349462307704,-0.00024148749613812738,5.74
-0.10855305908958209,0.13409198127512925,9.828676731129057,-0.020638722929706782,0.0017340800433321203,0.01024032810653411,5.75
0.02361646871634629,-0.03162961349894674,9.898406803058531,-0.012995468153699317,-0.0062920339082283,0.012616625458435188,5.76
0.14427931615790088,0.06808736069758127,9.73095859191438,0.004869828357764955,-0.0025782133479683627,-0.009981952479954218,5.7700000000000005
-0.06291461525264314,-0.04669452155205008,9.812587968326763,0.005918740155371161,-0.009060699730108398,0.004685278211993545,5.78
0.023340116907373202,-0.0909097350834178,9.773565244250463,0.0008152201952236323,0.00833883800305378,-0.012188673279421077,5.79
0.13254963360216063,-0.00018105222407792832,9.919329500186018,-0.0016054982152119658,-0.023981727175646617,-0.021442205972450258,5.8
0.07012485674303742,0.10494551563416249,9.867728122708295,-0.0060409868287497025,0.012889466372242902,0.002404606510265643,5.8100000000000005
-0.020476646196496476,-0.06341526836919247,9.82017385853526,0.004279482914849259,-0.0026818020172115035,0.008575682859656826,5.82
-0.06606783963676197,0.04237374268694508,9.716183371566999,-0.013116399705518788,0.005948142978727934,0.003941748004335221,5.83
0.1125462124330285,-0.008950538909677848,9.914832961910808,0.0014036300144040761,0.003961871763688533,0.0027236611782583678,5.84
-0.1156555933980904,0.09488027428059607,9.851763689128958,0.009654255865864101,0.001846729276338524,-0.004786238755865437,5.8500000000000005
-0.07619467150900781,-0.01687499070833082,9.775211121528459,0.010274526153030475,0.007575415895187167,0.00463788016345766,5.86
0.018266928326520795,0.014081248959419266,9.856074676705386,0.003255539578752027,0.0018166929969597573,0.0026964325489493724,5.87
-0.10770891788371445,0.07534931769703695,9.951211079517147,-0.027219587951077925,-0.008802352186770772,-0.0053855879416053725,5.88
0.045708643645778875,0.12246771823781535,9.698841053937691,0.005139378070953704,-0.0035802067884404026,0.00692385478310753,5.89
-0.16395949338435542,0.09569368732027844,9.8183167386577,0.008090159556413724,-0.004637771600475691,-0.012647385886023177,5.9
-0.057110787012378574,-0.04892668297109194,9.805250031005338,-0.003569526777183926,0.011066408573592021,0.00016015007781593007,5.91
-0.14338530449964892,0.037501539339905014,10.00356159951771,-0.003995749213196323,-0.009816920897672431,0.0003013374818192435,5.92
-0.16769437098299686,-0.006951257878000831,9.838450242507584,0.015593407353177187,0.002346308315290208,-0.009399553287961512,5.93
-0.11045816698586026,-0.07168150435584981,9.787945636591349,-0.005127264905542787,0.0050712497594218656,0.0029196731283061784,5.94
-0.0795735627236698,0.06939074482791881,9.88854508153679,-0.0019241421026138254,0.0024769648477058616,0.00015088376702910376,5.95
-0.010008421284457428,-0.1320518983821371,9.791170144183148,0.0050708049711680105,-0.011793299490123303,-0.011141379030941152,5.96
-0.01330303806161263,-0.07937222190356534,9.770222732202015,0.012677236761060211,0.003080359726471875,-0.001264244162907619,5.97
0.04776644809754153,-0.0915399980863751,9.825173803623516,0.012714254595247932,-0.005980631976328142,-0.02039465658646723,5.98
0.09246427561357073,-0.19569683183961328,9.851583576357676,0.006305642627628108,-0.005485747852857357,-0.011773594789585562,5.99
0.08444614223069828,0.04817462926072034,9.967334851600747,0.01766541631041719,0.0017370953139711186,-0.0028441040120237853,6.0
0.03527985607786805,-0.03475498684949318,9.772525479286113,0.0009467888771459961,0.010984840495942593,0.00998254736517932,6.01
-0.256121522455901,0.3600344797832256,10.141319121948808,0.007354822385742752,-0.0025611081624434483,-0.023540934155398735,6.0200000000000005
-0.08369468896191044,-0.22887154139126142,9.866359310754213,-0.020565014242196162,0.014003491144467533,0.006267358764730295,6.03
-0.10999484614990446,-0.05050292388412986,9.784729415404513,-0.009974675198609543,0.01926811586182016,0.0007393561396324504,6.04
-0.11847627156482488,-0.040543222301758115,10.07663430151116,-0.003660040758245592,-0.009567035179623372,0.01517775380436739,6.05
-0.18201233634691397,-0.02649333574252661,9.854705769308367,0.0027526070052199887,-0.008095682873206934,0.013245130367196305,6.0600000000000005
-0.03001790991884883,0.1370531895577155,9.877942274556684,-0.003208655739945161,-0.01885146152225559,0.014248132337913793,6.07
0.018229268067056024,-0.10801891008710905,9.806395810874484,-0.008453961702980078,-0.020851198595912862,0.006476215530561345,6.08
-0.1609354896286812,0.02799068457603241,9.712452472282076,-0.0005124657022085358,-0.013884636686829783,0.008857375499725009,6.09
-0.042656746745638754,0.11839482442186376,9.868522113967996,-0.002422455262826644,-0.008995827937282156,0.005275916280398273,6.1000000000000005
0.0035992973854293664,0.008937957438970079,9.994650040389494,0.007180080680603959,0.006103351052950365,-0.0013412122825340294,6.11
0.0496563025497773,-0.06242138790617775,10.058101519659166,-0.0015824043210643612,-0.006090572296253294,0.0005978855850401976,6.12
-0.12342547315628605,0.15898022236475937,9.886644382740304,-0.014514705884280712,0.007564474550758066,-0.005241712100294603,6.13
-0.08501414698768223,0.026743017966564826,9.822254172838347,-0.018289184171947075,-0.0014564095770583574,-0.01655742630418183,6.140000000000001
0.05510437015835904,-0.049734958570768886,9.729453285371614,-0.003753818884152067,0.008765346317532655,0.006409639321584454,6.15
-0.13641142960887465,0.10704863239897225,9.796823049674872,0.010460812839232544,-0.001995834189753164,-0.0062859250772883445,6.16
0.07810226412981786,-0.017806124745554507,9.566790602340296,0.0009096740094074392,0.001833939407913478,0.00017475768662684213,6.17
0.10739878332565966,0.10621074841320802,9.69362397946025,0.0046267697194861965,-0.016293252013657004,-0.016894044370399715,6.18
-0.12965871441209373,-0.10952725333165454,9.915217251853981,0.002160838177612087,0.01613783692009257,-0.005652584357978971,6.19
-0.16870419868568895,-0.059162158550435134,9.62918001663867,0.008623645423269155,0.01432170089902353,0.008033430589788977,6.2
-0.03902134840976165,0.05106065164221496,9.833376974932884,0.003944559086185072,0.008605057172783846,0.002963407982021309,6.21
-0.12524426657725043,-0.06346049507669495,9.911318870467122,0.006264047239394858,0.016702638180548547,-0.012306526780745113,6.22
0.02381865261407023,0.14651204316777222,9.7783893093826,-0.00858150476494696,0.007998278864430936,0.0017913250140089705,6.23
-0.19513486268971264,0.16242078269895172,9.926575396188294,0.005635934810286003,0.0005389432964679833,0.0015193523968946568,6.24
0.0826623204866934,-0.004077365620543689,9.816346543959858,0.005602695247301298,-0.0005872659332817986,-0.011200879466446956,6.25
0.020371459560540078,-0.07144593329175548,9.799173979571645,-0.03176456301223761,0.023527469120418178,-0.01199327683516256,6.26
0.12508025698988873,-0.01338034044723534,9.796146127984708,0.0030496243214550144,0.009238035244677156,-0.001977412571308492,6.2700000000000005
-0.06140839541678396,-0.08700814807849203,9.79264629204042,0.0022840926107398555,0.00023048492003444212,-0.0023422261116486645,6.28
0.06939058706611348,0.11836387547329462,9.829541081549035,-0.002711132838583947,-0.02897009021850237,0.007859031738109725,6.29
-0.05973185968512893,0.053591137094888754,9.782608147901723,0.0022798171409220604,-0.020618123219752423,-0.006256531341729791,6.3
-0.024810804741159858,-0.05566065832467874,9.964992722624224,0.002382225224951074,-0.009234776889199117,0.0033527767279585585,6.3100000000000005
-0.10534583579011453,0.17020845596383188,9.936956539054696,-0.011707767008770275,-0.014465407084357451,-0.00417925558384092,6.32
-0.059864880746859264,-0.08829088487883457,9.705633071867982,0.010145607452384084,0.005324228615325666,-0.0004636927072361183,6.33
-0.17889754314202733,0.05449091113967324,9.846338231994691,-0.0016704225889041383,0.012872353985812861,-0.005718113685740813,6.34
-0.05415075034608155,0.04222552255852799,9.857560690062133,-0.011665920849690908,0.012699374336379233,0.003984376947317919,6.3500000000000005
0.06425544742455928,0.14310971330877492,9.818591319465037,0.00539740373071647,-0.0036443643120125245,0.0061342351897714364,6.36
-0.026357637035486804,-0.04589915771171617,9.73395235170812,0.00872472553525244,-0.009542515391563748,0.0003475753850177312,6.37
0.012377985827449338,-0.1393375326308993,9.885291475233583,0.010051890035571923,0.007420531177485041,-0.004982213497697532,6.38
-0.2560613042661657,0.037478193124995916,9.74970574188322,0.018484784956474154,-0.01312495798842547,-0.011535957306411741,6.390000000000001
0.02031786532770638,0.04048142699638841,10.036472164381742,0.00036782978595018245,-0.00832658522785615,-0.015082352449777568,6.4
-0.060551080868409324,0.013709960430170585,9.718207060890935,0.00030139730871886185,-0.029224747962736646,0.023236247969379255,6.41
0.08818680923720237,-0.0996595036211001,9.856103143456634,-0.01763620057988971,-0.0044000232673275744,0.0021851664027622677,6.42
0.11447915572203954,0.16918733025624055,9.630552154887,-0.0008203214859028807,0.011511944640092862,0.014860029278352439,6.43
0.1365098565617304,-0.05622115713122936,9.657093939623927,-0.01948813150776226,-0.002196596967672281,0.003592273456453017,6.44
0.06172012775197783,-0.061574487115357394,9.835465625574914,-0.006718491926507579,0.03331464499520354,0.00790205531320856,6.45
0.14083801181573208,0.08882301948555248,9.719072156837425,0.0021690489216550303,0.011929983596116698,0.001003489707887235,6.46
0.12034920028297734,0.05764985934936859,9.873147378514908,-0.013005738570791688,-0.00379945877514447,0.0006965337921178641,6.47
-0.035736654396930106,-0.009204900805315377,9.780894025979002,-0.007308632118604755,0.0008643043147889265,-0.013231505866629554,6.48
-0.09976456792691872,0.02312369215036202,9.83778938633159,-0.010884981716703934,0.013231301854018556,0.005242716509474447,6.49
-0.10726821315933921,-0.12124285841973184,9.666609581944039,0.0028827119483305686,0.013990174722413396,-0.0014013192575157412,6.5
-0.023612313704829583,-0.16277262830585132,9.840791063114867,-0.007173782887585778,0.0049265205539767995,0.007221016546644016,6.51
0.2238502667662756,-0.006251335785177452,9.83439982744343,0.007895823006465928,-0.011416845346847249,-0.028415227708086792,6.5200000000000005
-0.0005284658846224764,-0.060390901668585864,9.76769109681705,0.0014146903066011014,0.014505817322455681,-0.005543284874784205,6.53
-0.17905144076335244,-0.15728993873579633,9.718589341213141,0.01861267787664028,-0.010042811357261214,-0.0012434356751938813,6.54
0.11457579665600859,-0.2134306946618487,9.701206887730672,0.003229344536496007,0.0011666786299564594,-0.0004435091792770529,6.55
-0.012326141346179256,0.019079256781305516,9.969704238708957,0.004491230483972074,-0.007782295438360347,0.01835279470804702,6.5600000000000005
0.1858211609884699,0.04722083214123746,9.758228714237994,-0.015303369893385281,-0.01208965103734279,0.005773118189880907,6.57
0.05476625266120036,-0.05368001680916237,10.042787237025886,0.00669981127574056,-0.013764737970715509,-0.0017306427907543193,6.58
-0.09057523495815162,-0.005196650982685975,9.775892368642602,0.005140658108101734,0.003957183455783285,0.029758663210026803,6.59
-0.11844551810569015,-0.18509685826875658,9.941250870484316,-0.01082853251578422,0.023870211159560818,0.011897461330478682,6.6000000000000005
-0.0013422284351126302,-0.04442037967054792,9.624218107721404,0.004374541398437183,0.004174133118359556,0.017983084402102386,6.61
-0.05804217905605329,-0.06467282632739377,9.837396535095353,0.0009443722411268675,0.003294457966198153,-0.007293518824015957,6.62
-0.16921436800759224,-0.05088807093521697,9.93161871106082,0.010690260958929838,-0.0171914675326882,-0.002575689874384855,6.63
-0.09629736551028134,-0.06473654590580549,9.92373508179687,0.0010869339507343855,-0.00575663358504598,-0.010994612952314178,6.640000000000001
0.15716562646418983,0.02103702690948735,9.771584098105208,-0.01637603890126768,-0.0070590479856407744,-0.006091093213252083,6.65
0.10160533980963138,0.18139874012709384,9.911393344712394,-0.01659456233833426,0.004027014154862052,-0.003694803908941525,6.66
-0.015253123444002412,-0.07820695987345147,9.874263144318295,0.0032016911827200322,-0.015434782182271527,-0.005613470226842347,6.67
-0.10826347261390634,-0.03926032506668904,9.857677921030147,0.009930146859294827,-0.013341651355473333,-0.009529145198780337,6.68
-0.10274409009570287,0.14025308462152494,9.780296519543208,-0.003414103874879243,0.0059986516261382045,-0.0076547955277979475,6.69
-0.00302605178318865,0.044819572551888044,9.872491691438977,-0.015851897308997814,0.003830278566252601,-0.009798474940753506,6.7
-0.14382818149819415,-0.14149843850231014,10.047193559999021,0.012491470836725055,-0.007839124310939544,-0.007556945686050266,6.71
-0.07915347799834282,-0.1317579656250136,9.91423602213877,0.024432344212877356,0.007678964411578563,-1.3802048657886105e-05,6.72
-0.05806098144436235,-0.05729093402530014,9.805756184456452,-0.009369892383371926,0.006899007920821875,0.0002860578947748022,6.73
-0.1519694511504469,0.06309530891268723,9.676275130042509,-0.009006607319976375,0.002857753685647252,0.006293429458321276,6.74
0.022271392550537603,0.036316395161149956,9.841455422081495,0.0034200505754669232,0.016796514299348836,0.006470195851455296,6.75
-0.004675511836913007,-0.04151641138569422,9.64813555554525,0.006342011723516383,0.010058362693644393,0.00593512108694499,6.76
0.17558031370978058,-0.11005251991599355,9.819868440765958,3.435820488288235e-05,-0.011986403365449457,0.01478801902261388,6.7700000000000005
0.012468278325106016,0.11749320390495487,9.799950800385217,-0.005221712033925458,-0.020943273727934458,0.003914168317864035,6.78
-0.14338373610473867,-0.1279862538837858,9.744619419524826,-0.01417026699278695,0.0023305944912551473,0.009992349796621005,6.79
0.057650427583142184,-0.015448359443279925,9.728791221482489,0.006032727510162439,-0.008776228957301608,0.0029929224860508804,6.8
-0.02622416972445681,0.08850302383826358,9.85122504154308,-0.0025416175791300685,0.005258003874143506,-0.0003675136035535567,6.8100000000000005
0.04552899099903315,0.09787918081882283,9.731298508542443,0.003230936521216474,0.018967071299204833,-0.017609895839405924,6.82
0.05764703260725326,-0.018700320834056035,9.791952768799025,-0.02039690541746361,0.011415440215639323,0.012280125719883071,6.83
-0.12627322132346092,0.07473873280305703,9.832527315285224,0.0011975834066797,0.007097758397413364,-0.008163451660120134,6.84
-0.011646214571108484,-0.03770401728448815,9.709746077085772,0.005662250724710911,-0.021749823484870576,0.0024711043210253188,6.8500000000000005
-0.015073810087294868,-0.004375490132896589,9.910504146080108,-0.0033976542535683143,0.025625729942716863,-0.003094484434135966,6.86
-0.15489006887501666,-0.19946477306224342,9.850828931551387,0.011621773521378054,-0.023542662940203733,0.0066116429431541035,6.87
-0.06680164499990845,0.08079508065360413,9.69423155376027,0.00627600716827556,0.01160532480067019,-0.005024405702289731,6.88
-0.06285340539281403,-0.06752969238639599,9.81276897410026,0.012995671656446774,-0.018938823264834228,0.004770670092908248,6.890000000000001
-0.04401395221994938,-0.040549497276277414,10.024092920729007,0.003640246963032441,0.011995659260813337,0.000634015554244781,6.9
0.23776803484266007,-0.020129636750476104,9.703906935170583,0.0016713199881894856,-0.01095860630388615,0.002682955926748174,6.91
-0.05502140817864505,-0.03557626215884837,9.892325485577558,0.006723383929000002,-0.009854247240482325,-0.019339585914461756,6.92
-0.050122527797148514,-0.12078820630655121,9.737813051277826,-0.004738346717431475,0.005267932031170743,0.0022731845842691163,6.93
0.11370983158789494,0.06354431278565016,9.652418639664514,-0.009923496783594847,-0.003637923936024974,0.01495139159830789,6.94
-0.001200222092201836,0.1405616406462391,9.826183397632263,0.0023717990452756625,0.0022520469217229425,-0.0069892332191908305,6.95
0.08963860515068495,0.0768612425664688,9.794101207329932,-0.00702854711820705,-0.004774723674268362,-0.004451216027085596,6.96
-0.03988420124402456,-0.006455381357913239,9.780352815839205,0.004190164947855,0.01176774209089605,-0.008258336645180643,6.97
-0.07839571801341688,0.08329841476027322,9.84751002136572,0.0013944608314477417,0.00846201409972527,0.008833719316915895,6.98
-0.031343719156415414,0.05050435865307358,9.813385947167717,-0.00967537030335762,-0.0036481774305728775,0.008008424885913986,6.99
-0.002580082351268227,-0.03870933342962271,9.755333993629844,-0.019354957465416184,0.010090689532728864,0.017475124444623572,7.0
0.06013594225823171,-0.045889955999288856,9.885221507348358,-0.009275678940869123,0.010775227367655594,4.035658691998383e-05,7.01
0.019538649790834195,0.18767932930512476,9.80531345151346,0.009887380797006705,0.0014914884140273755,-0.0040012034721667285,7.0200000000000005
-0.02185518172312387,-0.09886760398811215,9.705966615598669,0.009427373574310987,-0.01679242535677044,-0.004604400474217865,7.03
-0.009180079047381056,-0.10932557880050929,9.823766694094047,0.0008528063286343741,0.006440254634862981,-0.018495159084023296,7.04
0.14777986061216003,-0.03093389769551402,9.828955755847542,-0.0027782971453235617,-0.002349181707373013,0.023675439947436833,7.05
-0.07591209609477362,-0.05264613195344299,9.66061758885247,-0.008028056668564144,0.008750759489819983,-0.01734392637966947,7.0600000000000005
0.06353202880947514,-0.08624560790996305,10.057878072076987,0.01180900007940827,0.007517822786552559,0.009654527006971966,7.07
0.08791470766409816,0.08971050043502334,10.03213435912638,0.010507156748733726,0.007811083861540244,-0.006785057655890455,7.08
0.016864244889130128,-0.10978168571011018,9.774949558016115,0.011707743316092105,-0.0025961249038410606,-0.0016956524928444803,7.09
-0.11736979237096745,0.0137155869735738,9.719978830705694,0.0001790407591908427,-0.005778253621946155,0.018527594146509393,7.1000000000000005
0.06732893044390664,0.0357100219768963,9.798605353186929,-0.0036001414134690796,0.003363853357395524,0.002628807682988375,7.11
-0.08411317090846082,0.039693034048851085,9.769842076733076,0.00966372016252842,0.0044644983925494095,0.008430525250704996,7.12
-0.019487090495216398,-0.08287890678299134,10.015491828348775,0.019517867846934763,0.00034499787577627696,-0.01835569026614492,7.13
-0.09574462558959289,0.24301608121203927,10.059915227871405,0.002600421103724007,-0.006062415913842393,-0.0163754674530869,7.140000000000001
-0.08924136080634298,-0.01849357770123919,9.927405448327956,0.00577763720295125,-0.0014303743240448859,-0.00775175937273232,7.15
-0.06548263632403221,0.0497850436068116,9.900641910280246,0.019210305366654502,-0.002621633378084119,0.011913328895052847,7.16
-0.1338519068418438,-0.10473244337512888,10.055644626827625,-0.0022451651248861773,-0.011144088025169599,0.011002506888966616,7.17
-0.033471358795723126,-0.028299094913030717,9.936884073290916,0.02651789687566849,0.021348343747297344,-0.005009990174028933,7.18
-0.015619791549825563,0.24360305541129798,9.726156992802165,-0.007995173594995474,-0.0014903231226934925,0.012529070636501834,7.19
-0.1013467516267092,0.04395409881435045,9.691188897060865,0.002874692214819862,-0.008643531412450648,-0.0017217128871786361,7.2
-0.03234905220332789,-0.06846283786955103,9.801465844099448,-0.013548845983536329,0.0061089557898530164,0.01014062387189599,7.21
0.18944920931917167,0.11442103797310016,9.918967902179173,0.005297045396883521,-0.00858874022016791,0.015933045493510264,7.22
-0.06664502816299514,0.029752613973682708,9.80209311132708,-0.0033050292355014804,-0.018958749582818017,-0.004296426747587621,7.23
-0.11484895120939716,0.02613027787799807,9.885462120501758,-0.004772414527557652,0.0018498919755501415,-0.019994959618073318,7.24
0.1255008183583007,-0.17327257027501147,9.829436163171154,-0.009340200061268721,-0.005589868739497419,-0.013317969320371055,7.25
0.0326714578768299,-0.03650909401116542,9.820876845672531,0.00419665295267546,-0.00527721690522279,-0.004636912431297432,7.26
0.03678991056981318,0.09439028653539097,10.01243101085704,-0.008696978730426269,-0.0008122745959931394,0.0013563867676043473,7.2700000000000005
0.18660986497484405,-0.12535392741568072,9.814873744814003,0.008902485089611983,-0.00801358438611698,-0.010593163350135729,7.28
-0.126375895235459,0.0329008382488304,9.855525829690466,0.0028189420909449548,0.0023485826110915486,0.00018086378953426454,7.29
-0.11297238959960539,0.1381949113457198,9.932916055424922,-0.010947688199562789,0.012135994371141639,0.0018843792746778938,7.3
-0.08465960177925491,0.22143949335343913,9.874507946249025,0.001828912871275545,0.00486245971713535,-0.003612622547507759,7.3100000000000005
0.0887242581544025,-0.040852600918577335,9.775204630978514,0.015013023237069332,-0.0011202358467220768,-0.015555389435402913,7.32
-0.0435965843807913,0.07468486890210169,9.986131032980596,0.0014428110019343594,0.00884631856179245,-0.0011064934611203538,7.33
-0.0418517967392539,-0.2734079339845101,9.864684610490725,-0.003527749963351574,-0.007048508326281412,0.005385289412224366,7.34
0.11640081429797755,-0.021184663102093007,9.807840059438906,-0.005875596788900035,-0.009121499802580047,-0.009792184917762025,7.3500000000000005
0.026131060309666457,-0.025028230595986013,9.673849283513524,0.014040205413948854,0.008002821879800196,-0.011300455219474145,7.36
-0.08061297820406496,-0.10686401837175902,9.764460091528832,2.6060048470453654e-06,0.011001313431759958,0.000896722482977365,7.37
0.029651301940108257,-0.051364439991752546,9.745988653933317,-0.0001677484707451991,0.008676870070257007,-0.006510768929667425,7.38
0.02326204147506937,-0.12221762554131153,9.857729454558624,0.004790054259927442,-0.0033085928375099043,-0.0022001190243338196,7.390000000000001
-0.15962415836162558,-0.09143038925434695,9.76686340546938,-0.007820890846909775,0.001024415499145689,-0.005497506190674958,7.4
0.04901182324833122,0.12990651704584674,9.763750151449967,0.0009812205055432755,-0.004721694937005553,-0.0010560320483926709,7.41
-0.15520322120332367,-0.20965874343841523,9.802986237104582,-0.004706509470045886,0.008660795021191646,-0.0016031985936617724,7.42
-0.09293295107011472,0.10476190531664478,9.933019072896597,-0.006032081868447863,-0.011699126590397901,-0.010248243451371158,7.43
-0.12586713006921726,0.1372955671403973,9.750775320421777,-0.0008658279371223603,0.004118612975101936,0.0038992250341596843,7.44
-0.09196650322097738,0.002675546343461634,9.863515084505872,-0.008523687128683427,-0.0035383248216120824,0.0017870747705643823,7.45
-0.10180145314278949,0.055544332492987084,9.770399654576693,-0.01052227698239416,0.008501875261522499,0.013751154695841162,7.46
0.11087015071641158,-0.07317389647369404,9.815527691582366,0.00746607321925569,0.007401147896159479,-0.0049209977295133975,7.47
-0.03045615029313011,-0.09771758511848867,9.859318774507972,0.003426556583386872,-0.004570189352387468,-0.017802272585203952,7.48
-0.021951094111697156,0.035912153302009156,9.685558273278438,0.003045363305028991,-0.0017430939803409783,0.0010442367610521777,7.49
0.01209538717734027,-0.034449895405870255,9.847328312848289,-0.009397808234747104,0.0063426855603724765,0.0020468766567157573,7.5
-0.0823524514696261,-0.04727299434478482,9.941397621466162,-0.013972095647395528,-0.002059867681055777,-0.005141639022429837,7.51
-0.22035335269193834,0.0671814434159414,9.941523488674587,0.0054741258673108055,-0.010322327251541127,-0.00021143599738044519,7.5200000000000005
-0.19769072432418933,-0.1061815160890945,9.922006736951785,-0.012619211021027569,-0.002082409444039015,0.007226207719598949,7.53
0.10077959262826551,-0.04246632388961096,9.648547566599108,0.006404981333398442,-0.0029128084842566645,0.002362200470968134,7.54
-0.06452684804170805,0.022972914865278485,9.924075333497129,0.005306490869451124,-0.010255492673201751,0.01024439770586561,7.55
0.16109682101543432,-0.013749766731419708,9.923618514112835,0.005022526492085809,-0.01630366768601634,-0.0007051622169075279,7.5600000000000005
-0.059502376332310626,-7.81453691324351e-05,9.805309486286948,-0.013621643996131805,0.005362006457267614,0.008584138429860628,7.57
-0.04255340158029144,-0.010451811248274538,9.765531736862576,-0.006873427877596501,0.019683792671415647,0.010778656159576685,7.58
0.02639746086179845,-0.011730808849331179,9.78390295777118,0.008815644305456874,-0.0184678058703657,-0.007944089528229718,7.59
-0.1092387638852813,-0.048829290856198915,9.598872116489758,-0.005163370608427824,-0.0011791839328072708,0.012827289871590907,7.6000000000000005
-0.013022293449577988,-0.07165704268821403,9.942276916232728,0.004897822325955617,-0.001900331692785251,0.019849275641040397,7.61
0.03968898876468151,-0.1952658581005041,9.731071671677727,0.0025940961793305926,-0.0037987325148660478,-0.003360424778906221,7.62
0.20776479541781778,0.019302970458453274,9.783308224458727,-0.001731700400834967,0.021946862264436106,-0.0071208009289049105,7.63
0.12872565281277895,-0.061092563470003095,9.822461286324526,-0.012042068149444012,-0.01461817670323906,0.019039082144173828,7.640000000000001
0.11356027419524176,0.21740654606645402,9.746192676366592,-0.005967290962835996,0.005373682313050222,-0.0015060931248947343,7.65
-0.1043424337610469,-0.09494471216417405,9.773538718006685,-0.010183004683712337,0.003590797813751267,-0.003955481228754126,7.66
-0.2279693295895152,-0.04550425951410008,9.97024678227216,-0.009690932345042539,-0.005770806655423273,-0.008698420277590092,7.67
-0.010434249351967717,0.053958564218362516,9.728024699877805,-0.002972621191373641,-0.0016543253008066432,-0.00038235820998944804,7.68
-0.051137322154578946,-0.06955805908452269,10.066254976260856,-0.00026716509885786773,-0.003088262917036155,-0.0011652740748459838,7.69
0.08131797820958367,0.0032147901982684172,9.976344606823732,0.006491911263598055,-0.012564263869362366,-0.012315319957314283,7.7
-0.19820798813784668,-0.006341604192205515,9.900604641042301,0.005569227550635036,0.005894520488215181,0.00917179753682511,7.71
0.14629253360234995,0.16524402358564697,9.74897510080497,0.0002456865153347387,0.0005875906555232848,-0.023066007934872814,7.72
0.19494948806515053,0.006430650004490422,9.996016915768262,0.004595215188920949,0.002662770583315232,0.0006844802887769734,7.73
0.42731726879801446,-0.03190136812814259,9.713170038830103,-0.005896483726288944,0.021921505675207963,-0.002491278854979614,7.74
0.07322276373115186,0.08560381138841477,9.83329834988139,-0.0006875148313095847,-0.003680053126212632,2.0699303751347178e-05,7.75
0.05036197349549881,0.08871925714318739,9.862000425162048,0.0012833826123028564,0.0023213022811679122,0.00032550279954125127,7.76
-0.011906961643617198,0.02262385187913445,9.845272080050966,0.0032642844678441247,0.004561778913265783,0.012172346098622397,7.7700000000000005
-0.06368527427471395,0.007976818018093088,9.789629067596048,0.0001973485231129548,-0.03087916852294403,0.0023057806000497715,7.78
-0.014512111208175455,0.1748628457276451,9.873365489026877,0.00777452451969617,-0.015686007083303775,-0.01213365708267616,7.79
-0.014137673014521868,0.006206172929471103,9.744100159690797,-0.00046414299987805027,0.01383230382990667,-0.00033195928125947654,7.8
-0.039128993879731566,-0.2059747328290111,9.687331738578255,-0.019695740151814873,0.016775686028734634,0.003451906297799518,7.8100000000000005
0.019112397128251832,0.03304414896812479,9.726399185405866,-0.01384960539890615,-0.0036142850054770026,-0.03320042473887045,7.82
0.1007572673680943,0.2484533635994383,9.88547287517245,0.00970137701368391,0.0024796809875698013,-0.0069949838896594075,7.83
0.02579425789983005,0.06107068080194759,9.802601009175156,-0.014461754959420356,0.004259402110155059,0.00948443994809515,7.84
0.038264638830742256,-0.0018700350993167492,9.848105911137448,-0.01810704451943873,-0.0006236619857892681,0.0015693547633813777,7.8500000000000005
-0.100629839068617,0.003911653107174934,9.789005502430077,0.007787364345264911,-0.0014722790987311588,0.0005515745375553918,7.86
0.12995894792159277,0.1691531651589911,9.549625374102968,-0.012402266462113992,-0.0018944176303651115,0.022459550396762097,7.87
0.010248922217823794,-0.011635457512165893,9.792755414260679,0.00047732983838562516,0.0074276095058542725,4.255693700043822e-05,7.88
-0.15802818760638904,-0.11789125997579719,9.945050162285934,0.008012772384735441,0.010293827739287602,0.01735071038199431,7.890000000000001
-0.03825590264715095,-0.1483398223154517,9.834116163367348,0.0050105310375809335,0.0026458553507930516,0.011659258782339275,7.9
-0.10162628526758255,0.03442361675355996,9.746298675945166,0.0022349491836916786,-0.017072891484674797,0.0076626824618816125,7.91
0.1195655242857082,0.09512269653817308,9.885128316872391,0.002251086046263828,0.0013814990711393852,0.002791914866921694,7.92
-0.12073025737177903,-0.1174627473416564,9.870225473864327,0.0008143810729720097,0.017527343958410994,0.006588466457800163,7.930000000000001
-0.07019274448668959,0.16239796578615137,9.708767336367849,-0.005036025854251699,-0.0024490301133638544,-0.009311612469165995,7.94
-0.08527575421789892,0.1480706492936888,9.823957258671415,-0.0002696843526410182,0.00420934726711901,0.00701252036699063,7.95
0.1261900883283966,0.010655215532695803,9.921140922934773,0.010661214530418787,0.019192578032972005,0.009567621836909027,7.96
-0.16851708241715213,-0.0008370695536680847,9.823603138950956,-0.008001833847572944,0.0015384956833343628,-0.006401429431254481,7.97
-0.08328881173136073,0.06557508222987989,9.766037875887383,-0.012034882829723731,0.004335618402429039,0.01221505947241144,7.98
-0.25037971109169627,-0.06958278671331015,9.701307641136399,0.004397981220724867,-0.006614554518617555,-0.016016097232935633,7.99
-0.011084988553074819,0.05134416910333455,9.961487086166716,0.0029034893335560413,0.013042542007808682,0.01794637842776076,8.0
0.054411809718528686,-0.2195195229784131,9.606414911227848,0.006081368202300485,-0.01159114285559838,0.015119712426161381,8.01
0.10315372245504842,-0.11775902141713662,9.932577663443762,0.023821349258729096,0.000800591444084287,-0.013753703908080983,8.02
0.0796542198210253,0.03750721462444171,9.883359111919367,-0.0039225325406625254,-0.006399766167902975,0.00018860237976931868,8.03
0.19057381514748098,-0.01761143355247181,9.785893758793314,0.00705996738117348,-0.0001317629021778971,-0.020250934774755976,8.040000000000001
-0.23526092486920241,-0.08651419916269873,9.964326084818094,0.0022765296051055206,-0.009802913030106391,0.006164037453896356,8.05
-0.1206168224013297,0.03632984597795168,9.890634964851158,0.004522755857936268,0.004133131509019028,0.0030271260614203577,8.06
0.055225444355585365,-0.002321278476710315,9.667954347361567,0.014934093570700703,0.010717399449686627,0.014238788606539526,8.07
0.040877696668328516,-0.04429387333144377,9.952518445975247,0.002613885010342029,0.010633292577138883,-0.009016678111700668,8.08
-0.01892442820804879,-0.09771641911006086,9.738825263999553,0.006773538938277975,0.0017378527925060805,0.015449470238266037,8.09
0.12885145653760086,-0.23096657820452157,9.752889835788379,-0.010366657754292604,0.004926317174169121,-0.0007983874477002311,8.1
-0.12877888659699202,-0.2602760431880611,9.70460081583002,-0.006217104092997601,-9.281545344597547e-05,-0.0025905358844564535,8.11
-0.04062924793871861,0.11893970798689724,9.846135653510263,0.01949673592216136,-0.024856215591706147,0.008987055826775671,8.120000000000001
-0.04147434194189378,-0.009999806248850433,9.773593465723039,-0.002427569846575741,0.018802405413374454,-0.013845005138035701,8.13
-0.08522722968259884,-0.1360133390822073,9.838036870121744,0.013334510775301647,0.0032110018827503253,-0.005878345020447261,8.14
0.06874307657745539,-0.2050340388322511,9.876990428000056,-0.0031623103591975244,0.0018981701984152944,0.010583262233278134,8.15
-0.09738061461475833,0.05058524392482133,9.745706624675693,0.012008190787681464,-0.008749581947101206,0.004087963889090558,8.16
-0.09991451010638203,-0.0534414980273471,9.835988382186725,0.0028723720918305234,-0.011328195913833598,-0.009662505371278482,8.17
0.07873525664262042,-0.15845840514478712,9.830665045780147,-0.005347902688336681,-0.02100129829118252,-0.023581742484047402,8.18
-0.15611850765566454,-0.08885826303618022,9.795314574337226,0.018796078960524203,0.020416299735293464,0.00493540902755752,8.19
0.024823751259662324,0.12601137111166036,9.699072630264837,-0.0023270852130274416,-0.004125821863374718,-0.007022270524354056,8.2
0.06365148618306976,0.005217404022612344,9.691909410461529,0.005473945120789904,0.0020990818980573607,0.014618580139147182,8.21
0.09875658908789992,-0.03281334825261107,9.746075589506054,0.0030478973199757156,0.0010852223677417846,-0.016472967388201743,8.22
-0.05595078325160383,0.09214597656573537,9.982969121243476,-0.020056143992929144,-0.016841585675653307,0.006353310149666121,8.23
0.0787206794294123,0.044583751720570115,9.976476692527793,-0.010475722165153549,-0.0019392394844180592,-0.005180966808589937,8.24
-0.06082445405011458,-0.005378877498002564,9.908003174947273,-0.007510219272968366,0.0007956828860683761,-0.0064014562031546865,8.25
-0.14480656785421192,-0.0018773117162747663,9.9348619297615,-0.004640795308962835,0.004702362100382667,-0.012632779135974088,8.26
-0.214354510611117,-0.20202380622967542,9.897969754546216,0.015566350568767396,-0.0085679704785921,-0.01348847519545886,8.27
-0.03136435572430083,0.25359837350924386,9.695365496969396,0.007436690662837832,-0.01074885680324927,0.005241394541973743,8.28
0.03485115050793159,-0.010294152923918646,9.85219389366027,0.019337438031576847,0.008891719065448172,0.0010740605562870509,8.290000000000001
0.09784911365938194,0.08611849366719243,9.863652345762011,-0.0034312541176988315,0.011670170193310911,0.01477184174351506,8.3
0.056307419554403874,0.11576812624659545,9.812223857858204,-0.0021950583109195255,0.010231064233174783,0.0015595660910431854,8.31
0.08325881828796362,-0.03284801080561259,9.90233168364753,0.0054353566630978446,0.01656853966040863,-0.011549606090332874,8.32
-0.10974753303714442,0.03454565407351528,9.755291202217867,0.0024387050124427176,0.008503035774427726,-0.012035596850329542,8.33
0.14951872999268834,-0.009716980376317609,9.736627465832466,-0.00034348055642787417,0.0057394267058647535,0.004749918250397182,8.34
0.12382324013581057,0.017249372827301504,9.820484669360956,0.011320975561643442,-0.006728363900022875,0.00048555733247923963,8.35
0.05293980265574816,0.14879438834880604,9.768302470914806,0.010712888215248278,0.009948987724088216,0.004549369303126723,8.36
0.00841179847493132,-0.11801709834171355,9.670608946320678,0.016353659302255838,0.0061683936081135815,-0.010875622318313124,8.370000000000001
-0.027087094950622493,0.13593941584599725,9.783446651047942,-0.0038471011642205078,0.0013977717288776643,-0.010112831138291768,8.38
-0.051089687780133654,-0.13900956626125197,9.775335617955331,-0.0021013278484027474,-0.00033098120328761373,0.0016661183398404555,8.39
-0.05183453868824605,-0.08785331347848052,9.78213508999748,0.007751838684727812,0.02152753765270889,-0.004912139537129663,8.4
0.10045994353821802,0.0025502193307823974,9.810655207437971,0.003591035990762595,0.017859506763870006,-0.0172659028710962,8.41
0.114135696002434,0.12578934855420792,9.891195162136192,0.008408916237219205,-0.005410951028258967,-0.01111338533907208,8.42
-0.017654639168073815,0.2192352035910716,9.969660629078273,0.012861210611276352,0.02864218608099752,0.010594206831120815,8.43
-0.03629670717255951,0.11429224872648913,9.845828044225708,-0.0037933849186135168,-0.0004315671685105607,0.005384758392064529,8.44
0.09396847846723445,-0.19473964034400282,9.735725134228705,-0.001780952838500636,0.009280070266613457,0.010701382475620375,8.45
-0.09280319472887535,-0.17499376993264237,9.773887288086858,0.022630787977524644,0.028581721814744554,0.0032707744641997903,8.46
-0.06397969098841631,-0.11422530037204176,9.745044532113367,0.0005236458487956076,0.005736927148560554,0.0023423556487010212,8.47
-0.16914594122362142,-0.11529250245225049,9.766785776403658,-0.010974620423893007,0.0006495738330832826,-0.0039012096696839737,8.48
-0.12050325980954076,0.06839156433887943,9.794684114018272,-0.016290687450548565,0.003172429167703437,-0.01117375670693694,8.49
-0.062474821332703614,-0.23527708832824482,10.092970224824656,-0.011222965267363699,0.009337688345100386,0.0023922605844208552,8.5
0.19273242422391162,-0.001912878876884714,9.891514239408092,0.01217794794142281,0.002830400408034622,-0.022957597187540056,8.51
-0.09576662492114964,-0.0724385523256795,9.765822335035997,0.019232544361250437,0.00843759666746307,-0.0034579710558695588,8.52
0.09125269470163294,0.0306732433485793,9.85575569138362,-0.005979464193634902,0.004341429321146641,0.013740258565895206,8.53
0.08047697553527314,-0.007947278846175144,9.806182485732588,0.006863990279326025,0.006302061366601769,0.00201867076979399,8.540000000000001
-0.17328595700233662,0.04681831516671969,9.79903962968243,-0.008591711359305624,0.010901421377689671,-0.0052894888465973055,8.55
-0.00237451584502383,-0.14237098593532937,9.707753629565584,-0.007014695803127491,-0.003666433278040916,-0.00838643547802632,8.56
-0.08235448847792409,-0.002080568844428762,9.907603891860365,-0.012543729665105587,-0.00973971035883096,0.0026765935927347316,8.57
-0.051996323888287434,-0.21437767491388324,9.810073065215422,-0.002577397201557755,0.0070954722037790945,-0.010096158872162878,8.58
0.03766276396407792,-0.0338861842523,9.712387171596822,0.012385697431577134,0.0017211881868673298,-0.00673323085269971,8.59
0.07999305832479928,-0.08306906030361834,9.667204396162052,0.009034823105041915,-0.009847558790619748,0.005154712370698901,8.6
-0.08442603440076535,0.11790648838420184,9.93400701262953,0.00544912657984321,-0.006930039620589122,0.006742384942129892,8.61
0.1316727792843135,0.11125856125770323,9.836834379709266,0.013300513109713698,0.011147458677015856,-0.00842366046084434,8.620000000000001
0.03580313473463219,0.20967567898274006,9.724601333235517,0.0013347048194804546,0.007421407503768247,0.015228954966525257,8.63
0.03195688456860147,0.09025926770700045,9.765800451392394,0.014366030588441655,0.006277963873931103,-0.000984185164491172,8.64
-0.14788595409329733,-0.12333243880094479,9.831313477189664,-0.0010391008922463823,-0.011685054901731438,0.006623234524847143,8.65
0.18091847303627662,0.10850357810093206,9.720921803120731,-0.0028829866093842012,0.0132867438609517,0.0186997668129739,8.66
0.17057013978426033,-0.17623381026800145,9.802397600112213,-0.003592779821110563,0.009593733839621223,0.006000526000292441,8.67
-0.02819041614162683,-0.04711375543212891,9.731251241375048,0.008365192102182529,-0.009009008214668091,-0.016424223372229495,8.68
0.047161417092469585,-0.12866012516279904,9.674791119843325,0.00048503309993847015,-0.0012382621360357694,-0.002015848769801706,8.69
-0.1122516767679192,-0.038353310299911306,9.660641924016236,-0.00646541723007868,0.008518176367103546,0.012160550437234192,8.700000000000001
0.2480071800586405,0.049602376786873514,9.937011059799387,0.013237232219699949,0.010928449386074925,-0.007416304488321652,8.71
-0.05752018560696359,0.12136716530690717,9.847766521337567,0.0020163513301189617,0.00986653303364164,-0.004925687194934086,8.72
-0.0566140146531251,-0.06867553225542954,9.855251529092728,0.011021611953134326,0.012545809152673311,0.003436662506808479,8.73
-0.009221457760120339,-0.12349919882636014,9.86176796656977,0.019368230154133425,0.01007184083504378,-0.024100069817652663,8.74
0.057881237440376355,-0.03884415753217313,9.860825505861275,0.00454026703417467,0.009606417016020772,0.006545976576471523,8.75
0.027355512246591454,0.008719214782665867,9.519657235528651,-0.000595988292051894,0.01164331311679322,-0.017976970092201443,8.76
-0.20572420010430534,0.007821003195497016,9.724425249382177,0.005600419879047723,-0.007752521640906784,0.0014101766198374092,8.77
0.07836678261867516,-0.058695968127962406,9.74296428169451,-0.008715973059518201,0.010823055397703377,0.001996292848848279,8.78
0.04368909063088933,-0.07992219122968522,9.689286211380644,0.013734802558722996,0.019136347525539766,-0.028300171041101493,8.790000000000001
-0.1914793179161811,0.05010473268532985,9.932071691840108,0.006925660739249684,0.005378933491054624,0.014675768379366128,8.8
-0.07893461591919032,0.061469469433545566,9.99419470290907,0.0079957078291714,-0.00595451225426447,0.010690623094258514,8.81
0.02531037081336959,0.008526210744039057,9.837565714303693,0.00593705842261757,0.012990916818415266,0.0014471371215078524,8.82
0.04280851706995074,-0.12282530164064775,9.88702890774819,-0.010034213410758224,0.00709436817435409,-0.008887217588332184,8.83
0.04923696989695143,0.13989694225067748,9.658169276280296,0.006230862211448618,-0.014679037664415907,0.0026845578925045253,8.84
0.0064547265874577535,0.055383400300059706,9.785496073428599,-0.017307852828251417,0.00041956717133012704,-0.0018668249770595917,8.85
0.09901398932424656,-0.011388637085748573,9.695025707464072,0.010190417956525285,0.0027829149975973663,-0.004918245210104212,8.86
0.053226531292813954,-0.28409833156271924,10.019963019540244,-0.015738380869060594,0.015098933635002481,0.012854761441232545,8.870000000000001
0.011389518131225832,-0.05630073167405626,9.822363793880593,-0.0031772154948648775,-0.016458635907713216,-0.007757893326682708,8.88
-0.04145589735758526,-0.11262111266130814,9.674785905336682,-0.002121934578419512,-0.015087501490949746,-0.006145493216968064,8.89
0.06859830160168577,-0.1644762372018812,9.983025352775742,-0.032271299289354405,-0.013510441979631107,0.002684696875835545,8.9
0.10519535416735432,0.0753340531219509,9.812255816695838,-0.006656336664286781,-0.002692269332170879,0.017377163665966613,8.91
-0.058305800562015044,0.10124221604663404,9.709194133663342,-0.00930754912182773,0.00010812659826311372,0.016381814585241374,8.92
0.11673860170687728,-0.013031886898015982,9.648353928153092,0.00545734050897236,0.024458126934979785,-0.0185729583777649,8.93
-0.04850357410713725,-0.04041817713193342,9.727033260674672,0.004033342442391645,-0.006869554849848097,-0.008146551480861883,8.94
0.18105113148106478,-0.06238093973192277,9.653689657227641,0.01740368765105276,0.01132612007487771,-0.01032533722012429,8.950000000000001
0.0950993249831303,0.13230344613381068,9.899584034731456,-0.010899182624444,0.0034218999990594085,-0.008114158335647775,8.96
0.18647248246563614,0.08813933758575876,9.741325985525668,0.020555991968646273,6.254423665479647e-05,-0.008406375970000365,8.97
-0.05031340265293799,-0.014963293397419003,9.81495156754811,-0.00035423924867292167,-0.0014312972535475649,-0.009625490112838836,8.98
0.1303205037185418,0.2531166657524728,9.881642506284418,0.01263652195801981,0.0030704554971814815,0.004087375343029549,8.99
-0.0014857312607017062,0.016870865486018342,9.77620898509076,0.015636002119262846,-0.006792748735219022,-0.022624229472353364,9.0
-0.034617927250512055,-0.13364209922761633,9.92645804776949,0.0035477488173329802,-0.004737398139320776,-0.00828312771532852,9.01
0.09188913566176107,-0.13927168918228422,9.857153480062879,0.011422707124711471,0.008520327919040147,0.0021758150986510593,9.02
-0.03923680122238398,-0.06725788398437266,9.990836925635145,0.005691219401384566,-0.003084513675630875,-0.014943402585149026,9.03
-0.031512129331212224,0.09975195321443174,9.688971032693201,-0.008793460983699855,0.0030321333672250666,-0.004945500580408611,9.040000000000001
0.06145261297407842,-0.08772979094450704,9.667714575463622,-0.009097744109552365,-0.015813938099268735,0.0036436627732585715,9.05
-0.06843806191372531,-0.10640997365646543,9.781110815509331,0.003502118331822784,-0.002429313816187894,0.013635939345294897,9.06
0.2241245896355406,0.3804807968213035,9.676338450146517,0.010522061397997438,0.012832649708514299,-0.0026059587228744576,9.07
-0.03222695210776683,-0.0041625576107732236,9.734684777940545,-0.0005179295937843567,0.0056162571057625345,-0.005008927563132615,9.08
-0.07567151411928173,-0.11945591950531989,9.885516589382814,0.004576530150109994,0.015455134796560311,0.0019487130851111654,9.09
0.10928326855377975,-0.012025962986050456,9.840712325025287,0.006827574845035854,-0.012375617835541572,0.014996967192983265,9.1
0.027490587671122554,-0.13972138771465412,10.002603719811749,0.0016031523843425036,-0.008531433538425604,-0.022234088196625992,9.11
-0.26395892722285336,0.12557036718523928,9.839437291555345,0.0067191533677663316,0.010633065819214058,-0.009280120378253338,9.120000000000001
-0.0686917029594392,-0.02464788803882277,9.934497935518085,-0.003842795615707098,-0.021938314690742908,-0.0034347397741518932,9.13
0.08529965696311387,0.08749194112640518,9.801618143446115,-0.0005407153276606263,0.010232518734534709,0.003804874789778696,9.14
-0.11535411269107006,-0.07913898535976563,9.990064947035533,-0.010534798419582115,0.005634895753922164,-0.0014525467919294602,9.15
0.10312592245985604,0.06203551942090967,9.856356867626118,-0.0019017968602890326,0.002443373177571466,-0.0021780635647258065,9.16
0.08500415123371902,0.05257428254077309,10.080475570863767,-0.0014956526751154033,-0.006959282826255516,-0.011561238091660127,9.17
