ax,ay,az,gx,gy,gz,timestamp
-0.010981338144892959,-0.057337766330056245,9.863866555726407,0.0024205277731613887,-0.009054903614047392,-0.007253682354406257,0.0
0.18841186512648378,-0.008998120323414365,9.739578043893346,-0.003655104172225449,0.005997498044398579,-0.010286570901157737,0.01
-0.09625746523634163,-0.22643388389368227,9.815871183746525,-0.00846050127966239,0.017325031801863414,0.012192190918690312,0.02
0.08399036939207316,-0.16333383420550723,9.830665883624404,-0.0030372382106106867,-0.005853135481587532,0.0016976866504211769,0.03
-0.11402363553228048,-0.020541037079292612,9.712402671700353,-0.01419479639203113,-0.003270608671103936,-0.013216802362554092,0.04
0.1445461133076905,0.11686073790137473,9.721898309650854,0.0012149442952691383,0.0012279552146070895,0.015466831452178005,0.05
-0.14041310327385512,-0.15233520711519333,9.95445543448083,0.008465780289424256,0.00970436704812016,0.0005218196420016967,0.06
0.04536448500727519,-0.11693148264995619,9.821383668655512,-0.00871903936249425,0.014170881203815567,-0.015913443443843954,0.07
0.17625063303978297,0.09296574749790827,9.669755666146761,-0.007141718181859761,-0.005520939780053318,-0.001582135223337323,0.08
-0.04810207616223205,0.06576816378633066,9.736258253986962,-0.010737308406496072,0.00630206522477662,-0.012449835801673356,0.09
-0.07733891622938077,0.31316421921319654,9.691116293044997,-0.0006509821196836766,0.01217548904411103,-0.0010284392646471403,0.1
0.11238169610869651,-0.1905806362328349,9.857498946400037,0.014782392809867545,0.012480474283749933,0.003652865692406056,0.11
-0.014727733587733192,-0.03726322181576269,9.915407505162554,-0.013904390528752931,-0.012968920180828293,2.4509604630089846e-05,0.12
-0.10752072875649905,0.09643046186153817,9.7938465282813,0.0030283817880553576,0.007887920258850134,-0.0019012336798699659,0.13
-0.11097072353431713,0.18968945604813495,9.761215966265715,0.01448817106314011,0.0005368405780346485,-0.01101921399312426,0.14
0.016180676902015915,0.15876096563855743,9.606512869162879,0.0025852574359282914,-0.01822063376296916,0.006007932258707448,0.15
-0.11878806917709946,-0.11708484783464311,9.915880104460296,-0.006735191562647476,0.014590845187618271,0.014252288940752112,0.16
0.13442723055640043,-0.08280071969363982,9.911708087579326,-0.007207589573829514,0.006093083691492971,-0.00299559641177971,0.17
0.09991929793108772,-0.08129797369634059,9.74556821985202,0.0030395042215228553,-0.003826545885013783,-0.027431583366559386,0.18
0.07230806882882235,-0.13799175455616416,9.866135764371446,-0.008099350880900205,0.004071892584060595,0.0037356008055388747,0.19
0.0693879662779913,-0.18873540429423463,9.863761974057565,-0.00039933479166918306,-0.00654324717420662,-0.004219879153619056,0.2
-0.015085915592982203,-0.1134142884371655,9.606782011530445,-0.004978927633731961,0.005601090541473794,0.000281992706424497,0.21
0.08635369953467026,0.16225845631906854,9.803537725055252,0.0005508330479453487,-0.0020617689907000115,0.0037167353382648555,0.22
-0.05557382985694595,-0.07712145376662885,9.698680354295695,0.004048638887746261,0.0002136388999659821,-0.0021321932606894324,0.23
-0.007579792957820394,-0.039259061262321614,9.680521430679763,-0.007653245977820973,0.010595985097722386,-0.0121851900271628,0.24
0.1026432360906283,0.06685705002433967,9.90375421480617,0.006096037607542838,0.004384465654751562,-0.0015525553056347577,0.25
-0.00402720964997749,0.14436185173002583,9.81433683755027,0.0023165113976738962,-0.012315640249601556,0.004523262911036498,0.26
-0.0488674987610535,-0.0952060262124807,9.779502738094155,0.009696361752743101,0.0030930949249814072,-0.013237522608232561,0.27
0.01709205826202367,0.05973298247032208,9.874747800067402,0.01268683916449785,-0.011239597925531872,-0.004239175707788766,0.28
0.05017449814685509,0.2326712868100474,9.795740379734204,0.016654410370190137,0.024166371925816398,0.016900403480386735,0.29
0.06472305229260437,-0.032620190706406094,9.762977879544044,-0.00811627454535834,0.003931058221528054,-0.029887133279319602,0.3
0.025739777131681987,-0.13497660591063906,9.879380211848023,-0.00576121628934166,0.0036328285390517722,0.004800218516525722,0.31
-0.08011248344733615,0.07383580142606665,9.951530298085181,-0.01505413727906386,0.00886160659229957,0.006561708012917583,0.32
-0.039392409659466165,0.08694692178893221,9.74344851793095,-0.010224482908526148,0.012783801613275867,0.008964058119807163,0.33
-0.03200066469343379,-0.21087494229949974,9.694902642589453,-0.007703575200113472,0.00186601795364496,0.018983084943588063,0.34
0.062324896969413436,0.1203305765626356,9.734556829287293,0.006514133287649827,0.0042753525332771165,0.01381027712010217,0.35000000000000003
0.024228746277534872,-0.13384735373444864,9.968571487243468,0.0014327186670300169,0.0012408138159417392,0.00861101569701488,0.36
-0.024220086598312804,-0.022389288793449078,9.74786632431345,-0.002987659234266332,0.0138465251434961,0.0011129048696654651,0.37
-0.05261999446429999,0.1761542649075673,9.920315307396075,-0.0068146651373719325,0.013989034800980779,0.004345645985524412,0.38
0.022382477789487883,-0.15207329691307048,9.951562657863349,-0.011464798799529573,9.858526496587227e-05,-0.004771850499960082,0.39
-0.04155304043912558,0.02458251274271197,9.71092398897207,0.015240586269407545,0.004358950995626844,0.002271970677609619,0.4
0.17985943795426068,0.12588627932827712,9.866080343140212,-0.011253883876823913,-0.0018256559718583358,0.0013154718244399227,0.41000000000000003
-0.13201095378853428,-0.07545599734875547,9.676211588553246,0.003637510578227468,-0.017483354991678225,0.001347427818472492,0.42
0.13346706479745066,-0.019515343949681328,9.819132234344341,0.004908496399791083,0.0005551807323669992,-0.005833665922650463,0.43
-0.1490887148685594,-0.1646465663928082,9.864495208502102,-0.01385969517792572,0.010013057751810526,-0.005662161765393601,0.44
0.05227367134932105,-0.06617345382322401,9.864280707120402,0.001259637885108643,-0.0041631545291971874,-0.007216178386386515,0.45
-0.0016436062807750206,-0.1523273878861643,9.885535467340185,-0.003269761881787855,-0.011610970372869159,-0.005001673160291539,0.46
-0.061469513792474575,0.012298773215031512,9.834872506351715,-0.012934940253958412,-0.00602971852948237,0.004193469596210655,0.47000000000000003
-0.22526579704698643,0.08511144469464982,9.809805332062155,0.00029009987966154444,-0.002814886670402548,0.012432655898175026,0.48
0.008417508656077016,0.049092866880941666,9.764968257008135,-0.021266689072140875,0.010515063363661177,-0.007536044975427765,0.49
-0.09252174388628326,0.06897032931371964,9.87170208698518,-0.005201069674714785,0.003399576111701938,-0.0022217984053825492,0.5
0.016443187690314477,-0.0942419643062709,9.807146536743137,0.005084654084580241,0.011050345561056989,0.008506054189843388,0.51
0.06452886528492154,-0.023456906171647914,9.642099572306059,0.007682270780374025,0.007315922260887084,0.0025348005104000714,0.52
-0.005822480374799464,0.11560027670970624,9.754588842537578,-0.008402763190805513,0.008985596855118126,-0.014143207581307035,0.53
0.157205424431224,0.0687739470754291,10.01998722884305,0.00619870272399159,0.002261191656119853,-0.0006354759312908815,0.54
-0.17719851702870212,-0.02290146966362626,9.746006149301802,0.00715562493278825,6.106712151493803e-05,0.008266342271092948,0.55
-0.10808794204382144,0.055648163722438894,10.03347378641803,0.011872207315701011,0.0010174169511853804,-0.007576654998383638,0.56
0.04062524316537905,0.04462308648762451,9.886316196750444,-0.0027404430732378437,0.007798808535025435,0.004363421488789038,0.5700000000000001
0.06492489763868037,-0.10141314859839096,9.975503573447233,-0.014430396429083796,0.006703601340051199,-0.011658118784921307,0.58
-0.18370003779355507,-0.1433362043305493,9.943753222895708,0.005752197566411725,-0.005879444040734996,0.00029074897097985724,0.59
-0.17601653947670975,-0.04232118416730034,9.989899990621165,-0.007713731842618677,-0.007487763474641275,-0.009413701437072111,0.6
-0.1310420169756787,-0.0974876355480847,9.855190605666603,0.0059056180594947395,-0.0015780806702576987,-0.0075167859331442925,0.61
0.17800141413418835,0.046827656030726805,9.777779315863883,0.015157235819773365,0.019562566552931995,-0.018103199866010007,0.62
0.052941920865049376,-0.11156473725542392,9.913422948533732,0.00432855912397699,0.002264571892074016,-0.0029520600623637785,0.63
-0.01613633085015591,-0.08164955711285597,9.73645902420554,-0.0017124688747080564,0.009983127054093528,0.016257049086522132,0.64
-0.10275634329158086,0.12526420688554515,9.794229084640413,-0.0013692450272959871,-0.0023083624125515936,0.008027582669603883,0.65
-0.3031545508689974,-0.18012210055089375,9.618394098521632,-0.006360037537699668,0.016527660737073693,-0.007933651325663087,0.66
-0.0035515717074789187,-0.008992523020540202,9.74281836146924,0.007035642636286095,-0.007400696896821705,0.014052038831400162,0.67
-0.15979584937675087,-0.033301519040730226,9.740572602281782,-0.02010493829723466,-0.010434512772250134,0.005305292823570912,0.68
-0.0016763629877258293,-0.030566855855941884,10.132813982381066,0.007975287610372967,-0.009630078764860118,0.005586714281216895,0.6900000000000001
-0.1368463881226878,0.014083071617899881,9.9526121017284,-0.00953144966764534,-0.004798221010276501,-0.0014056425531164087,0.7000000000000001
-0.012033143011991253,0.14067013346574206,9.610899665336643,0.007486543728843656,-0.004775365598274647,0.004331428767221113,0.71
0.06955221653754383,-0.08645896545805754,9.903705656569405,-0.004614892182873848,-0.009305497249792391,-0.02719000910508139,0.72
-0.018718182138861655,-0.11005108636828952,9.829976436649517,0.002436507610557227,-0.009457704866003112,-0.005846908675116847,0.73
-0.021009918940566308,0.11003303865331218,9.664981960525061,-0.003370097622033255,-0.014626961533495025,0.0014415020716094249,0.74
-0.06864895220637957,-0.08467046386545563,9.758068598144613,0.0033674110246932148,0.01604697505294647,0.013885245262115549,0.75
0.04878962047148801,-0.1352352206988336,9.621462724451547,-0.006946318830752296,-0.021589249171284196,-0.0005132250907812593,0.76
-0.17880123102657805,0.10471720602122546,9.950408722526054,0.008570683723914632,-0.0026046885144482,-0.007149547155327698,0.77
-0.0694631417431709,0.15110449238503565,9.935975660612277,-0.014460709329551276,-0.006170754870567661,-0.003920298377260379,0.78
-0.0777811623256761,-0.004192112579886762,9.81010872943117,-0.012769550106091251,-0.002197391821561462,-0.003823164212023388,0.79
-0.1689820383466169,0.09257559223442094,9.754488245288865,-0.005399316102936139,0.005345715370789242,-0.0029337513755622814,0.8
0.0841080651895248,-0.22386212105371395,9.890289952361801,-0.0033594160154723995,0.006595638435603611,0.010939399975619657,0.81
0.0022986453311307736,-0.04077667971080723,9.813663226669957,0.012939654564281746,0.0011288566775248064,0.017615142710267016,0.8200000000000001
0.006246788315497505,-0.1097272387321546,9.90279905928887,0.007246369783179429,-0.008706718748189986,-0.008707392283013022,0.8300000000000001
0.026882762466354446,-0.07967868834903356,9.648656672748439,0.0035631367553638927,0.010363826395595561,0.011881488614759442,0.84
-0.046960140462626615,-0.19715090975266286,9.76733589128132,-0.00029912786236787134,-0.004137925921995969,0.0031651117040309425,0.85
0.03912492735423217,0.04786454904103564,9.89859932641286,0.026756520784788622,-8.185912039849651e-05,-0.009564495367675833,0.86
0.15622719622889045,0.025612826756377428,9.705732897399127,0.004107697270833688,-0.0025394012455452752,-0.0009899488620992616,0.87
-0.17096111456888508,0.05791208043803158,9.717823635966834,-0.010154963759601622,0.0021121673292711558,-0.015828775868636947,0.88
-0.1652099030114702,0.050069760039332084,9.977136538783785,0.005727452269928838,-0.010201360007375385,-0.0032502175340750413,0.89
-0.05607118136711288,-0.0960001447848955,9.577926931394838,0.004134939736595129,-0.0048044603806611935,-0.007711847734687869,0.9
-0.006892858808807386,-0.0005757007972044786,9.900759245979271,-0.00016372920978924605,0.004334641567708982,-0.01499526236967375,0.91
-0.002846755652824936,-0.02128258011371159,9.857645175446693,0.00998102547329075,0.009996051293370342,-0.007295962529043417,0.92
-0.20305246937589805,-0.0164314941698953,9.806682265147185,0.0018855050643735473,-0.0002509384751793951,-0.01899396167696139,0.93
0.1482789213667114,-0.0726847461041696,9.77088811298404,4.82968566301026e-05,0.013819413361730782,-0.015834772772723337,0.9400000000000001
0.028701103142619724,0.07101822739384601,9.989878087076608,0.00483348276156663,-0.0005234029166576906,-0.007522422140683349,0.9500000000000001
-0.12326027109555848,-0.0236946961527891,9.868305535240253,-0.01786874288204491,-0.0014636597359236384,0.003926615605228303,0.96
-0.036047244662142326,-0.19627380699439334,9.822516749177947,-0.004665556235457486,-0.0011553763852911443,-0.0006588890748187346,0.97
-0.09902480226636295,-0.03297573489942645,10.01837925090016,0.014948580345203926,0.00877636027981837,-0.008800342214576944,0.98
-0.0045592118467271,0.03848719428646717,9.764946673587668,0.002714031836096107,-0.025405757460832554,-0.006718462275830045,0.99
-0.03992160656769986,-0.009281994155657265,9.862928222301731,-0.0011157292824405826,-0.027095885930559335,0.0013565695270712876,1.0
-0.10285051970298685,-0.11416062229137668,9.81461707066468,-0.011507955604028397,-0.0153650920646601,-0.008952399636015433,1.01
0.2519414716399885,-0.09078722831049696,9.612881733221581,-0.0009066045287744852,-0.0065576487491468835,-0.005048533034851449,1.02
0.041464243507684344,-0.09643177307785672,9.794332099725,-0.0013635125806705087,-0.0017358717126753356,-0.009645738426950089,1.03
0.00928560093820133,0.11909446528826367,9.85278216919604,0.005911364154884528,0.0001649146839300811,-0.009752368984259964,1.04
0.03546107567624196,-0.08113754671365409,9.702166472267646,-0.00786730492445377,0.007677578977011482,-0.010253675997073134,1.05
-0.03583886312858422,-0.05542441228661554,9.918064550746896,0.010944236310449152,-0.012733734764918389,-0.01805626644249269,1.06
0.04426810393919762,0.14692431315292429,9.911495043929687,0.01103615746340328,0.00200115566689039,-0.024598592875856848,1.07
0.07435809092131863,0.07730853415665345,9.650620557935298,-0.013064702558680648,0.016495019888321104,0.017484807025062044,1.08
-0.14502783864701657,-0.06748715265103793,9.889783476934364,-0.00576709535344327,-0.014268984644995285,0.0067152559543310775,1.09
-0.007300989645114337,0.10946633781347169,9.782374495590291,0.009577021891803036,-0.0025116381989393746,0.01775716778943667,1.1
-0.039569544079505165,0.18033551914312584,9.749974961139742,-0.00033897785229496937,-0.004697391096956065,0.011664181741885484,1.11
-0.1282248351960664,0.07202204720923576,10.041237781905496,-0.012225519909236204,-0.005646853274902288,-0.006801669868683703,1.12
0.15383768496075834,-0.1072960386599456,9.856322847182536,-0.022551236382972975,0.016728992773999373,0.0012943803826290668,1.1300000000000001
0.18696355614222204,0.0624692349341964,9.847069581176925,0.003144337541385829,0.0006194088845806043,-5.107813070383803e-06,1.1400000000000001
0.13401673070466943,-0.06952746431006712,9.87998658707498,0.009482998953064977,0.011968503623121015,0.01000579813853054,1.1500000000000001
0.024488827432048887,-0.08735072404041162,9.728815195987005,-0.008835757821217429,-0.01381026215223793,-0.00802614781629966,1.16
0.0270958383773399,-0.16800892870096762,9.747596349475291,-0.0009460735403249127,0.005701742472423503,0.0159317759914481,1.17
0.07401810994373913,-0.017843232309645015,9.798998209929994,0.010535625379335755,-0.00668649630442647,0.009757847332445628,1.18
-0.01652451698091873,0.046050556034769305,9.672654007117075,0.008536550084274704,0.004044332339007902,0.004153992148959277,1.19
-0.0992047314039213,0.09697714894313614,9.801507806089678,0.01932540923813204,0.0018654132602108334,0.011017482947832873,1.2
-0.023410815929718033,0.1810203970938048,9.905231018184168,-0.0012679454733316065,-0.0101335285174205,-0.014114849873453114,1.21
0.12849108223567304,0.07132681980341991,9.78786614611811,-0.012758386417554609,-0.00515330723039098,-0.008072310435196062,1.22
0.12091493666260177,-0.016394266626145855,9.77010312766484,0.01716233791235222,-0.001067369944541995,-0.021219322203803827,1.23
-0.02581563064604733,0.07992537366526892,9.755250990720787,-0.006936077940839098,0.023471346258004108,0.010768583553113565,1.24
-0.11965267620456105,0.035023709182971534,9.826731261337187,-0.004803407518408155,-0.009781123073685902,0.007282069669272623,1.25
-0.04409603690865578,0.07502162373610635,9.772173690100738,-0.0025914905127753397,0.004490607871101624,0.0017310656087401281,1.26
-0.03608631717820739,-0.054219468004485495,10.053689908389993,0.0025004388141712007,-0.0040123494088917236,0.0059233512529192935,1.27
0.017543059538994592,0.05133966998472444,9.789060638252137,0.0069924178713909055,-0.003587801328791511,0.004906077912007539,1.28
-0.19581135343768374,0.09401268933250989,9.63329842333271,0.0012245108048631926,0.007218906895378642,0.008200681492759737,1.29
-0.11573541159604293,-0.0630882919987585,9.88600332129331,-0.0036779650218375483,-0.004056169784799413,-0.0006973250292029159,1.3
-0.11697639625860562,-0.040843076019726025,9.799734423001166,-0.011771325210394977,0.008782325389668506,-0.005816771250371594,1.31
-0.12186121694783297,0.14272567827093038,9.691263454078564,-0.01137269790880634,-0.00694918289923129,0.0021063423848967262,1.32
-0.020346632799559575,0.030931890612498666,9.915409324404564,0.01468205523068074,-0.014160321267045157,-0.0044054976048977425,1.33
0.07984475105230798,-0.049064464540457736,9.796903814493977,-0.003396020456041582,-0.01328147453774263,-0.011632273321802835,1.34
-0.08956743835218342,-0.08092209829989752,9.848479247886456,-0.007598789293279943,0.0026608175420191945,0.017256462668832122,1.35
-0.06718588924359901,-0.006078781881819581,9.876956106759522,0.004132521033235308,-0.0076494874022740795,-0.010217508623125426,1.36
0.01849061983113413,-0.051164847254965944,10.010726792384999,-0.02274693185797399,0.010035339160152722,-0.004095766780678375,1.37
0.010238213369336467,-0.07836290129304124,9.92203161880203,-0.008390351108529613,0.0006999655712677641,0.01749495261380368,1.3800000000000001
0.015770835328762972,0.08623568216663657,9.629043625184593,0.009004486021041005,0.007409525288169381,-0.0038262097468993385,1.3900000000000001
0.10555732617384361,0.024191898208682137,9.744025440068825,0.0016924262222618852,-0.0032544548680917694,0.00044686658692006623,1.4000000000000001
-0.08807166517086977,-0.13223410503050914,9.826503918343455,-0.0006154923674611572,0.014923834035494386,-0.00030725068089776364,1.41
-0.027614998206027797,-0.015523600527411875,9.759796398575212,-0.010069261287405637,0.012994634020558875,0.0175669325332561,1.42
-0.1570674467526512,-0.019882789274277272,9.792049910325083,-0.004436877157324308,0.026944728838951,-0.013455558272612944,1.43
0.0636842522658982,0.009979829599175977,9.806489682367877,0.011820208145674851,-0.0014348427697162599,-0.0007527368872817989,1.44
0.09558096975439173,-0.004903893163395481,9.955485276357145,0.008244438026055264,-0.006501294964608966,-0.0031269350427578935,1.45
-0.08266782458731571,0.013067775595444807,9.7615646543689,-0.00826051267639878,-6.691997999637218e-05,0.003251167150513791,1.46
0.10821190162003916,-0.07558292114318545,9.796724913517627,-0.0038930880463087913,-0.0018055542527490042,-0.0018717004810766549,1.47
0.05402417369142677,-0.038463248424658494,9.812022160123549,-0.0021443873130023885,-0.0025327813423234864,0.018581756368557984,1.48
0.04562894198668114,0.00016256967402015669,9.90010774221479,-0.0014551562572251962,0.0007708853884331707,0.012026677641459494,1.49
-0.018637011520146855,-0.09257749971916329,9.809668297956799,-0.0102380867767703,0.01615530608800833,0.0039674239487181035,1.5
-0.1289522519579063,0.19250330484635958,9.74484049215053,-0.01413584995816505,0.006375546348540123,0.00022693097718248296,1.51
0.08387226993753746,0.19477162722529218,9.889136433188387,0.0010352962302292896,0.001872927630883309,0.004473190980197445,1.52
-0.15443994893675692,-0.04844793110244538,9.880768468230999,-0.008515535779122157,0.010720735473744204,0.015602911917188394,1.53
0.06910090929530786,0.0037425204265008755,9.619358310280502,0.013090092732262122,-0.006999725947872151,-0.003355431182283813,1.54
0.028568271873042724,0.01549075828895665,9.806346323421895,-0.006097643004060322,-0.004997598296369725,-0.006323470884396156,1.55
-0.14270061611190965,-0.10350640072145273,9.81397245340022,-0.00019730663087248827,0.0014640958806721633,0.008652455594911587,1.56
0.06826693738338872,-0.06789006169498239,9.943241447235819,-0.016904513919485158,-0.0006393284649454885,-0.008711706492276676,1.57
0.07471895968174681,-0.0999564131326003,9.920307205411229,0.0177832030516348,0.0062910893965276065,-0.005577837908691268,1.58
-0.11529651577108445,-0.008720143031847963,9.70694424523783,-0.009963781819797327,-0.008554815583446137,-0.0007723980024000158,1.59
0.058946428348982643,-0.016727450219781254,9.863278160514993,0.005839756113244995,-0.0020004227992427414,0.0009396776325258401,1.6
-0.09550205337356737,-0.0071810977215942045,9.739468909378767,0.0166876670892952,-0.02112621711583732,-0.0005700630931510308,1.61
-0.034285930119913315,0.060907097925125046,9.836873724782627,-0.0014143607076963604,-0.005318305944458795,0.003191795097742717,1.62
0.15505962404399548,-0.03858692990564049,9.950720938001593,-0.009640512385388926,-0.014417014093158221,-0.000882757918455647,1.6300000000000001
-0.034991444849779056,-0.1192881546998531,9.730776247248762,-0.013396576647779816,0.0024457966783032145,0.007409200574887962,1.6400000000000001
-0.02309201776382224,0.08013977001826944,9.936918668634075,0.0033250453419081845,-0.006616169398526582,0.0034804432581999473,1.6500000000000001
-0.03969956471162382,0.056761186397418596,9.710657982621905,0.00558580193767787,0.008478598341650155,-0.012374814177707805,1.6600000000000001
-0.15336020288502739,0.046604111552338144,9.903152848523348,0.016054661838387375,-0.007687252922926974,-0.0072298903467480115,1.67
-0.06444542106467563,0.19368594361788682,9.784887653313596,0.006352572250539848,0.0009882606499099634,-0.009399015547090283,1.68
0.23496803867199811,0.1794881690416495,9.852456159472382,0.010430711822235483,0.010716845197739118,0.0074225962365235465,1.69
0.05417922011460537,0.1866271298270206,9.763091799476411,0.002066761459027068,0.0037167828716678053,0.006109915653763765,1.7
0.08233607181856736,-0.15624096073016777,9.787546192869394,0.023692570954087198,0.009616997437893696,0.005376113290405913,1.71
0.06356601819249887,-0.06577850909039919,9.681399261151505,-0.00451860058412075,0.009639019511895242,0.0007784205117126195,1.72
-0.09709650171385287,-0.03476593633722382,9.759855067887127,-0.017319256156230266,-0.005708749203081232,-0.011366580323260557,1.73
0.056799962997400734,0.018194445856259147,9.903486622617283,0.0008575557134649072,-0.012892924551561585,0.011686010576491688,1.74
0.03272281925968378,-0.031577474479708274,9.722489161259851,0.009101785793963568,0.0011171799054100755,0.0009618530086482819,1.75
0.024791381971454068,0.08627767008976597,9.950791272054566,0.010505605698854073,0.006677420766941433,0.01778991920368249,1.76
0.1503749119692935,0.1096453028393235,9.732175787116379,0.0016870216453108908,0.008377449328542464,0.010016923417610098,1.77
0.06090203550139659,0.0035885320471763108,9.935212592309528,0.008072340206829566,-0.004990478335285899,-0.0029231077328194274,1.78
-0.02501281206299043,0.11490386162965867,10.091730867700798,-0.004403761837889099,0.0015946004325771538,0.020052344870171122,1.79
0.0612944056332194,0.1940459406196445,9.708737183178958,0.012784005949967307,-0.0005285911887824363,0.006581773469186348,1.8
-0.1224000924173077,-0.11484671042181196,9.75444331592986,0.005284567794900754,0.00897182241299369,-0.005278178576794082,1.81
0.09310053948699697,0.07445988618917271,9.822739407479622,-0.012696253157402013,0.006027996361764423,0.006782117898552141,1.82
0.25047177779805163,-0.009109954624397778,9.943635332390002,0.017745941748300284,-0.009150496829502246,0.0010260379047999908,1.83
0.05591553344410738,0.02446723450468037,9.661927773996428,-0.005688376803922377,0.009663350992649585,0.008016582688398298,1.84
-0.12681963669027138,-0.1670332616096365,9.801846311811797,-0.014048980692225153,0.013826028546314631,0.0006933193447907188,1.85
-0.06790923547304738,0.005928442387329646,9.84183699986277,-0.0007330363070253161,0.010294741747908412,0.018236791029458257,1.86
-0.27532554702889833,0.04633739608998452,9.807054281732066,0.01640425340903403,0.023552255600961313,-0.0003276409999323514,1.87
0.10700372277820017,-0.04456339100841346,9.824101979744489,-0.0006259148564176761,-0.002491638080181821,-0.0005337735760303438,1.8800000000000001
0.08891708640647288,-0.07909974526073028,9.96097141029205,-0.014168165386173165,0.007383743457601677,-0.006391013751572316,1.8900000000000001
0.05006967253337078,0.02496197031883515,9.799464803986762,-0.01002568978406427,0.010756405830287103,0.0031683245015042567,1.9000000000000001
-0.0712200740331465,-0.02550208627956372,9.792481623540272,-0.002062020880855379,0.014366173193580805,-0.014906900996308687,1.9100000000000001
0.09136440878532026,-0.12639047985007018,9.737076029826847,0.004541108413619629,-0.005935883880384686,-0.002218191873880449,1.92
0.12284203107291602,-0.03424336835656432,9.882516325255553,0.01766432552718239,-0.019121422547159247,0.007317695608871236,1.93
-0.08825421405482026,0.013588566171741505,9.815460515175813,-0.0024545581638011015,0.01453345693901687,0.014202196711127003,1.94
0.06556326497912514,0.0008547371788772385,9.76891854021129,0.008319412919992284,0.008644889949934086,0.011141586418602935,1.95
0.038847802522730346,0.04410985918515919,9.680119414245,0.004403503878766621,0.003211746650036992,-0.00258671461685918,1.96
-0.06642172655128663,0.03728802674910417,9.813960412443118,0.014894905948579791,-0.001014230670886933,-0.002675637650584793,1.97
0.05773976404128596,-0.0031141400702797304,9.579180470894759,-0.015331743461230691,0.0036217260097396314,-0.009337550877890738,1.98
-0.05834918052393121,-0.0036341439971894515,9.790709358317224,0.010979160810494494,0.002822368966351917,-0.002772716336411443,1.99
0.07909250977815,-0.07512033837072757,9.77317332205573,-0.0019051418750675071,0.0034815304917362863,0.004482300545898035,2.0
0.16744828144258384,-0.06390295976981616,9.730296312130733,-0.015050484044552203,0.027709764444431684,0.013849126772629144,2.0100000000000002
-0.10154768976125957,0.09289667334062951,9.994547852619846,-0.02033214070009902,-0.004632440608954166,0.002248534846901687,2.02
0.09885035697612403,-0.10069917775902544,9.962981587809782,0.0010701695799307904,-0.00572242073583108,0.01473864955507539,2.0300000000000002
0.05804512189150989,-0.15943961184414734,9.72038995408909,-0.008209952717066408,-0.011239497995074175,0.0022701350266471623,2.04
-0.05469137858230303,-0.19077968988319735,9.843978367521927,0.01971599141023084,-0.006031984754669419,0.020664303031003108,2.05
-0.1450137581880783,-0.17552281662099867,9.797743621462672,-0.009791427136383509,-0.0004763908152427618,0.004711867169956477,2.06
-0.07902399702355241,0.1049248183932148,9.803662609593921,-0.023733787235340316,-0.01189971164280816,-0.0016201758894289317,2.07
-0.10283486664659325,0.07333711847884464,9.774276833197154,-0.00020408432009710374,0.009882170526167524,0.0027599647903920944,2.08
-0.0016829076773250266,-0.0283296226185388,9.85501670014222,-0.007320222894763443,0.005385886965155874,0.007858445058537276,2.09
-0.056903511432423226,0.14443385653078397,9.627128452589277,-0.020091115257458166,0.006924287506022146,-0.013310211468626883,2.1
0.1271614771803906,0.030528659130539895,9.640039297360733,-0.00934786996774261,0.0064451612585140206,0.013483651637510587,2.11
0.03827916887644595,0.12922095323834643,9.870192272185465,0.009965515636828449,-0.0023109834878600665,0.0002500317859026854,2.12
0.05217177196896172,0.06056230196000392,9.795120627335164,-0.009711743126053265,-0.008025011648144962,-0.011879215562378274,2.13
0.07370164036038056,-0.026272813689473262,9.86423762699894,0.01468177978601039,0.0040898716589051086,0.0013745098821895184,2.14
-0.0018486306702155128,-0.07066743560326025,9.82068940198385,-0.001361688948316346,-0.0029329442080210707,0.0061767591883354935,2.15
-0.06249246152091945,0.16232805670279424,9.870878705261438,-0.003662538167173778,0.02976669615306222,0.004557437489815136,2.16
0.06134073956107055,0.053662868833702894,9.740943686380009,-0.006729797823588587,-0.0011470691827226067,0.010865878328040096,2.17
-0.14658898952603458,-0.07806161382850753,9.837349578335077,0.0016339688304052521,0.0032181827904411366,-0.0006003108129260872,2.18
0.07442105931710485,-0.1618619531726932,9.790807264523172,-0.016304060146778966,0.017241913123219214,-0.006955157621111474,2.19
-0.05265350673246927,0.11481458045254414,9.809578154192899,-0.002433716516961713,0.005192533302430281,-0.011857425477063109,2.2
-0.14388883061901955,-0.027058124268652634,9.805459006617113,0.012502788237550919,0.0038259119116041368,0.009857854718248573,2.21
0.043070179088307944,0.04223356301498371,9.834808328271764,0.016618644658235326,0.009270521440265623,-0.003779733380855919,2.22
0.043069271669582514,-0.08324206232326488,9.810736140102836,0.010305879257990029,-0.0018691061097677207,0.009744052835571037,2.23
-0.019463603093390368,0.23551125215509,9.821063521513938,-0.006719092020777806,-0.007922078922703676,-0.00043769886612484517,2.24
0.0017934290553425572,0.08529022132553206,9.65079322991268,0.009141524112143832,-0.010903436684266394,-0.004748371546009305,2.25
-0.016264998853851843,0.1626232387967755,9.739541947256226,-0.002110999952374337,-0.019687621955438814,-0.008623330862325756,2.2600000000000002
-0.011056221875948541,0.05577322381388649,9.807427979678108,0.002992396050408305,-0.010669975560310178,-0.015480751924892495,2.27
0.06356640546299677,-0.18075384640713985,9.805367388676066,0.028557013284198435,-0.00393571120335917,-0.011897221749201436,2.2800000000000002
0.09212290764082431,-0.04663162333979053,9.767362250348413,-0.002122367132389647,-0.020871246784660357,-0.009548228959681224,2.29
0.03989662400973146,-0.23918092532967142,9.954582601060247,0.005734257550876368,0.0011912218220055532,0.021983534232120995,2.3000000000000003
0.09264154265377558,0.012815887538329086,9.640551350611556,0.006206840564772398,-0.01688404355964473,0.0028718841824711917,2.31
-0.20344994873646308,-0.08829355666736657,9.931207071365714,-0.004906383490171635,-0.001284118562496427,-0.020486388998640616,2.32
0.11983438710434582,0.024877151247947454,9.672340349883038,0.0181544228635129,0.0024657038092341117,0.006891737232228579,2.33
-0.01598899659154169,0.06530830894760653,9.817854400762382,-0.0011718871404103783,-0.009018138894503083,0.012256351405677117,2.34
0.012523068512505928,0.09685549051418546,9.790472831459367,-0.0016285219850972774,-0.008592868949333489,-0.00926942210372051,2.35
-0.021484050323907267,-0.02878943998815794,9.677716034068801,-0.0026078435001289195,-0.011033021138635999,-0.004218441626974985,2.36
-0.06405662424187526,-0.25284033365541314,9.678927002014769,-0.009924498795507098,0.0013355942669035236,0.007116236619431055,2.37
-0.0772301906794772,-0.007243869631411328,9.786531670656105,-0.005876476736245549,0.0030840899822316315,0.017262820297948473,2.38
0.2181628643563197,-0.13696598999903012,9.817325017616396,0.004767071915259199,-0.004284242130762685,0.008652610446810833,2.39
0.009174999976449062,0.05946497292436531,9.997117478856147,0.008410939965149005,-0.004388287199749903,-0.010130826348159738,2.4
-0.15236073237932155,0.12435857353684741,9.801727877755265,-0.004658696186060019,-0.016644022766962734,-0.011170381146079749,2.41
0.214775116269593,0.17607774645825428,9.88628781164141,-0.0006370329830861443,-0.005361822076806918,-0.008099426492885888,2.42
-0.012890482438233179,0.03462364907011943,9.746849563822412,-0.000676683777206693,0.002187803225185194,-0.012679512482940681,2.43
-0.07620380337446732,-0.10100279653168819,9.853544659712055,-0.007870391609569469,-0.011854596309776573,0.0007258012270289815,2.44
-0.07662500429982157,-0.14356175914770838,9.76293755961687,-0.007564982254955514,0.009712397802509576,-0.002879543768010156,2.45
-0.15936728648084314,0.30963756692604005,9.673621051830837,0.00033075232321148895,-0.011438415635495486,-0.0013351275349340035,2.46
-0.017472595469638474,-0.02097790810863047,9.708051732077347,0.006380672234504439,0.009206101278315115,0.002572902317260048,2.47
0.030145015357176147,-0.06495983913900963,9.813490026791525,0.004357523196855426,0.0029153054268374395,-0.008348075693130978,2.48
-0.03299445609971965,-0.06343668419236445,9.706230556350693,-0.0003118023634934353,-0.0012716472110573267,-0.002048057057986592,2.49
0.036307231509872556,-0.1590628297508192,9.888428030180302,0.004226956860664013,0.0018464144261193418,0.0023093328572543225,2.5
0.0954714101792328,0.15536397983127911,9.963054624408995,-0.00823795628940188,0.010486460935175333,-0.020451764735714112,2.5100000000000002
0.037192682885283004,-0.06787665435181622,9.547541001888627,0.00917623271982665,-0.005560556394355829,-0.004440616753796241,2.52
0.027995003490140804,-0.19959866011033767,9.862435623119367,0.0010605742110363415,-0.0033519368284100175,-0.0014507037998771888,2.5300000000000002
-0.1499851432650348,0.0014381212950396376,9.659172100611253,0.006088283256635746,-0.00192273426606121,-0.006910489977197155,2.54
0.1480736272077058,-0.14472494018484205,9.710796075183168,0.002816829965901041,-0.002803767425173026,0.00153957724599344,2.5500000000000003
0.047905957425435616,0.10510412703085759,9.995937326245858,-0.007766473248562155,0.0003652842705432542,-0.0032608314232068737,2.56
-0.10475615916009709,0.020860546327145853,9.68784713247913,-0.0008369275990631866,0.006587175874272237,0.002188043906556811,2.57
-0.23293666024690626,-0.08136325332983158,9.709387801818012,-0.014128741360936725,0.00877660434370608,-0.005712355474669554,2.58
0.04265291811572913,-0.044046849235939274,9.95406016636148,0.010130597755284677,-0.010993519404548076,-0.016062536146871677,2.59
-0.1876703745724002,0.11179657957319111,9.929609863534742,-0.010974847053453519,-0.0010997320888221558,-0.010767507367501436,2.6
-0.09785188922343128,0.05545140165385601,9.840003434246482,0.010637905834454713,-0.008368838573695565,-0.013493852502816062,2.61
0.13332651775097795,-0.011676972040392936,9.748503743612202,-0.002880806592175703,-0.0016183279307908133,0.005930446733858453,2.62
0.05872341857549778,-0.048506595839083344,9.805049606703962,0.0071958024324216665,-0.013302692132594916,-0.030088258723248825,2.63
0.1991730993680986,-0.042620657343085344,9.758690624492738,-0.006617873110979524,0.011853750650403557,0.006221459103974883,2.64
0.10975332020579148,0.06896588758051664,9.861475958146178,-0.010239646387454438,-0.026483277711732436,0.0004670815571108119,2.65
-0.08536500235539113,0.12277383901561725,9.80448667017629,-0.009486499197240443,-0.020850492214565416,0.016935495088519475,2.66
0.06393214733675895,-0.057932132601085456,9.83190660418432,0.008130187475295684,-0.0011031562995945483,0.015963147127525976,2.67
-0.0815454201039626,0.10595498118043885,9.828201328874515,-0.0019986112843148303,0.00820864698059456,0.007691875804819613,2.68
0.050560806293173124,0.19295331867625826,9.764796272303338,-0.002837878783363359,0.030257410894999646,-0.01294485999912397,2.69
-0.12895761685299215,0.04569434231687841,9.856530536315896,-0.009519828911658012,0.0014572055627167122,0.005439511417140236,2.7
-0.15353085665510618,-0.009416362070663256,9.824421434519172,0.0010792496675270035,0.002453261446232664,0.00135311190422279,2.71
-0.152309001235867,0.09105181934855289,10.041350505289829,-0.01172764333591951,-0.022529960139778153,0.014269940219098973,2.72
0.06920115205812058,-0.06677119963600227,9.771905499103532,0.0005127438130891084,-0.019723717627004804,-0.002086839798616283,2.73
-0.10636488984664144,-0.1013396837144581,9.865150948363077,0.003783785169947407,0.0016893165429859702,0.0022199022986775295,2.74
0.02112903525604286,-0.05912144555548182,9.944983562260104,-0.00566875709919525,-0.0019135346302717369,0.009779828598102969,2.75
0.04631995984309768,-0.057621279086416656,9.74339877719837,-0.002051431781973646,0.011856671974190672,0.005739408998499931,2.7600000000000002
-0.05314472453554073,-0.03773811493785159,9.864802392441836,0.004026737159827411,-0.00253193845314779,-0.011794321561378827,2.77
-0.026653672890248916,0.15454463086986803,9.87342111394725,0.014541693129379082,0.009009210439929858,-0.0004165297159373655,2.7800000000000002
0.016303465807652535,0.19006496645958695,9.834245789476235,-0.011238723755744886,-0.008613745824962934,-0.01123872197546929,2.79
0.010981232399973865,0.04061086798307145,9.876002497560503,-0.007910471246830114,-0.004854033345589717,0.004818578051817495,2.8000000000000003
0.14857761943720282,-0.011185143931982972,9.595241319386652,-0.010248663518178025,0.0033497721781711835,0.0008915654121975558,2.81
-0.08115945601929353,-0.12787625934480698,9.825100462314493,-0.005085748784053469,-0.00535009722301031,0.00697566011501672,2.82
-0.1074117580933923,-0.0567436526876555,9.710742522382569,-0.0058068293086028355,0.01141817251887701,0.0010208803976790698,2.83
-0.056135031586727946,0.06699667015145819,9.685291643858813,-0.01907769655232952,0.006145822225866337,-0.0036670040307507598,2.84
0.0003768894161919249,0.18343625304490163,9.84318832805512,0.004656171071621879,0.0013368635606572645,-0.004278942956699798,2.85
-0.0454837582869973,-0.05078497363663037,9.763435339979562,0.0012682051270762097,-0.01901531313673756,-0.0005222438474632448,2.86
0.1479747563545965,-0.008191045668558128,9.898360491982901,-0.017151849390991104,-0.00037190442228007776,0.008238745596861897,2.87
-0.07100969826682484,0.027774279458915186,9.795960350966936,-0.021129688338701207,0.0012492151137151258,-0.0047414419638312725,2.88
0.03677662476345817,-0.09577927492668543,9.62215512988469,-0.003462622069819631,-0.0006756584461123348,-0.02596581678452873,2.89
0.14222721233085842,0.031795131813862544,9.850746552331213,0.016619592492333222,-0.016868092120470215,0.010370117930749405,2.9
0.07667007756664825,0.09744747361754962,9.652292115247265,-0.00998342247595925,-0.013810974148394134,0.005019971341960672,2.91
-0.05501739119144297,0.030657620118831986,9.877653575383054,-0.015280653822268484,0.0005489456845742744,0.00846609865198694,2.92
0.1659850354626407,-0.12542846136625377,9.965503679418337,0.003589877429910367,-0.0018138448434065044,0.01226887637560199,2.93
0.09669915767058206,-0.04397443933958584,9.797798458417699,-3.107566375287856e-05,0.0008117227481624124,0.010168666558173401,2.94
-0.01013500497974273,-0.04160441040365767,9.657363824724312,0.011031218173950004,0.0016547202932402486,-0.005083516624203105,2.95
0.03566909452491534,-0.07099906556933198,9.726949207640182,-0.0036577888551223648,-0.01673738724555365,0.0093496713364536,2.96
-0.027014048311997114,-0.07634178266764045,9.8594619513861,-0.02094327784568686,0.02080010573160215,-1.4522493123183972e-05,2.97
-0.029717645866744153,0.07520399634873601,9.750251211990943,0.0014009488492032682,0.01123288814004219,-0.006897190669043421,2.98
0.11106056508951088,-0.08550779146177628,9.79794422614869,0.0012660124523949342,-0.006074327810818504,-0.004098365657757506,2.99
-0.0404839920495664,-0.052452866571929324,9.76866240317815,-0.011724164381136484,0.011940618538131274,-0.00953636092885888,3.0
0.04404676624471628,-0.014640944505484518,9.819748147336673,0.002996563539364425,0.0014667203129976713,-0.006987161241526261,3.0100000000000002
0.05401885595951564,0.01371578765076726,9.964367307531417,-0.019288123555640017,0.010148357460629639,0.004418428318076661,3.02
-0.019103669964402617,-0.03330669781574598,9.875015774373791,-0.005208319158802972,-0.014838299254473903,-0.0006040087492714285,3.0300000000000002
0.014960771566744639,-0.11697426141138426,9.775110039009759,0.001409621636020976,-0.010130492086614776,0.011910967296767425,3.04
-0.08040267588068778,0.06500839297479477,9.861559111911383,0.003009044927469441,0.00122742557213509,0.005311080095802271,3.0500000000000003
0.07313518816618528,-0.10062272302804809,9.79458966284978,0.010914994442293054,-0.005666667577360129,-0.015289402419895888,3.06
0.10015627287001688,-0.12388596314783376,9.934546407024522,-0.002742296924487816,-0.018624264138911998,-0.0024428348934852485,3.0700000000000003
0.018441659636082113,0.011814438736803446,9.76756856464421,-0.003547378030489634,-0.008570840787955683,-0.01399418258294332,3.08
-0.02481390662574763,-0.007410445199774469,9.82307361134191,0.007524420444079367,0.004237494980712895,-0.005660542468574942,3.09
0.14836953553442117,-0.008684432676070223,9.853797784965664,0.0016551390805452399,0.004945228273324731,-0.00913630886902422,3.1
0.14246681445039422,0.006242261306140131,9.706142491849103,0.0014552148633551205,0.00012512638048473943,-0.007878668980972127,3.11
0.12005287882657999,-0.1034263419826798,9.732094220232758,0.01660523555402788,0.007446975608253718,0.01683524581109874,3.12
0.0161062367511713,-0.010219020456348213,9.955061106862583,-0.007953124446646259,-0.0078749859585,0.004291544523038938,3.13
-0.030428104838987044,0.06347565249907848,9.78025519951037,-0.011315649049580035,-0.0005874694822458085,-0.018585530708772103,3.14
0.12927228108342645,-0.163359617032613,9.76276210968025,0.005078071882716437,0.00036462223798469954,0.008853050531007276,3.15
-0.05005195048399509,-0.011968895692680044,9.695438143946651,-0.008085774496879836,-0.005271767847442318,-0.015154438985515113,3.16
-0.08118370443626205,-0.07555062026900351,9.7304995983762,0.0047015942712086605,-0.0025573738040866874,-0.006734606685590248,3.17
-0.11326880171917855,0.06152605605812912,9.634374416506306,-0.013871153542638709,0.005778073238977054,-0.01013149484008023,3.18
0.07371591766907169,0.11215994274154668,9.829541875819963,-0.004000059462302966,-0.007592371544642086,-0.005062248156817232,3.19
-0.0962556069246847,0.13807284071838952,9.858981390956872,0.000991289502320409,-0.002835842287782658,0.005194494777679953,3.2
-0.045466437028393356,0.19208269475936543,9.85357404826314,-0.01017473648695217,0.007417779230196964,0.008715642213079454,3.21
0.05095958744990467,0.09182499101853477,9.684088985198697,-0.0003080425471069866,0.0040453108800071694,0.003924020493545796,3.22
0.12960631212304294,-0.0669880664925657,9.88359349255789,-0.011419693844772842,0.016660688078273363,0.02238668951286899,3.23
0.1037863059371545,-0.01080442030943387,9.782671115374278,-0.0012743469470720453,-0.006087704456624503,-0.011600176954206192,3.24
0.0742947594149264,-0.04725125334455098,9.86148466048323,-0.00424870628928151,0.001875061042435424,-0.00540565276983211,3.25
-0.02335248935485196,-0.06428497058684327,9.607957741742624,0.001546804504411311,0.01381487402595411,0.0028415320312756044,3.2600000000000002
-0.21125176813014912,-0.1505652800718061,9.897819973604916,0.011796956338467642,-0.007040587646985945,-0.007299683466137668,3.27
0.10372143317334126,-0.00846681949875448,9.86043619662338,0.00021475439801574785,-0.008817018251266677,0.0045740200896816205,3.2800000000000002
-0.10093912857567655,0.029337340293299576,9.932833178240818,-0.0024020779964031946,0.013344056454627563,-0.01375892578441632,3.29
-0.04648475223281112,-0.07656140326318811,9.734174022301035,-0.009199641825091783,-0.008693368930900336,-0.00656963941265493,3.3000000000000003
-0.12792394509037727,-0.09224512412809409,9.695978256118886,-0.013966780002535033,0.019494162285478737,-0.01541967691717361,3.31
-0.06205032842776792,-0.3274091807581388,9.791044836175656,0.00952224493206568,0.011917423788431762,-0.0011341242772262732,3.3200000000000003
-0.06913663230460475,-0.07800288718020199,9.816091865034595,-0.014779109682560621,-0.00030139554854348053,-0.012195444002792948,3.33
-0.09277081293910107,0.07462632942412788,9.809906792922845,0.0110700298397422,0.006268001214704963,0.009629882956589437,3.34
0.026890764434477618,0.022438857526496672,9.876801912878154,-0.00012628805530835206,-0.016689854652369464,-0.022481458531717773,3.35
0.10884803346093604,-0.17941595481710737,9.667247987418861,-0.0010421993677257502,-0.006255595626592002,0.0032470195181163435,3.36
-0.02652371424641005,0.09740387255844943,9.622220427965507,-0.006265564585855289,0.02629270268726667,0.0147301362970129,3.37
0.0880760874766902,-0.22999217501934113,9.830977464047761,0.004635531027907338,-0.007079275863052725,-0.015363410791702047,3.38
0.05163720298682903,0.0060430026583666915,9.809930399297848,-0.008074723556143821,-0.0032761475975976746,0.005721355048355387,3.39
-0.11775989675775447,0.19819832261758324,9.654719871270173,-0.01997560963808938,0.0013321436316384298,0.01576023243535704,3.4
0.18748823488252814,-0.032115372723290535,9.793183057571117,-0.000612747515733261,-0.00914442241283167,-0.017729921704709408,3.41
0.2644032528255302,-0.020620736513522104,9.80912610638014,-0.003522233044203153,0.004403494352248097,-0.002419630041507008,3.42
0.036681771343021904,0.04153269544708908,9.862298463351912,0.004467795544836622,0.006094382766034661,-0.011308423080150929,3.43
0.1552822899164097,-0.05623910250491261,9.840212357614874,-0.0032356045111857647,-3.961241356085696e-06,0.00018267630967704293,3.44
-0.02873274399238658,0.06808226912247138,9.702543544399518,-0.0019118869622389554,0.0191787869737167,-3.133840344844679e-05,3.45
0.006930443115174219,0.00947133766202318,9.825099095955753,0.012009582160566594,-0.010241487739439153,0.003906982725922203,3.46
0.03701616907997971,0.1335761096261526,9.68733064381582,0.0031866859114235285,0.009600644201109468,-0.007302605593553253,3.47
-0.03346948386437168,-0.1247941951972865,9.895851963617865,0.004821277221436461,-0.0053954627297801636,-0.011188362675292008,3.48
-0.13046344072814411,-0.05262797067822028,9.877358954742022,-0.009336778529750437,0.0005098983680494754,0.014730598630618461,3.49
0.1290357498274411,-0.016065683926787967,9.724993952262395,-0.02010527408554347,0.004733510022641915,0.0012822587705316048,3.5
0.0691495863331604,0.060544065259539565,9.77895316039335,-0.0016235429416351361,0.0027722477810413794,-0.003151947451370826,3.5100000000000002
0.08521750233121018,-0.12688987738746038,9.856434338105975,-0.0007356256205258034,-0.008156745899562614,-0.006315059892739724,3.52
0.0048470966183058635,-0.0706576859649737,9.92270196268905,-0.021245999012538413,-0.004066499504125697,-0.0015650289792992064,3.5300000000000002
-0.09904559545913348,-0.14479825230277507,9.809935975259501,0.013651722810993921,-0.003134203640086809,-0.007199872316663046,3.54
-0.16870057013298143,-0.1594635988930756,9.899285511525028,0.016247702527288202,0.008008440209510668,-0.01446783842341823,3.5500000000000003
-0.041986497426022444,0.033676745816115065,9.67712907575471,-0.013207453565009426,-0.022254109483564655,-0.01708182046956857,3.56
0.02444825355147615,-0.14152323765554817,9.784609281708356,-0.011782588358740522,0.01166670884680213,-0.007755254819836825,3.5700000000000003
-0.08102255723414223,0.09008071834579784,9.747416766712956,0.009493924495000607,-0.006743112247215381,-0.007504267539925378,3.58
-0.037527900526969415,-0.0418376231158549,9.87514617537218,-0.007334686458043208,0.010162863937112816,-0.0008876844760274372,3.59
-0.04726693311459168,0.05355203862457119,9.84793313354237,-0.011057918160987569,0.003536954562424421,0.0023199887078777133,3.6
-0.013794922158908339,-0.11160739429270534,9.727442459263694,-0.018581477685544665,-0.00022340483654693572,0.01307824258473409,3.61
0.050458704777493694,0.12033567047065717,9.878039785051904,-0.01022007859372961,0.004636349789558445,0.007153960366718178,3.62
-0.2107584995467287,-0.0037445944694971395,9.734171410037185,0.0023740381778475793,0.018707489892141993,-0.008275116923545689,3.63
0.011353364059941709,0.06263316727466828,9.840863810954728,0.006681798994839218,-0.00933805028187536,-0.0029795738988512423,3.64
-0.0837817952473248,-0.12158423173373167,9.742179594762272,0.00956857768759698,-0.0009752139597686384,0.0003359368220091968,3.65
-0.028673088514696243,0.08106451857913455,9.833774792149722,0.0076574871471691,0.007331813798375662,-0.006975582112840695,3.66
-0.020569376382311783,0.06631403941592458,9.870357556843281,0.012337966048226569,0.0046617449359343125,0.006122233521745182,3.67
0.030073645213781187,0.02913465344009343,9.697588767618992,-0.017640076453193942,-0.001154638232631611,0.0032581890898758935,3.68
-0.0024114345090941857,-0.10126344903448836,9.853884139700723,0.018816521414680737,-0.011163213489599075,0.003416050792341937,3.69
0.09995864638690544,0.06270003590727018,9.734756765183965,0.0003791151902879601,0.0014851842727514905,-0.004322481427205119,3.7
0.08642491167967456,-0.05466043936651463,9.692243082419145,0.008844353504909606,-0.005085786870834671,-0.025884342444844145,3.71
-0.07533913775211176,-0.13976509952407123,9.860244051505534,0.011454807195388904,-0.0073559967148469005,0.009520748735945312,3.72
-0.11768191568694969,-0.04398033606086852,9.816131177786232,-0.004488021152268997,0.0004010594569404459,0.003883078921376662,3.73
0.045688326739180836,-0.08148653099859227,9.719214550131943,0.012533452555801695,-0.013112661534499049,-0.010167520889628924,3.74
-0.06766298713640183,0.05240187707656407,9.789819977754206,0.011028549303290973,-0.020164547141734487,-0.004371744470438008,3.75
0.10038583403186277,-0.086179527142224,9.887293614254801,0.016400810546062013,-0.0038158186523494374,-0.01471982230812535,3.7600000000000002
0.0661925260093163,-0.1040855561357257,9.7886870638686,0.011285080683740987,-0.0032265001445781574,-0.008076247200102806,3.77
0.04787715351554481,0.1013956784209556,9.790937821777753,-0.005823975187403484,0.0197307964292478,0.0009090829677560339,3.7800000000000002
-0.12759004065387167,0.04300936233898528,9.846119464504357,-0.015120145630469973,-0.005546640224859654,0.0029726570681091924,3.79
0.12412618822191904,-0.04075277497401326,10.063140707720665,-0.0024759623929479497,3.346878585383786e-07,0.0003269004742676336,3.8000000000000003
-0.012276042456923599,-0.16025807754558846,9.714023287327485,-0.008919297741134787,0.004981525182302048,0.002497661492452079,3.81
-0.013307565617563244,-0.16443721187885926,9.69885271559623,-0.0071004745325879085,-0.00012450978695760493,-0.003677442831166222,3.8200000000000003
-0.03675727461188012,-0.06743512705607721,9.662482238452657,-0.00036810901266657356,0.003199946504240785,0.008661228278675454,3.83
-0.020510521195357415,0.026209123600402708,9.82038361593208,0.01856270987486366,0.017295601507200595,0.0007073712096537575,3.84
-0.0026172803658482467,0.0854479658139173,9.74972220450631,-0.0065314453990954,0.005556358972688996,0.005359823842358261,3.85
-0.08895576436392841,-0.0614596496019397,9.95682248874267,0.00647441111987233,0.0005410767702547553,-0.020170748554534042,3.86
0.06798241635205274,0.006857025185944063,9.613378261589913,-0.003154365420251441,0.01737916963376485,-0.0035447522134571937,3.87
-0.07516941765073165,0.07142589258238538,9.798027353820148,0.004477393544585846,0.003253510576794314,-0.002955756343311428,3.88
-0.02648831659141895,-0.034391606960944496,9.755749487020774,0.002147405148302449,-0.006042535030385019,0.004097602376615543,3.89
0.05449299398163541,0.015230261584545619,9.809022116339692,0.0070905395631862015,-0.0017295825076962398,0.015514382857243065,3.9
-0.01476702523322361,-0.025086854189959408,9.819000896234842,0.021885983040604674,0.00293811276342359,-0.018946091820031898,3.91
-0.05274668543129753,0.022490960147702983,10.118784390170855,-0.00913701527909699,-0.00636283089518624,0.025507028660859937,3.92
-0.03812422687294911,-0.006981427391922791,9.680235212825114,-0.0141094295329188,-0.00813843013744583,-0.010848669125932311,3.93
-0.05552981267722939,-0.01826173020958032,9.89910726664552,-0.004221873076790521,0.019868218537274246,0.017948192318173822,3.94
0.08976378279223537,-0.16922050635602726,9.838646570020856,-0.017986898737930992,0.015934025955575314,0.0009238893317414686,3.95
-0.033227630825368636,-0.09187863156458798,9.919719886961316,-0.00382169967015899,-0.002426075623097628,-0.009211989284775813,3.96
0.014542814603734303,-0.1804398769870985,9.80170130596537,-0.011284596941030437,0.001178194075670619,-0.004672170291939475,3.97
0.10457733400085885,0.008677232479824147,9.60304289677892,-0.016513558181558825,-0.005102576907325695,-0.001536139696073834,3.98
0.007468251815201181,0.011876417971188276,9.811542595712634,0.0010407806328126797,-0.009164948073119093,-0.007455327745413675,3.99
-0.07077565563430964,0.16559108067093406,9.792450936831733,-0.01626809907902228,0.006739284393162612,-0.007976300606761728,4.0
-0.013337436806604847,-0.20880351919594414,9.887454269454038,0.004394109441589853,0.004489437716653427,-0.006378982061784795,4.01
-0.07960494590619814,-0.13860650264621674,9.706008264655988,0.01592983141851907,-0.007289826302330331,-0.002756856569848055,4.0200000000000005
0.038632958384322326,0.1183835491464188,9.798651239012047,-0.006271212027197417,0.007815481587547052,0.003515537105884718,4.03
-0.0830291611796588,-0.07959516023519791,9.798558239909736,-0.0022310657704886164,-0.008020968701117273,-0.004173037801220135,4.04
-0.09857143730265891,0.02491442716763498,9.707424835353148,-0.005018060449485745,0.0009485719847555208,-0.004945653423918701,4.05
-0.1029932357754466,-0.2651237781879419,9.763812680152279,-0.012722627996395277,0.0006675605400584544,0.013238423357876304,4.0600000000000005
-0.040867635243529536,0.09307207048242569,9.86708401339481,-0.003318863367257929,-0.007722405393898254,-0.007615936175347677,4.07
-0.07968909218059705,-0.04747148158000303,9.629284035578983,0.0035260689640163817,0.008344952697851134,-0.010761623564217535,4.08
0.1511369272758951,0.009699531058630608,9.830177874238545,0.016651599400290765,0.0022003152903407866,0.007603864475179939,4.09
0.04750592342403717,-0.05104186435217994,9.702425597098424,0.00912504334989203,0.0015336281674807335,0.003915110223180851,4.1
0.02189421994820166,0.07138761065847708,9.92928109960434,0.012525698018427378,0.021998221555531543,0.00028944664649298567,4.11
0.06420797421644867,0.0733315295150292,9.671470923398147,0.0007154397728924874,0.00279968354567868,0.0040022276444699224,4.12
0.03271408584661429,-0.11709826160696085,9.813196586043354,-0.0022247704746419083,0.012258098406492252,0.006923078172742917,4.13
-0.038764595887245845,0.12334432147190705,9.91404424147585,-0.021843837787679298,0.019383611840020305,0.0029641521346551237,4.14
0.06758213818553709,-0.15466079496430918,10.057785324019713,-0.0005716438966122438,-0.021497688451573353,0.0014199963306338376,4.15
0.026154488418686502,0.13829308072578525,9.837926694384032,-0.0033822790665672137,-0.006461777175108832,0.012919553023921542,4.16
0.15021422019503924,-0.1269009039440603,9.776505568059436,0.004727114382159441,-0.005947966434986602,0.012256539142695347,4.17
-0.13396229945871865,0.06296403280618729,9.748561382536064,0.02229237068744542,-0.012032599891567849,-0.0014355101663198525,4.18
0.13001903004758583,-0.0689431059626666,9.76343675455816,-0.01123661425856461,-0.011641843245116324,0.0022147320236390925,4.19
-0.01715354979391215,-0.07267832389760102,9.764949333702635,0.0005416832769327294,-0.007867388523153685,-0.010970632330487845,4.2
-0.15130233117905617,-0.04134474816147836,9.738065447047163,-0.001065877170092649,-0.006537198106937044,-0.011431704835870084,4.21
0.092126462569745,0.08058343282304486,9.861101486090696,-0.002515199605186518,-0.012474756457370425,0.002537694110386608,4.22
-0.07477777012079567,0.00023020099745666724,9.752744680201948,-0.003840463586543098,0.008621904850462115,-0.002279375789818596,4.23
0.07932960676489233,-0.07458847513740519,9.733823276107337,0.006700927643073859,0.016741473961778965,-0.01630969396773898,4.24
-0.09128488395922758,0.14144887092799,9.828562212801893,0.01233678279842185,0.02167570410281541,-0.0030536865065750895,4.25
-0.28355625117512034,0.06541579448883571,9.770074025938124,-0.02100241320702327,-0.0017395698172229413,0.00792055706747843,4.26
-0.028935314205528265,0.057287637263782366,9.72455894676767,-0.002746293685586554,-0.004898366844406682,-0.010158925221275298,4.2700000000000005
-0.13768714791689093,0.1353355003690642,9.867331180673913,-0.014013907576074626,-0.022842391358402946,-0.005183115384735339,4.28
-0.14108368107651748,-0.02292930790639124,9.666400944767235,-0.023883977005445717,0.004436917109247942,0.0010486879670835905,4.29
0.03384480432895229,-0.010566819637936957,9.901697773245305,-0.023000294792011777,0.022480500081028025,0.006987023108329244,4.3
-0.09500960791713638,0.1509662320965586,9.685432159639053,0.0047229822736852695,0.003693430984576216,0.0015034518756543009,4.3100000000000005
0.03150660169698033,0.008857103890138565,9.788159236610516,0.00041245321450665806,0.0061402016039401805,-0.013251614336696391,4.32
-0.007268535482610222,0.14554985906734272,9.809256647811248,-0.000982561289040781,-0.004376527945111465,-0.010835117726049304,4.33
-0.04693429440196259,0.10541967499588632,9.774906397796544,0.014426788925790204,-2.901492604728249e-05,0.0035206384315381316,4.34
0.05584604268941256,-0.05594091942244529,9.725859730093717,0.0009456745654316716,0.005586403042100401,-0.006661670037289632,4.3500000000000005
0.04185369350593846,-0.022545834880041984,9.836715159836919,0.012443645771937722,-0.0009952920289286577,-0.0006834945861704581,4.36
-0.062430556449616294,-0.09086847266653526,9.737810476303995,-0.0066487387521310184,-0.003275588071773229,-0.008995930763255354,4.37
-0.18986755306520936,-0.11854312200051616,9.848061945153166,0.001266471985752255,0.006236422462203748,-0.006349374480771139,4.38
-0.10988837370244312,0.04182859607810113,9.702160208257643,0.010941351941026498,-0.01226341392533469,0.002849973927204825,4.39
0.01999476977937565,-0.0039004103798204156,9.878092775072584,-0.013969213295515441,0.01401197071869123,0.0037160719356996003,4.4
-0.09709824183080568,-0.11054963248124186,9.800362906435609,-0.013463457730589684,-0.01508946223843924,0.015384559109301001,4.41
-0.11571204790453407,-0.019070022602312456,9.811906333364277,0.010809466100852332,0.006136040600248558,0.0007333134452139388,4.42
0.040818874407444854,-0.1124776085063397,9.719742026729072,-0.012999056353571046,0.0016104668300383036,-0.010187628400427058,4.43
0.07392850411043884,0.01305970559521668,9.648964535454615,-0.013454343012235482,0.014742262106412572,0.006044974244599241,4.44
-0.128423340068048,-0.028539516406053064,9.812143579181468,0.014829068622606299,0.011188596110297959,0.009751637100474738,4.45
0.027023213381115626,0.1563069795335928,9.873623257596616,0.0031047264306950277,-0.0056577712247809974,0.0018105863918316857,4.46
-0.09396858068117378,-0.11969312663999197,9.741287412568873,-0.005389440471696261,-0.007796697121929147,0.005501724902778809,4.47
0.04172136496543035,0.07736837484976468,9.671253301864608,-0.0012801956420471245,-0.013810723647774104,0.01028860267420427,4.48
-0.06057984774893154,0.11742044961443932,9.9240169999558,0.007003523136701471,0.006134829205575215,0.01008182427251157,4.49
-0.2358522685792845,-0.020997130303257075,9.588073039334214,-0.005858621127945043,0.01380372704380193,0.0036325841966070717,4.5
-0.04352853333473136,-0.03477448777985934,9.871890410903374,-0.0033402730005867754,0.02160251156205951,-0.00890877629329471,4.51
0.05361612853096429,0.05596575323928974,9.904156609989515,0.013062754515848684,0.0005529094367051007,-0.009157472957224539,4.5200000000000005
0.042989105219762104,0.23859149887242928,9.940237714735025,-0.005330106214216847,0.013323451501267758,0.017193357208787667,4.53
0.099110697388523,-0.05093655427458243,9.69471405385691,-0.008416776874690229,0.008895571298281725,0.0026824586785062906,4.54
-0.09472009690280346,-0.19053343143536383,10.020326009793513,0.012789992124174504,0.014244160009003524,0.012573425107981505,4.55
-0.020410738846710505,0.001259615359009021,9.765917094183761,-0.009995533019377568,0.00404747434838398,0.014600297392944763,4.5600000000000005
0.018080273568475722,-0.013743808938225117,9.74825446808441,0.013660229159487001,0.006234011887031531,0.013417868617656014,4.57
-0.05232087659722419,-0.0362573782392048,9.8144612247789,0.013008939360337769,0.017652810837327653,-0.0009590798928345304,4.58
0.11291206734485254,-0.0004960027434187175,9.79521171248079,-0.014476426676107828,0.013686196726526668,-0.002835232569211234,4.59
-0.08157266499569836,0.14654669689354796,9.733962748082423,0.003833578328328905,-0.01219001554584014,-0.02212841605967066,4.6000000000000005
-0.22955493977773478,0.14452079439819404,9.938426077796166,0.00148692720061177,-0.008673140442105322,0.0075508891720916516,4.61
0.08826216000293377,0.03867566422913646,9.840200419801375,-0.014983310865597984,0.003499914605706815,0.0030984587232399624,4.62
0.19735598113493683,0.0550503005101728,9.995867103043205,-0.002283255522329756,0.011631474839477081,-0.013222644974948286,4.63
0.06895882905164565,0.004532696793441833,9.772771475460477,-0.010229678078095763,0.013221572510390071,0.0033147811584754,4.64
-0.08130175967747655,0.06953434602943116,10.00290755659123,0.006567906937246077,-0.0005434375002664558,-0.0030021089772153432,4.65
-0.07141310545474469,-0.042772360628759325,9.774188320333817,-0.0039055815296305143,-0.0016482639135628192,0.01775686148662813,4.66
-0.07773403512523566,-0.03744159173284447,10.00714297762159,-0.005591378875214369,-0.014648851062498792,-0.0055736861634830305,4.67
0.03752156041739743,-0.07031991444654127,9.821164623291653,-0.005271939986471546,-0.00923915550683114,0.013004561997067137,4.68
0.040790635476915554,0.11622654135201921,9.785149900259583,-0.00843315046458474,0.006501802573735457,-0.004805319986856709,4.69
0.06716417139358286,-0.117453526842195,9.915671028505843,-0.022877818118685674,0.0017022932181323944,0.006061250222131731,4.7
-0.04611301073831573,-0.0931059384400806,9.914523994376488,-0.008355455877949388,0.004361647011292444,0.0024364969098988067,4.71
0.1115650954726199,0.0343210496752751,9.789686476169043,0.002799589254885514,0.0031458844937505433,-0.0006897588241580352,4.72
-0.04944347266280126,-0.06863210781254946,9.914861661895374,-0.013797898215649149,-0.008589998843842591,0.006617090375235607,4.73
-0.03644355717145533,-0.20345065432371584,9.873206328684136,-0.021384134101438797,0.00804094341092209,0.003961153513849571,4.74
-0.07132725248612325,0.15284579563744818,9.765675129512363,-0.014505221334447019,0.004404534330423388,-7.770657909890309e-05,4.75
-0.1032094135042411,0.11238646569668212,9.681512387598232,0.001532485364816224,-0.02089657182595613,0.010982829106975853,4.76
-0.006526728742302872,0.039065832915032676,9.78331811426519,-0.01625530383963974,0.0009636305821558511,-0.009010581604455331,4.7700000000000005
-0.10248524364094397,-0.050626815636281575,9.721233708181435,-0.02411754547971826,0.0047589147963361155,-0.0006458627961727858,4.78
-0.03242740481347537,0.06949294343873434,9.647146183526743,-0.0030247300378604615,-0.00465490485342276,0.017581605988713524,4.79
0.11386489735868191,0.00014276427120005311,9.617769885885254,0.013188389174634397,0.005815313430633426,0.018563992116158796,4.8
-0.08059537524857141,-0.10091359724190392,9.696940198337673,-0.0154780520964512,0.018133490260089976,0.012268375851221217,4.8100000000000005
-0.0754959711737863,-0.0123281999509641,9.828799529948313,-0.0013478140151335896,-0.013682957465988275,-0.008569592341180274,4.82
-0.08852745775286688,0.11745458970605094,9.712923397296587,0.0055711668943775675,0.005542160123104214,-0.019515010790482196,4.83
0.04202329400144788,0.15030466249656974,9.937787990891675,-0.004983770969869095,0.003891398775165517,-0.008521430872215628,4.84
0.08051088182122045,0.11376763859638826,9.639066287790538,0.0042114878239182495,0.005296750108067585,0.02049938639798073,4.8500000000000005
0.2571697424122707,-0.08936983429533876,9.746015686809711,-0.008724118421649104,0.00016957077353221036,0.011150219421774148,4.86
-0.08089688647395608,-0.15006912353605636,9.844810684536553,0.0027983580535489868,0.0007319268554232968,0.010124955251889205,4.87
0.109578245081415,0.03759744564739809,9.866403408850179,-0.0009523814816600726,0.013491185290449889,-0.0013071799312125067,4.88
-0.052438450521169126,0.11753928782396426,9.765037795258628,0.00738360221981197,0.003729444762583311,-0.001796057487527889,4.89
0.03585643011366114,-0.09840874830174597,9.866956279054092,0.001113798028964533,-0.005026293560066537,8.44878310950153e-05,4.9
0.09172837083710574,-0.03413535884849917,9.696913846355805,-0.009888256871094767,-0.007932653635281447,0.008959841448054095,4.91
0.011591245130665041,-0.04460340709407008,9.915251867355204,0.0005306547639242169,0.0017694665185858133,-0.0031501576785955936,4.92
-0.049755141787744483,-0.06863021169285939,9.852924680138752,0.006439729854914998,-0.007482802609550201,0.02398109961204074,4.93
-0.13277757701701473,0.11009428317648069,9.801634295485755,0.005744464205698054,0.013748747739153067,-0.0034947945805069098,4.94
0.15605420440688117,-0.020959633871070815,9.741342805155638,0.00772429497492169,-0.007367916893148672,0.0010058380835075821,4.95
0.020346743939554726,-0.136379532655316,9.962258229566574,0.014877226218921886,-0.014999665390209962,0.004091410140802353,4.96
0.029529019922436724,-0.12244608358297393,9.75516207315702,0.0067929551493702,-0.01956144665289814,-0.01263734793752055,4.97
-0.05469546161180601,0.12881127396985406,9.937222717530842,-0.0057640995449327005,0.01219188636550608,-0.006167552060171789,4.98
-0.051380812816524714,-0.018353999087608226,9.814783132879318,-0.005668061407651177,0.00943839173053025,-0.00575479778254968,4.99
-0.083735739546897,0.03522874794420621,9.848890434726833,-0.004509103063871671,-0.0017285559604394796,-0.012199239765545464,5.0
-0.07217351879110315,0.09217189027179012,9.661204142872943,-0.00868997409256407,-0.015239556227777496,0.0017189660842262743,5.01
0.09965876095025704,0.030346431611126407,9.904059848259651,0.015994422026022886,0.004487804441794159,0.01906244999947291,5.0200000000000005
0.055696511527215144,0.16439756396713595,9.824780968555956,0.0016903126076460698,0.017703957043648036,0.021665360672003645,5.03
0.12678549937116854,-0.1648481747249465,9.883242335826887,0.006017274058539478,0.0021884346061120455,-0.00048251006480824933,5.04
0.1948504667561228,-0.05464153524552026,9.78457135296046,0.01384181964156978,-8.351884760605867e-05,0.0002468103486611142,5.05
0.20313435415881087,-0.003394591402445578,9.904334055315088,0.004881523188159206,-0.015801587009557104,0.014778097850057193,5.0600000000000005
0.011583284646385139,0.003645242325556955,9.565862792938498,-0.0032054540966932354,-0.007638123311870566,-0.004051623125671575,5.07
-0.03103792463146752,-0.08168961398591178,9.85270203421419,-0.005122431881033981,-0.012838024451469152,-0.003235241937647497,5.08
-0.02623331186795155,0.05420702666399804,9.641379766168427,0.017506491093425926,0.004480605451675957,-0.0010600268455916346,5.09
0.013939922578982779,0.0068594319943424496,9.865106020860493,-0.020254497576630198,0.0006789502069371476,0.010285382107592406,5.1000000000000005
-0.04785099499561232,0.05402900015203913,9.68554335682393,-0.012786236364108434,0.002324490233214613,-0.0007220848971173117,5.11
-0.0621069259113676,-0.09190844300766386,9.896153826555414,0.013681696204725521,-0.01675738382795037,-0.010227038920136685,5.12
-0.08771418815741953,-0.10658491729275393,9.779241467109532,-0.0008117600821476824,0.009870647393979562,0.006069420991222076,5.13
0.06133667961599794,0.09936299212047106,10.058895394075023,-0.0009632313195837392,-0.015257905408792714,0.007707589276199529,5.14
0.033865410723826345,-0.17255219991797074,9.763347234260205,-0.011225792173628131,-0.005695939130995145,0.016203660828773066,5.15
0.03024839640013337,0.04718234677136271,9.897130722065176,0.004013657380474203,-0.0023698587207716185,-0.012806424637427219,5.16
0.21367277662948456,-0.09137714212802661,9.644476826957193,-0.018594545549042364,0.012864977043669568,0.011654248070979558,5.17
-0.014335421965876761,-0.027641911595827046,9.733595015097347,-0.003555252716646747,0.016441622096268753,-0.002294801221651164,5.18
0.055030577078153835,0.034585732569382646,9.855786789366304,-0.002533194306775451,-0.0027959684113732903,0.0016533861571121806,5.19
0.052387628351360044,0.07633517048347083,9.737943661331489,0.010526302273573486,0.01366911796050554,-0.0013055161099883137,5.2
-0.136311405300282,-0.11858532334663388,9.731615591439036,0.01244672584043745,-0.0022359848539528424,0.01588399268293091,5.21
0.23041170172370165,0.03001105432570087,9.751488964968354,0.0009491759338961028,0.007234771078283821,0.011506994229163046,5.22
-0.051231180104978305,0.1926257323805557,9.699465864847873,0.0121454442784253,-0.000997980193754369,-0.0015208756366203444,5.23
-0.04536236382805278,0.06093975343775008,10.006491175125884,0.0016229795018593237,-0.0018574585137147305,-0.02066985006764281,5.24
0.0728150778358703,-0.044920846971903995,9.789201558790825,-0.0015984758215564765,0.013038837739123737,0.011158233157365416,5.25
0.22729791424920062,0.061215305034225224,9.780740509798349,0.0023888223974938127,-0.020047535454179553,0.0036282641955877877,5.26
-0.06807044822808406,-0.06384325938701783,9.973677523876107,0.0057220321103012926,-0.004316606710666384,-0.0003965499139709348,5.2700000000000005
-0.010958701791590494,-0.047389376050161705,9.704950961502819,0.0071191788892604755,-0.003692051425810953,-0.00748002231751117,5.28
-0.09000953773937224,-0.04575071964655969,9.860268024856374,-0.012351146963942938,0.009916814614066865,0.0087552091996996,5.29
-0.06366122633879795,0.11023272054048838,9.792538409383308,0.003948274780692219,-0.009982454605554445,-0.007927841010947876,5.3
-0.10465287803276598,-0.05179909789213266,9.627865486609627,-0.0024396188111623822,0.012753265661484759,0.008440508186693615,5.3100000000000005
-0.00907938297321034,0.026003470444223353,9.76981818630921,0.0061084509489130355,-0.008615542266172392,-0.015980506356416426,5.32
-0.037110588706195526,-0.03780042447030205,9.845682996547792,-0.009555471150671221,-0.005268528165640591,0.006708910046978876,5.33
0.0016313771083239352,-0.11394241189826526,10.06648357496157,-0.0076966727497998245,-0.01143337625032017,0.0007460278723545812,5.34
-0.1399755652610864,0.10708113424022243,9.950486986015257,0.0012264434747432291,-0.0002309414427227139,0.010986871989067611,5.3500000000000005
0.01727339234291425,-0.15874511100349856,9.762229023827928,-0.013773306826173524,-0.008506870002229681,0.007910971019060267,5.36
0.2145703439027895,0.08056332146782555,9.869631445836742,0.0021118000571752507,0.008563155580588892,-0.0018301034472769859,5.37
-0.13039398612460637,-0.020397981393748793,9.807553828990597,0.001041506195908144,-0.01075513935165338,0.015766316477361805,5.38
-0.194315164488142,0.009590255555061216,9.943786991577642,-0.003788664693678302,-0.01534767443757814,-0.0030228915013678173,5.39
0.06923057039637552,0.1043963225238364,9.744667213406496,-0.007481273546641466,-0.0013867322796360718,-0.006109142747088438,5.4
-0.1549592490986475,0.013624526671736274,9.813573392926381,-0.008344039891305997,0.009517666418439454,-0.007674315438671777,5.41
0.06648687361965493,0.011673129275707609,9.643376312573322,0.007340158119938575,0.004808644227152068,0.014779420770764256,5.42
0.03219715060934432,-0.007005781553609036,9.771317302986018,-0.0048739717019913855,0.013785460956723708,0.01216589055495803,5.43
0.019746733134149416,0.10059191673864123,9.70666831048842,0.003040608215406117,0.004937629140855689,-0.020897605830203916,5.44
-0.016927137013717498,-0.18405849136586006,9.62742734314397,0.003960480741070317,0.007379965298106872,0.007560260821178273,5.45
0.15888513705309026,0.03012245300314489,9.825036297026854,-0.00328382338428024,-0.005190380604464539,-0.005994768634879564,5.46
-0.0016519577525642443,0.009830160670807133,9.75922799827822,-0.008046114698840742,-0.0004702478311009425,0.0036469387139340574,5.47
-0.01956618242353127,-0.11701476394922279,9.818954501783917,-0.0024603629069599006,-0.0010374185271295226,0.0007153107629466073,5.48
0.08842752113710162,0.08140123099992744,9.910119846913592,-0.0036084045600040244,0.004394757627947412,0.00487399237514105,5.49
0.03438945299721421,0.05561711809446843,9.880466438913356,0.006026897699088355,-0.013440161238720582,0.0019277483350111583,5.5
-0.0919124231248366,0.11580271562764109,9.815000585471573,-0.023393096968854856,-0.005411956005354649,0.016418876884753027,5.51
0.007842421439656775,0.118217367327338,9.698225703150097,0.009415578003068022,0.00951889979914994,-0.020741442436799762,5.5200000000000005
0.11630839685406065,0.19585060401108872,9.838180281468347,-0.003070722760777345,-0.0013025294764598054,0.004785992021942791,5.53
0.0020699280842770736,-0.013967398790032127,9.66731768275316,0.008913280586604795,-0.0037155738150163515,-0.002162027899405189,5.54
0.21931414583434022,-0.10784622872109109,9.833744730009235,0.0011120817014365519,0.017818653019730832,-0.004479582802152404,5.55
0.21898317091523825,0.15459054753918544,9.906261155137324,0.008001879132321938,-0.003508220401441085,-0.009017322968242676,5.5600000000000005
0.07597278479322862,0.02319003740991103,9.844077143205679,0.01096318006398729,-0.014687568019284178,-0.0005739935202706171,5.57
-0.12221769687948014,-0.03135979044165364,9.839243183122063,-0.007369577887949137,-0.011723172785195248,-0.0030874193652299783,5.58
0.017871355247902645,-0.07110553326022773,10.01539660373781,-0.004044800667274053,0.010912562980695505,-0.002761080034840558,5.59
-0.04390013280652886,0.11673595529618877,9.761809493289356,-0.010472400554414191,0.0027722037044630526,0.006190667123989576,5.6000000000000005
-0.04223737541317649,-0.009042806966230174,9.92303948433036,0.002898550663128199,0.0061515224052198225,0.0011887028489635254,5.61
-0.1444096457929077,0.009271952291741358,9.644738519788355,-0.011704330441786934,0.0016075994706234856,-0.003774731788071668,5.62
0.061467432637226586,0.15896872128944584,9.824823218071439,-0.007964445094548502,0.0031285751069418735,-0.027610095358055954,5.63
-0.050705532798821666,-0.16185057450477064,9.961291515418523,0.009612362701141873,0.015262081622408843,0.00741540903269763,5.64
-0.07426279380242998,-0.06350933617209202,9.74283018625802,-0.0159576702454797,-0.00955669618583395,-0.006357901886130204,5.65
0.09247365564388768,-0.01982902367054277,9.931154585970695,-0.002911678489161603,-0.004719741477242635,0.004995351134759257,5.66
-0.052434129055808965,0.19192876601821604,9.8064734429968,-0.02645257862112444,0.0009091053042744577,0.0031945191838011677,5.67
0.01924309001475876,0.017323941984777224,9.923210794203326,2.8584886602901003e-05,-0.01477566285806414,-0.004262880319935004,5.68
0.03384109824480188,0.009504115781888622,9.722600735657796,0.012167421959149466,-0.0030916858773265095,-0.007614937743512784,5.69
0.05312768604557633,0.06114941673498708,9.767792596944274,0.0063633920139931155,0.01697101760333586,-0.009447315705399159,5.7
-0.007248789901922014,-0.1159593532727983,9.832473805243138,0.016458731809438295,0.001523705954818247,-0.01149219790897348,5.71
-0.28255961256566475,0.1563045454260157,9.815337553614677,-0.002587587966632399,-0.012242644790696323,-0.02479124943517395,5.72
-0.046959191827325976,0.039226984407174946,9.710583180786609,-0.0024836858749068733,0.0010169474473989055,0.007223299347051226,5.73
-0.17742936446928964,0.052939312043838,9.7084741126565,0.01314505436836291,0.015478907862848883,-0.018219403422197977,5.74
0.015301832899698099,0.004235344433323544,9.846551213468441,0.002033172005148742,-0.004313193389014276,-0.010469641883525203,5.75
-0.08228484253630798,-0.06536685232567421,9.827902023288257,-0.0010572958430842883,0.004072391145988573,-0.0027304481137817803,5.76
0.14109893043597949,0.02260700427174922,9.78603626450618,0.0074677845747912995,0.010498132798676497,-0.008312616146728333,5.7700000000000005
-0.04893744364121008,0.01989317254151798,9.748050881386794,-0.003431174796977302,-0.016269700133129887,-0.0031024061581799364,5.78
-0.17886070330455417,-0.12356373314649803,9.861094161324322,0.01284727361276099,-0.003667339565374137,-0.0037333805899722483,5.79
0.056133654681062954,-0.01533868504875936,9.837877745130719,0.007670724963133646,-0.005201119578064188,0.0061600230230647954,5.8
-0.01909749258172642,0.03916971672467576,9.794726230892978,0.016966756798247214,0.008518198445706221,-0.001386750888437999,5.8100000000000005
-0.13769262032328441,0.1475395881214545,9.722911146658948,-0.0004296926250244511,-0.008537419508293835,-0.006196787090101404,5.82
-0.07702806134290485,-0.05901384559102586,9.827000609228698,0.0015020052658255153,0.00821750536173995,0.0002715487895662607,5.83
-0.034366833216450586,-0.027992862625855586,9.688518611588515,-0.007926836181151684,-0.009323969400069293,0.011167303311504635,5.84
0.06053443825703123,-0.12798498101201597,9.65911357867188,-0.019199028891335478,0.005099708069343841,-0.001525549476230396,5.8500000000000005
0.052274518936625505,-0.13760844693351917,9.739650365155345,-0.015148796099403665,0.014586902105098793,0.007298494903482788,5.86
-0.027450854801941038,0.1965451048562628,9.866128683445117,-0.01596613802690807,-0.012406840726568794,-0.008424402845170976,5.87
0.0489514638267926,-0.0752719025664776,9.684915487588091,0.0019731844622380883,0.002671948239153785,0.006459438820590394,5.88
-0.031086093328142786,-0.07820098738873724,9.780304091640797,0.005826561636262046,0.00351030347507938,-0.008092805136210452,5.89
-0.19569183437538787,0.09015244412868113,9.735963850996278,0.005608459975173619,-0.008290420670282541,-0.01590527100141725,5.9
0.05884780397191824,0.0344106519406545,9.658402597463706,0.01407976056361568,0.0009136100575244888,0.00824056784786085,5.91
0.004838993465253076,0.06264613521418157,9.814061292529056,0.004470442903493519,-0.009962048222079026,0.013846378441598589,5.92
-0.055596601857252174,0.04016417360141415,9.828102718820672,0.00712622149699497,0.00895519540980367,-0.015129176072316937,5.93
-0.06864926428596617,-0.08725510698875182,9.806025469754045,-0.016106676595346987,-0.02935661004747741,0.0021992182267404022,5.94
-0.16375441678901054,-0.06913021278564906,9.718546426260824,0.012128446604649746,0.013170124237802804,0.006696060634006215,5.95
-0.04230802810010878,0.028349176165234004,9.969967435835835,-0.0019684203199584575,-0.001106022775815198,0.004418460942569437,5.96
0.03199488213541023,-0.06251434868802505,9.829603154103829,0.004914556483690953,-0.0039952321929467285,0.0001425310822561164,5.97
0.061385981206421705,-0.052784661022526505,9.75983850144748,-0.01057066248826989,-0.009874502491703574,-0.016678070550671262,5.98
-0.028339834361192896,-0.08634345616847328,9.824929917848491,0.001430063625819421,0.001308530756044035,0.015037215909282713,5.99
-0.03364589987817756,0.002638480556830846,9.701565761978385,-0.008102604742185856,0.00627186549642864,-0.0021429706263056602,6.0
0.14287885514696594,-0.16997385773960416,9.742760557264276,0.004522900586329208,0.0030230754069480105,-0.024572504950428495,6.01
-0.06257684520754138,0.013325126613930916,9.788341496992215,-0.008266615850881173,0.009754895183843709,-0.006558122585149732,6.0200000000000005
-0.00406596843396424,-0.13666587277730732,9.770384253223947,-0.004393852735852787,0.016973818408410217,0.009456291671445205,6.03
-0.07699840708433288,-0.15232724909396936,9.729228213008572,0.009643393174172102,0.009767922838531793,0.00941984283068088,6.04
0.06048333331339149,-0.07659674743336099,9.898012407201564,-0.011350247543048702,0.0024840606700361153,-0.0020660361223627656,6.05
-0.13794462467266674,0.12342980681823473,9.898188219380918,0.003764747607922459,-0.010480211533851006,-0.009016365443363204,6.0600000000000005
0.19485795839905817,-0.01938413751162214,9.73306964074685,-0.0068070587584317934,-0.00906449276556633,0.01423428565932268,6.07
-0.018106620299579615,0.08108656975273158,9.884295799476861,-0.010035326103131662,-0.013197289933847525,0.01316221099269526,6.08
0.02241290127877968,-0.041391405479963256,9.819590920237808,-0.011651635708228317,-0.012921255065577715,0.00012915058245199207,6.09
-0.10524383167929359,-0.1007725548977646,9.916375826577367,-0.005608718948114806,-0.003518965022046038,0.002355355869798722,6.1000000000000005
-0.1634367165673398,0.16690403434561185,9.830454462422905,0.003233693444335268,0.006011233398407126,-0.009582261088928899,6.11
-0.037748573094787796,0.11100724962795255,9.892185399642935,0.008470032000888486,-0.02980888565628046,0.005674315250041779,6.12
-0.07593533464542031,-0.02818370706184606,9.721899580463843,-0.012741930993053065,0.006537101538319687,-0.012382391380590801,6.13
0.07056040706110216,-0.14622055382078064,9.721356086306656,-0.007342471380492534,0.005218941815331984,-0.0015582934277894318,6.140000000000001
0.06083227586368485,0.0137885001050327,9.868191855386275,-0.00565308350924735,-0.002928509356190743,0.0013585905730999267,6.15
-0.05548928156228405,0.026514320549216586,9.777792602473937,-0.0007542205839423042,0.010509190805955143,0.009087484132313287,6.16
0.16437792250513206,0.02688464818889156,9.73867813735197,0.012748507654700742,-0.014363685990873872,-0.00643314387869321,6.17
0.023205810195163396,-0.18238655349197913,9.731845054302921,-0.004722890500370027,0.0056432272799248895,0.007199427871209224,6.18
0.08955925667429729,0.000383055247870502,9.658578178149133,0.0016256563152559024,0.008719769338066279,-0.010066503071301136,6.19
-0.1987183719605206,-0.014278780998082259,9.97707774800363,0.014241018623830329,-0.0037809388327890558,0.015317173924508916,6.2
0.042981459846593746,-0.08308675673126227,9.898810111471102,-0.01703514917129453,-0.008010239157753061,-0.013641769604662202,6.21
0.036927308227882115,0.15255319343618898,9.839362003643839,-0.009588058759581275,-0.00038111516843882567,-0.00681297656165271,6.22
0.08552437202892843,-0.002620904965899246,9.923887059633195,0.005846692118710805,0.014358298978637505,0.02103598475154707,6.23
0.09504626881085662,-0.02955608485622259,10.059475299158391,0.007263519818246957,-0.0008339268521253956,0.003443305364757456,6.24
0.12931762594652607,-0.042640381681651705,9.952851366425351,0.011728867629603153,-0.000961227038499088,0.0020513079033477924,6.25
-0.09846182592248963,0.03928521248129213,9.710042614372423,0.013040803268107665,-0.01135850430167842,0.00013650837337676202,6.26
-0.14132000363575,0.08289816027363284,9.938130653141673,-0.010841764779854924,0.004687863677149873,-0.001421606527567661,6.2700000000000005
0.009658198940017189,-0.09754286628367134,9.73302581486193,0.008693514847860467,-0.017965479466957278,0.001202252075823251,6.28
0.10347422415652814,-0.040711451182186435,9.866465026786432,0.0010782247682042227,-0.00450316063979286,-0.004389154416342309,6.29
-0.15967300991526595,0.054419306210488516,9.798804394662552,0.009788392559151109,-0.020003978135748564,0.00011002229826693392,6.3
0.2572269942042522,0.014263840674056,9.839969696346607,-0.013563320785395502,0.002353697998012396,-0.011106072575445665,6.3100000000000005
-0.08600457321043635,-0.02822125724586008,9.737913361065635,0.0007040368572167838,0.02034301608861444,0.001765134673076327,6.32
-0.09762833078417332,0.12483916703973418,9.7941428591693,-0.002215546137980812,0.005407240146801234,-0.012466522071326012,6.33
-0.017249674559075327,0.0031642554490635827,9.742024442482476,0.012083146985094852,0.0044985188328541745,-0.019107125221375833,6.34
-0.03229256489227677,0.031631597393648944,9.806987376096046,-0.002934613962376859,-0.002704475687509791,-0.009406632106539407,6.3500000000000005
0.14538394101219862,0.06215395673436741,9.756612882380743,-0.014188836668096479,-0.0012226869073863056,-0.01093241340206181,6.36
-0.041327534200668835,-0.03254863801295405,9.721010751313937,-0.0025636703521487113,0.0031638932022971414,0.014642241652919925,6.37
-0.035081130991738395,-0.03646026543748472,9.857275742588678,0.01761322769930568,-0.0013141031398975296,0.0027866021716033474,6.38
0.06317533306619237,-0.09628885016313411,9.800007343294189,0.001707413220196231,0.0014305578020310582,0.0046002238814143405,6.390000000000001
0.0018353162530852598,-0.14178267713429665,9.788700391154721,-0.012518646561011792,-0.018028468696315872,-0.00017618377230217564,6.4
-0.007006635903741919,-0.008397714862222651,9.86153552928653,-0.020985009012346918,0.0018008072003134626,-0.01802891861445731,6.41
-0.18720703575179265,0.07932305215319922,9.666886193237618,0.012980945800182105,0.003842608450884876,0.005680224284999836,6.42
-0.022211872041208988,-0.04400525168730226,9.897650662944713,-0.007892679637411259,-0.0032958196533440314,0.015823301328453762,6.43
0.02357142954244598,0.06288808636922863,9.744100585536703,-0.010996211560886161,-0.013001084140643134,-0.0023854907733801816,6.44
0.24361646403929213,0.14542120001891337,9.56439256830987,-0.01572554827512886,-0.0007966892643964903,0.01348091444280394,6.45
-0.0029583994535786525,0.13031255238282288,10.039911463425076,-0.015548600539939965,0.009940842403020601,-0.008928251176537677,6.46
-0.04237121491289306,0.11081555460339412,9.710891781770618,-0.0005158563617621425,-0.008107060669808541,0.012469664522350604,6.47
-0.008796859103016988,-0.022467505487201674,9.616820332057197,-0.020336682946276483,0.0011376826164942687,-0.009515963455317532,6.48
0.09117145897958903,-0.06021891910807523,9.898581804228353,-0.006482687418954353,0.0013468272086030342,-0.0064692369514437,6.49
-0.014339319018408373,0.03111621874777238,9.822466111274176,-0.00989538858575479,0.021387828017021576,-0.010701397049895027,6.5
-0.039516432442139676,-0.16547506128965883,9.83965328139295,-0.0012784774570001134,-0.008310889269987068,0.015806648865304605,6.51
-0.033671106038097934,0.10918065996337362,9.772296079741954,0.004279445310799812,0.019877416909954124,-0.00551643185411236,6.5200000000000005
-0.05415665351652537,-0.08285400653440811,9.687750099521269,-0.005879038703726614,-0.013582735455046744,0.0065512393210059765,6.53
-0.02403239490401519,0.016943961478844024,9.79196724337558,-0.012238810800442344,0.0028672891691922703,0.011226117706455567,6.54
-0.0002675746955373965,0.06779716388243584,9.645552535932351,0.008532925481688398,0.0007601646431532911,0.0053129875330977586,6.55
0.01392146048392641,-0.08743789231443232,9.9298245147144,0.0040864071116897,0.015857258081097933,0.0040428625722341086,6.5600000000000005
0.04709509421202058,0.08184090648546312,9.879560753420286,0.010801981625340368,-0.0013995004925882015,0.010393861553789725,6.57
-0.022534416090850985,-0.10323080656596106,9.654603147885455,0.02919751465133833,0.00032065776318622186,-0.00065216361658976,6.58
-0.11093629909650154,-0.034112262259518564,9.804232695479628,-0.009321216837463262,0.007489785968730922,0.0032040625392656336,6.59
0.03480102616678356,-0.20191111946014453,9.727178727336975,-0.004687197584572774,0.008961929216632162,-0.005142416132620611,6.6000000000000005
-0.05659258485222,0.1006073900735272,9.607889010694977,0.02056229471982288,0.00318083187604069,0.013638973644545629,6.61
0.01140422087318186,-0.024728653992035582,9.921231344184863,0.02474197565693923,-0.0006189712117567297,-0.0015593770123896362,6.62
-0.20423308024306355,0.1449537947440455,9.864824936260307,-0.009264997050445778,-0.0020981078686310947,0.0015689299127120487,6.63
0.1316307192544083,0.0951813549552869,9.895115537561205,-0.00970987142479662,0.0017774605072871604,-0.001014743649469713,6.640000000000001
-0.04602411414123132,-0.10209321391911211,9.84863855524179,-0.005289641427773313,-0.004232154844944111,-0.0005043615996831787,6.65
-0.09140953956601444,-0.035517529302019034,9.77152671258031,-0.02556237091408123,-0.0031142543758863185,-0.026952280686683042,6.66
-0.027844055646684143,-0.17745778629974282,9.857693679882322,-0.006483918234805143,0.0012773458389937328,0.0010121155496695543,6.67
0.16652129866250476,0.07591282936809304,9.70924915803903,0.005221182407057341,0.004323049737869604,0.018816843877902188,6.68
-0.02058870121174434,-0.13082977992601605,9.786926998587864,0.008650343622987357,-5.278053941989528e-05,-0.001021129540331722,6.69
-0.12197627880328905,0.0784437511597829,9.73639548098939,-0.0006559812833097847,0.006654433775889597,0.009439897551674306,6.7
-0.09804771773360196,-0.13833118917462497,9.83227564395557,0.001671175628934701,0.005871460024766896,0.0077422277879160605,6.71
0.09717580841971046,-0.08797718648782954,9.871985363846141,-0.005678736079125187,-0.016588719773082256,-0.014720841599639819,6.72
-0.04570007974153048,0.022640630588167662,10.078199239645322,0.007419984342905848,-0.014809031706410448,-0.012846168835158097,6.73
-0.07675743492072126,-0.04607258750615837,9.830660279909544,-0.010588350377778041,0.015122455706442908,0.003588580333250245,6.74
0.044585442863721236,0.01843122271108442,9.585311733926597,0.01581466395499905,-0.007184697505837032,-0.01155967784710297,6.75
0.0946883238293051,-0.0693221369529943,9.850201609508087,0.02329665033660174,0.0010096312962982914,-0.01493004810010347,6.76
-0.023841452839650473,0.058565331595747075,9.768178147014575,0.004991986524377763,-0.003233634335503875,-0.007617991537653113,6.7700000000000005
0.2666472539556178,0.06288786108548296,9.778148234866674,0.014352439917847326,0.0014715271668648779,0.003332491472702841,6.78
-0.14987781546725357,0.07476564939765307,9.80338389356712,0.007296540386081537,0.009702532567415165,-0.0017969881452526194,6.79
-0.016515139351422545,0.10058084779899322,9.746615728208692,0.0011237416800462501,0.01254846495222856,0.013677302492042822,6.8
-0.05620341835377021,0.09494647192092177,9.726302157605684,0.002370672176851605,0.01144589113801193,0.013943375455786644,6.8100000000000005
0.014064837116640952,0.03328485715765355,10.001735837718705,0.001891051223179108,0.01054865582308953,-0.001671284251298343,6.82
0.08299429498711723,-0.0018169840779593592,9.821684337381823,0.012595743210877457,0.006737503462535457,0.0035577618596292094,6.83
-0.13334998873598022,-0.08512989717144495,9.801659394822869,0.0033234215758271915,-0.008135600038122602,-0.011480921321716136,6.84
-0.07030339102834489,-0.008126282982779443,9.599391051439317,-0.006048019130352992,0.009236110813855943,-0.0010032401154917118,6.8500000000000005
0.05446069772460419,-0.038326453764606715,9.669065036575,-0.000905814248885071,0.00879274174811845,0.023759384897356194,6.86
0.09333751366906273,0.13176643595557982,9.945358416439422,-0.005920967277416069,-0.03193769878687641,-0.008321000731838293,6.87
-0.004109290622803479,-0.1224198406168017,9.645876943903174,-0.008090919401455838,-0.0033232053902095423,0.007081552636253532,6.88
0.09758102744636815,-0.13141733722654828,9.680583703284684,-0.01516596812413837,-0.007493728261930559,-0.00022507388947980004,6.890000000000001
0.15663912023641302,-0.21769935996318424,10.00358711800582,0.00331565409782192,-0.019273410828023294,-0.0015133113124188944,6.9
0.07237384093641878,0.24342018124442794,9.873006007209668,-0.00013583421954003783,-0.011858715121761662,0.011826309407238238,6.91
-0.08848339221730016,-0.0741514642074854,9.878256586917367,0.0018462084666125876,0.012835956500259938,-0.019319699156096794,6.92
0.1651035355010202,0.049153640777480065,9.792337428721867,0.003097572120947628,0.007188139471000852,-0.006272956808225051,6.93
-0.13241725777845134,0.06224375600948665,9.808387082402952,0.0014521788041900762,0.00831280151652401,-0.0072181029389757866,6.94
0.04808661789487234,-0.03554831403985547,9.763083067300311,0.005965906855405337,-0.018477718433590893,-0.0014746968729881264,6.95
0.05455970387894792,0.012771779307656378,9.854222319692017,0.013522544077874067,0.007532727326012121,-0.0005640075079115243,6.96
0.007344627022183119,-0.1170797764727535,9.757248987856311,0.013724956030674942,0.008414528260409945,0.009858152902134541,6.97
0.06795678949657201,0.15706558250791713,9.810502228078606,0.009131603585183608,0.0026454882683557817,0.007403776271197084,6.98
0.10414911118727029,-0.06980885753632046,9.811438294481846,0.0013812806795497406,-0.0004328795636087754,-0.0035576170948404045,6.99
-0.01691095970880296,-0.1593371105403899,9.71891244943287,0.009462103604754668,-0.006818494919467996,-0.00860721858213757,7.0
-0.04023019291287799,-0.14066759528341283,9.66089814951596,-0.008198674553781059,0.001013123746698561,-0.00157640832051804,7.01
0.08227221613747476,-0.03029742195583314,9.709867007287562,0.014573371255597227,0.0021177688743674278,-0.002452797679610958,7.0200000000000005
0.1196180678221218,-0.0016427214381125495,9.779753607165256,0.006331318962554479,0.006927605488660641,-0.004990495188339555,7.03
-0.05871033684094486,0.0031649893208482655,9.701666783632433,0.01545884469461224,0.001899236047744326,0.014358762772877636,7.04
-0.03428314538147618,-0.10903869825304265,9.586501413978757,0.0002526455367693708,-0.0012470121488726766,-0.0073624639724875285,7.05
-0.15936248045660947,0.06279164072360109,9.888460353318656,0.004026367041575892,0.009997104004645855,-0.01635446789551012,7.0600000000000005
0.018286459828593296,0.06081114024642014,9.84980141360737,-0.009081044286913741,0.007086250116210933,-0.01691664254456586,7.07
-0.1335629826149922,-0.02624058115749045,9.926419466266422,0.024987535112028506,0.008451533326598214,-0.0050947356137715704,7.08
-0.10978733985772833,0.18176058185296362,10.102738911703902,0.006558123608311795,-0.014320578443153932,-0.006205890023850778,7.09
0.14627321241043353,-0.27086758132385363,9.889759763068874,-0.022993937873716834,-0.0004093029336381801,-0.00017160861888114952,7.1000000000000005
-0.007217127939192886,-0.03980241744850358,9.811144147260617,0.000439043248119197,-0.011854330307169042,0.0011489981084534405,7.11
0.02288704478885202,0.020931440980561135,9.946775210232357,0.019234670759037148,0.014549444431206749,0.01501667265026772,7.12
0.11266607721925669,-0.026257838735694213,9.94265039757734,0.012869720415126122,-0.01027168815469923,0.011339342839979328,7.13
0.01645559356103096,-0.18887024062626895,9.836886600140645,-0.006508449162217873,-0.002125684528999514,0.0015962184941551783,7.140000000000001
0.06656997010501269,0.007129084726817453,9.711084932044587,0.0019035276966332321,-0.009756379791577795,0.011152554894726363,7.15
0.09422263532894162,-0.08074688082212127,9.812494474588386,-0.014850018184911691,-0.014630599614534277,4.4691704873541814e-05,7.16
-0.024959343250142724,0.019869171016455734,9.773037719182643,-0.006889376458406469,-0.012166893053413797,-0.006059319856319668,7.17
0.027266922496616663,0.018075798684997466,9.66541593349928,0.007954800595332908,0.0011760977449424025,-0.0033596018594996297,7.18
0.06488131634244446,-0.14130223918137993,9.947778432164354,-0.005175182261353316,-0.005952072237400196,-0.018089215379809016,7.19
-0.06193352462199621,0.07335558786318139,9.67733555925319,0.020369309744496297,-0.018452059180930413,-0.0003117067266114111,7.2
-0.03128610829396635,-0.05112654397801883,9.747234326937962,0.006921817302538876,-0.003177550991577953,-0.004119377556123096,7.21
-0.04692775059674079,-0.0014733916947530627,9.716526282947617,0.005772113346007045,-0.008084500790159713,0.005125442537896318,7.22
-0.2771297334075861,0.08955865489883583,9.981607186499113,0.0033076843530668865,-0.01252516387879523,0.026059602583925243,7.23
-0.11355208694592711,0.1692953095603385,9.573811634029413,0.0013349234333203315,0.0028210990018152676,0.00019643442158873647,7.24
0.01858701794218149,0.06393178769946921,9.791536814579642,0.0004594819405250003,-0.010071384797435658,-0.00495180416222367,7.25
-0.18818898394048666,0.026659257348239113,9.954159072932946,0.011415623480202159,-0.004323726325960956,0.0012147421711312123,7.26
0.2941831677056376,-0.04215241166216163,9.731097236784061,-0.0009254760164559864,-0.005053885921439534,0.015009505782182977,7.2700000000000005
-0.10997165753096734,-0.044118791240790496,9.708926918031246,0.006763173524545585,0.010348450008378494,-0.005224469759948001,7.28
0.00012047196071720583,0.036552269377633555,9.747040815089273,0.01823864625903448,-0.017439378982990826,-0.007754779610273694,7.29
0.10802075947235637,-0.03249066764795915,9.72235907641186,0.009162685022011719,0.021676349374205404,-0.0010118666441297534,7.3
-0.1731715564321791,-0.03506431306920031,9.7138764305275,-0.007578516176744709,0.012900064610556459,-0.003140859834625056,7.3100000000000005
0.1836146215656483,0.09557876097423215,9.986054684728995,0.002453501210929534,0.013683739614712497,-0.0019329977229521171,7.32
-0.03936872817442444,0.16742092174837758,9.829274452268523,-0.0021897634829392727,-0.0018753625028510898,-0.013670800497123242,7.33
0.06391532001447114,-0.05294496129151537,9.908706521962987,-0.008036245364320556,-0.0031483142149540694,-0.004571039929877287,7.34
0.031084523303073566,-0.13862941299055118,9.744049601915147,-0.005434027033058849,-0.007243099753631086,-0.009832504579357406,7.3500000000000005
-0.2756958561877915,0.011370312576535521,9.903705035970294,-0.004770591501820705,-0.005987296806274053,-0.020160481386717267,7.36
0.021969387666873567,-0.1212189274482156,9.797349796727994,-0.005134825356632095,-0.0045086848047119965,-0.0020656599986312906,7.37
-0.09930011569031419,-0.048810096420842275,9.76382402198098,-0.0093114327587224,0.006058081597464149,-0.00889506644193037,7.38
-0.08908402706831531,0.11389536862924472,9.747484679531935,-0.00834589116111192,0.009710845587747189,0.022283684225243433,7.390000000000001
0.17931667512876054,-0.11706387960583722,9.625280336170428,0.0014223721899541068,-0.0005155962221285706,0.004846216428364419,7.4
-0.07734517940524614,0.055758389680889676,9.666662539853945,0.005879008746873625,-0.0038452305645640234,-0.005514494431520804,7.41
-0.014286274935439672,0.07706984813229853,9.79035345119075,0.010392799776593924,-0.006317851807660653,0.012148482360882862,7.42
-0.11184620923187238,-0.04787584768848874,9.740490962140047,-0.00924771765673252,0.021038706411225686,-0.0060500973485515044,7.43
0.11477473608124206,0.04020204817544608,9.717431685147233,0.00951705287811719,0.016788176228339814,0.006602533278370957,7.44
-0.05667203006118526,0.06037562418832546,9.7131810514257,-0.004668442132250653,-7.405238267978657e-06,-0.004494794267246738,7.45
0.18912232094342202,-0.08532652427831987,9.94735649946477,-0.002267227318237721,0.004705575002587157,0.002408175540376211,7.46
0.03608295971515611,-0.031802627909450924,9.88705090904231,-0.004789501600611735,-0.002927086588851155,0.008180295951368526,7.47
0.027555287764135662,-0.07006152045863931,9.796142104230585,0.0021747033122724176,-0.0010716125371991573,-0.008452962953557464,7.48
-0.13651316024396307,0.0762401211735713,9.79909965437833,-0.008035048793064844,-0.006436040083607667,0.015909809445151933,7.49
0.08227441850287441,-0.07148205781192594,9.891580171122705,0.0025567700969517096,-0.0010948246342427277,0.0206012439065296,7.5
-0.07264474610294121,-0.03320600435389823,9.81551029182374,-0.006450128896322729,-0.003702479641082426,-0.005507274385973762,7.51
0.07433122154497876,-0.0755805727246552,9.75266712771412,0.005107006201721622,-0.018984633848469518,0.023120689037896377,7.5200000000000005
-0.2665747049493838,0.03932574018697243,9.894505798244683,-0.014896061199734918,-0.004189960437669209,-0.006907718123251269,7.53
-0.11887664398942915,0.022167200639538358,9.677245130683406,-0.003446225148853819,0.008275862950823366,0.00035721405351591567,7.54
-0.008804406417163912,-0.01936199694725463,9.847178393967182,-0.017321093055936748,-0.006714036393447768,-0.014187401837316246,7.55
-0.051104822374169794,-0.06055196571405244,9.842166696955577,0.0076839610311761905,0.019741528558195075,0.009536551218874407,7.5600000000000005
-0.040190391937223284,0.060819843789432754,9.632263611155677,0.012483785960153296,-0.000669307465412503,-0.02596247739035403,7.57
-0.08439295158505321,0.020319330065487334,10.014052070899623,0.001646231812169475,0.009656341620915325,-0.005029330618313141,7.58
0.051480295885108544,0.005678763270008383,9.980537506459022,0.013162613583727046,0.014670394784061125,0.015184130144072043,7.59
0.0024428014278991762,-0.17164917922399747,9.80345727888642,-0.010428781881524263,-0.0010122453438500562,0.007886743993089331,7.6000000000000005
-0.047324167255225404,-0.045926022162294106,9.770601495419406,0.014806689407358062,0.012754995373790476,-0.002080322827781981,7.61
0.17035280177614073,-0.033017687293315175,9.864650370572864,-0.014881493768101892,7.49556124448691e-05,-0.008403724755961926,7.62
-0.07257126485968832,0.12361333540709912,9.870439096906557,-0.008051908334590054,0.003958162463864429,-0.01170955527380013,7.63
0.12280438981134537,0.10654697309453193,9.616933971367885,-0.005340549955221345,0.013621102737443281,0.017326829910622753,7.640000000000001
0.0007658542904627096,0.035350925112033436,9.790215186924161,-0.0050134658322136165,-0.0011593070358967678,-0.0031133474577771663,7.65
-0.02006295704647307,0.12929514061080655,9.669357299347926,0.01581092525653465,-0.00011955468057545176,-0.004246916996609182,7.66
-0.09436449401125799,-0.1255500393270849,9.796458886431234,-0.01257051737109668,-0.0012193415473047702,-0.0079331571880445,7.67
0.10742999320097602,-0.04452623790616667,9.836487179142678,-0.008465488761351456,-0.014583626254649274,-0.011515624181246707,7.68
0.03707518298223994,0.09697890629145328,9.745423221422271,0.00239497145726621,0.0038458966349122423,-0.01341687643045019,7.69
0.052039821848594826,-0.1524217100106645,9.907293166663791,-0.012286876655632717,-0.002439639400382421,-0.01032764809910818,7.7
0.038355809958905834,-0.028417492609185892,9.690507964189923,-0.004002879852813131,0.004591966232843841,-0.017359133553325395,7.71
0.07394476746534694,0.06900692702729067,10.154656319638779,0.00859002507399586,0.015578740396438247,0.002296119354166001,7.72
0.01617273599882624,-0.05082029940424582,9.85960938763353,-0.002659915599201636,0.003897820551966495,-0.011766251952332453,7.73
-0.21687431229387705,-0.14711096661400977,9.813995832029104,0.010380986913882442,-0.006675785572467882,-0.01908598851345485,7.74
0.06464261357374917,0.06419010781035807,9.794050176098256,-0.007736745528888248,0.006252916601223319,-0.003827334276949879,7.75
0.14685321083335032,-0.07113188944694056,9.848797536888712,0.022474810363962455,-0.00020981248224393568,-0.01267375173315143,7.76
0.08248945847097705,-0.005534907768634645,9.815746809084938,0.005503427073512696,-0.010460985846755595,-0.01149441265153682,7.7700000000000005
-0.17275902590002865,0.02901833507260932,9.638378704181024,-0.0044849032061858906,-0.00259035219384266,-0.026086757573755878,7.78
0.06179029819145207,-0.08577794199048644,9.66128639006888,-0.020057506494809547,-0.005454579197932927,0.011776412329300162,7.79
-0.10946440628333061,0.0036747421472388916,9.747653788591045,-0.008723918080755134,0.012342084573645867,-0.006245684658107079,7.8
0.16398580601457446,0.054591855344097356,9.866869362130084,0.005081783674462135,-0.00920805205551496,-0.009217650960866465,7.8100000000000005
0.0820084563385472,0.0447114636111957,9.917706741578112,0.012837445908728679,-0.011502869114370089,-0.006790981480603635,7.82
0.06714056598184275,-0.05786028272697463,9.7111134520605,-0.009258953794757009,-0.0040834853149174155,0.002924099271434375,7.83
-0.11513449970507549,0.004306887919681495,9.742956713160446,-0.018965193284523743,0.004101990959784725,0.0015569926247111872,7.84
-0.19140128931250275,0.08562012082865555,9.67792070525506,-0.005985601937608772,-0.009761482612336492,-0.006798028841441972,7.8500000000000005
-0.08453352450488211,-0.1417107543552458,9.693660261520176,0.007652855606427307,-0.00237029875954596,-0.015958540881777342,7.86
-0.10343643555079285,-0.07697805759276988,9.615963019121955,0.007450592742755548,-0.005599651567017964,0.004690238370865194,7.87
0.011222934352226299,0.014982107630214077,9.793763481339253,-0.003759854479505524,0.025520684268267955,-0.009088295276836201,7.88
0.007901034582188516,0.2310490182376992,9.771163313336356,-0.011719590622610717,-0.02041152593379747,0.021504079954458754,7.890000000000001
-0.1880883347845432,-0.173802559327896,9.801982160544807,0.012456772621231441,-0.01179203462687023,0.007913804519032855,7.9
0.01177087174788398,-0.007426986731392339,9.816009433324824,-0.011306197848971173,0.0007601405147291625,0.00039204874215963126,7.91
-0.03825602908584813,0.03879530383520175,9.845039130521146,-0.001291248602466032,-0.006356999446373614,-0.005218026362445678,7.92
-0.048677083655580475,-0.09006447179227801,9.926799486705049,-0.011610445611973323,-0.0020240939536134766,7.001164094836824e-05,7.930000000000001
0.054949273991441595,-0.17105326962539097,9.74161388354728,-0.0027799432844652595,-0.010328417931506953,0.0006584719837735295,7.94
-0.025202846633556,0.05564584466888837,9.766474339062913,-0.011973787324809533,0.009643069849435346,-0.002090721482208361,7.95
-0.019052206297639845,0.06627400708402896,9.762999790376085,-0.004428542454817815,0.013081001017310877,-0.001195090457686612,7.96
0.08603284789569347,-0.018753061056697485,9.806387557657725,0.025330268334517625,0.00029354691433874225,0.0004095006307937963,7.97
-0.13614196421191155,-0.16887785840316205,9.92024476136391,-0.008185687881324953,-0.004888656800152905,-0.006790281317047731,7.98
0.03876099275894962,-0.18640997869746628,9.752894319825623,0.017022343899037947,0.017582326706036926,0.008650487767485818,7.99
0.1306679936591666,0.07232311964496287,9.998887452325294,-0.010706665280821018,0.0016857684079637442,-0.012300784534135535,8.0
0.009238302041892724,-0.03782833033183918,9.943589959061157,0.025073060843238626,-0.002897014587079985,-0.0028610878490247706,8.01
-0.0378401991319436,-0.036769097189736255,9.695594487123678,-0.0014726910112746198,-0.021953167892152084,-0.023337556615395223,8.02
0.08911752771268161,0.10356246488600224,9.686227568536504,0.025245002326467803,-0.0008019642404333343,-0.0029635893584994692,8.03
-0.08645110051073333,-0.0784071016490461,9.785213564091578,-0.009710329297663809,-0.012972894176818003,0.008763869824854765,8.040000000000001
0.09736422893189567,-0.05570266513065401,9.715443950683882,-0.007099320318408191,-0.011171110963753728,0.0005603578419583207,8.05
-0.22240282865627992,0.10187670126459013,9.911626169620801,0.012813664381098466,-0.0019150625342136277,0.015531867392956495,8.06
-0.030411671804709724,-0.03143646531490219,9.7543617157161,0.0006910523025639501,0.00683870793987141,-0.015583291302497413,8.07
0.11934899315980296,0.07558809647315955,9.69146759942809,0.003181769603894847,0.0005177049680936423,-0.013489240021915571,8.08
0.03699352319179466,0.08492100465942387,9.762229425384787,0.016374782915951944,-0.0064892350969993256,0.0005344441432237895,8.09
0.041536946763334144,0.043277128074846974,9.869020163225551,0.009392079262801762,-0.004045703161553052,-0.009519404977888236,8.1
0.0510804811362382,-0.004878704375152843,9.798446353008428,-0.002429431952538647,-0.006457051805443091,-0.0032237927172249605,8.11
0.051157832006618734,0.1079247815471649,9.899608059620789,-0.004482843128773553,-0.011555235201850166,-0.0012653418108568308,8.120000000000001
0.004101121484391369,-0.02604471284622045,9.761619004009336,0.00715208695024807,0.009331791813022405,0.011713583770287566,8.13
-0.0433462942520354,-0.023214065498540562,9.764405958265197,-0.0030048436223213764,-0.010362343247249543,-0.0053808212336665445,8.14
-0.0007546382346704228,0.045029340480793933,9.844442412395184,0.0318790228131343,0.0003118371271575579,0.004652101129328889,8.15
0.00011867833358387347,-0.041945138929743,10.007492399981192,0.013677940711640779,-0.004638246151414515,0.0037030644352992097,8.16
-0.060450206907820284,-0.022181750138232377,9.681777118461234,0.0028002723160885246,-0.009144523855219395,-0.010196819672044045,8.17
-0.11762371810316473,0.12448905475152763,9.910385022371916,-0.007183054771903507,-0.0035350032068750333,-0.0021872382094845,8.18
0.030829027474805804,0.12749709370395146,10.022110807916754,0.007093672161002243,0.0006774212215226143,6.220556396618353e-05,8.19
0.12117967977230004,0.1088075105664565,9.9908492499373,-0.0013025836120767623,0.0008975907488754957,0.005200587510255875,8.2
-0.07372126234417033,-0.07932403904764478,9.961644309689454,-0.0006081952053768163,0.0010933889285190236,0.003918226752791483,8.21
0.015290464642821806,-0.060768498821876994,9.753173668384488,-0.009527749382857824,0.004245615582990032,0.013221786552830133,8.22
-0.12360694490935305,0.06320672421252356,9.835744629017464,0.009462135939997805,-0.0004401033433546968,-0.012225366346849835,8.23
0.07229727933659318,0.02912075413349756,9.865260075342906,-0.001573917078604951,-0.0003042417127754094,-0.00027953131824325154,8.24
0.0805254143717313,0.06921537956021077,9.778070866865738,0.006395343935853996,-0.0007314550106520298,0.017745782493948488,8.25
0.018170854311662567,-0.07756722209578802,9.72226327688129,-0.009203418111341222,0.010885453691256151,0.0052829849218827335,8.26
0.18256694229351542,-0.07826466421536991,9.733352971944356,-0.018432857107318158,-0.0059569543962692175,-0.007366697418926592,8.27
0.13523127058075682,0.003684154020560754,9.88769189124792,0.004479374209068144,-0.0011068403433901277,0.00037367431104250485,8.28
0.23406897454026257,-0.14405269704425439,9.724887579229613,0.01543168008198058,-0.008415116516423505,-0.01866713297043544,8.290000000000001
0.0332409948736467,0.1467761221195946,9.671647690667092,0.0008387470582527202,0.005759075130963265,0.001897051021958957,8.3
0.03838595461826831,0.005496544285569892,9.490597620846591,0.001400169526913293,-0.005444425556325211,0.0015374139363643613,8.31
0.029610599713546022,0.04988705794756562,9.709879444733469,0.011688760279518269,-0.002137246210798073,0.007015927910970482,8.32
0.09574799129856085,0.17657759431338957,9.754703899081818,-0.013142478557862164,-0.003521168511261038,0.00779931256767885,8.33
0.29947961841529724,0.05458938425477662,9.860033190663248,-0.0014435716493009254,-0.003288979973006597,0.0005184691958749825,8.34
0.018753068787542043,0.19308020519494473,9.717174831901586,-0.0034757633499515666,-0.011721781329866461,0.010478006854010203,8.35
-0.04234206024637126,-0.08908509762264116,9.657996652577891,0.021359910516150032,0.01540325787441961,-0.011967785412129098,8.36
-0.03898843782368331,0.03838676760943423,9.866555564966804,0.0021864181249666562,-0.009286468479814158,0.009635356449137808,8.370000000000001
-0.011013102337879088,0.13900726584720485,9.82448416832934,-0.0038981289367416923,0.0011612555717455913,0.003881147555022931,8.38
-0.004053677494801803,-0.05127023231394089,9.780014028381153,-0.002464968086880496,0.009811281377077645,-0.013623983959924242,8.39
0.14485337814481952,-0.018134021915861828,9.8028401803973,0.007866149546890876,0.017437923850369078,0.014717509596008226,8.4
0.04020422680682412,0.16081647880181257,9.71805428332264,0.016185722330692553,-0.004611043465138398,0.010293097490099387,8.41
0.07719274120076333,0.06213467871449624,9.798263646353199,0.007362123861614615,0.0007784353221733649,0.023177888559094192,8.42
-0.01102986186053951,0.11595506901890507,9.938518890243138,0.00977677504164342,-0.0068577600979462874,0.013656031252184715,8.43
0.018408581704324693,-0.2991717398052177,9.744776751677165,0.01171696862765151,-0.00926961728302397,-0.011695480490940833,8.44
0.06486897984097727,-0.15995382721027096,9.842260555098658,-0.003531220005849998,0.0010300088767644282,-0.0017678144500754697,8.45
-0.12190789785684988,-0.040419922158135106,9.77393375813136,-0.010906783186867948,0.012268059704765424,0.0037514602424130105,8.46
-0.21670569020690628,-0.15257408803788455,9.857753558541207,-0.014553354931830227,0.005035335653715819,0.011783998774801312,8.47
-0.02854991329962628,-0.15286152024577365,9.641113625581182,0.014549280528756996,-0.007792691745799235,-0.004178765086273842,8.48
0.012823806628015785,-0.057699106065522955,9.887241237873425,0.012222664113611963,0.0011107539969941907,-0.008176594572285922,8.49
-0.005338109283974059,0.021968842095406643,9.691325799823737,0.015479473687415469,0.020030439537062208,-0.0035791833313880334,8.5
0.3345352086882459,0.05524360757651803,9.858250527246524,0.0065372636412928675,-0.003863750562949559,0.0023182044020718354,8.51
0.09235125673617857,0.08609570770241776,9.729051219482168,-0.0015680399962791365,-0.004397589080409835,-0.00221298632410358,8.52
-0.0932420177073547,-0.014753367340799127,9.8718990521251,0.00317224506137999,-0.009952269804688264,0.007364065296263509,8.53
0.00010559858973186187,0.12715908254188676,9.934739440910057,-0.005235662004446588,0.0044416026653806605,0.019878302012334398,8.540000000000001
0.16274236270711118,-0.14262630076366425,9.949425852408806,-0.004434088353138848,-0.006688612582290595,-0.01876779827588497,8.55
-0.1365744633654393,0.20178741452592786,9.734381030228143,-0.007202837465895843,0.002756573549274986,-0.000627847642569753,8.56
-0.07711159133679912,-0.01663256917381978,9.794990364851614,-0.017078695144878062,-0.004660279119378281,0.02342793544172453,8.57
-0.07484579632518565,-0.004866202489741844,9.777644369442921,0.02214093545595652,0.013774119693874534,-0.016027823336547013,8.58
0.18819818554084466,-0.13418170319561729,9.825097930033886,-0.013389294183518679,-0.004203506642921608,-0.003427269352672617,8.59
-0.06664435648809361,-0.03244929805283383,9.885037696884801,-0.014839359360741303,-0.02689332364472577,-0.00781641867785394,8.6
-0.11988571333231253,0.13650249005013232,9.851384650639924,0.012479784756444628,-0.002824740360388303,0.02203836102956493,8.61
-0.055170223715725414,-0.15869637986370047,9.838195009799662,-0.0034969567296637923,-0.007202925396107019,0.013604942143308249,8.620000000000001
-0.14669587351649993,0.011531070236440802,9.963669405109474,0.005420592666455298,0.005067135497073613,-0.01021425045679558,8.63
0.13828629084660207,-0.13174585814812176,9.783549295835863,0.015901045487701725,0.0014650338289408618,-0.006268762352685746,8.64
0.17732351324328444,0.031420620085666054,9.7027282106488,0.012080742762545105,0.001765492949065717,0.014388261107202727,8.65
0.056031794719596885,0.09055732243338512,9.76363566140599,-0.006609025741193185,0.011898252679894096,0.009174625945826494,8.66
-0.08563880311792718,0.06614083613218881,9.849434792306148,0.012027360563373297,-0.010935022693802865,0.015097999069838752,8.67
-0.01494360402979354,-0.04809525991288463,9.800712164152573,-0.012410666766835015,0.004235599714202224,-0.021736153669119244,8.68
-0.0439303489839208,0.08186593294696326,9.686876580606384,-0.0026535709223943506,0.008946593232458567,0.0016653251794041298,8.69
0.05786854817548153,0.16479299777839473,9.754892972936103,0.007829078539325325,-0.0016933274180147388,-0.011563711622448784,8.700000000000001
0.0496107364723794,-0.11461124283415487,9.943828862053387,-0.005500027262825667,0.008289750506060132,-0.006042871906260053,8.71
-0.1599923569677793,0.21582038967449982,9.844941637431265,-0.0037324890028125396,-0.003853894984809687,0.011740779655619054,8.72
0.10704954795862132,-0.1994415127128466,9.933225607123985,-0.00891925222552786,-0.009789655289020241,-0.010654900161083494,8.73
-0.027407392899831025,0.08053746676533402,9.937133691237582,-0.006429878308954783,0.00814631678615872,0.006323992013750468,8.74
0.07502273140919057,0.0636251952010805,9.892911975655934,0.001732266793583877,-0.0051465346096641,0.005755103213476898,8.75
-0.06447949926903068,0.04511494079589596,9.760894801493723,-0.005400590578694038,-0.0004962435085877617,0.01896966643418055,8.76
0.06088910508615019,0.040238833983980635,9.83836679828383,0.004919785185691318,0.009304770260936407,-0.0002795020222264807,8.77
-0.06675899681889853,0.06780538413847788,9.650646801667444,-0.008019616464689064,-0.0010122630567774185,-0.0007595346644730631,8.78
-0.11620958262307685,-0.24106442590753177,9.655652669579192,0.0020576045619289302,-0.009976962273472143,-0.022341592627924914,8.790000000000001
0.08352053189926485,0.011450101063659086,10.032763780455616,-0.010654485243115493,0.008905828297536859,-0.02305583867006914,8.8
0.11821918504303744,0.06655238615462064,9.83356205750676,-0.010148373223135485,-0.024133454285967724,0.0026460718680818185,8.81
0.15006252200993347,-0.009131781887115152,9.759451384038798,0.005897765757845504,-0.008595845671221805,-0.007272002938778763,8.82
-0.013709749249382813,0.077373988826501,9.811211080734303,-0.015682782088840323,-0.021245162850969328,0.0113090757268769,8.83
0.13696830299289706,0.06843542184665181,9.830803061159559,0.002343966539124378,-0.01426416740337026,-0.0027043953676249444,8.84
0.005929762077862388,-0.03140419835077584,9.74472435149616,0.004382858755574268,-0.013494740714510433,0.009634801141570426,8.85
0.049925467102857946,0.08617308369695402,9.937332099073295,0.014932827895349412,0.00965462081659555,-0.0038696134801971807,8.86
0.037749540332498305,-0.04378953383072992,9.86689756329723,-0.0026006060470289316,0.004301466889893114,-0.0029220613686770183,8.870000000000001
0.01661002698646844,-0.0465798534654417,9.880651881362663,0.01657548675522705,-0.0055036840831569605,-0.00022290515370199324,8.88
-0.030472780326173083,-0.03974461863244517,9.860019961172123,-0.013523088482655455,0.0031324588452598828,-0.004820099899725798,8.89
0.031207773866737527,-0.06284199237618913,9.740851949956443,-0.016719364736730438,-0.004103528781119248,0.009062752082341693,8.9
-0.23343673080450822,0.11363379580120597,9.736460835497963,0.012595822610511492,-0.003497000729821848,-0.0022261810551333135,8.91
-0.05218756475690525,0.08805088894937446,9.729334583170536,0.006329802524216241,0.011270013850790041,-0.012123231935486353,8.92
-0.1050020824594634,0.05703588674783036,9.847897406444103,0.004590861730396639,0.006240341153700189,0.009028213516149694,8.93
-0.019680495896971642,0.015345826218595045,9.955641640006554,0.0016613964622248236,-0.007559481087448959,0.004639534675845112,8.94
-0.16341295501248085,0.12720006638247042,9.638884730859019,-0.0012454231755451555,0.00037011506471254594,0.01081207702293276,8.950000000000001
0.04762673729951285,0.04495867914686753,9.766131289072053,0.002426895018454701,0.0017103590718341867,-0.010255926850785918,8.96
0.022833740447761708,0.0013793407546834834,9.830573315465658,-0.008399026216082055,0.011276961644085242,-0.00332481235279887,8.97
0.02097761745106203,0.13142108294334223,9.908049551606172,-0.004544698631828221,-0.005500752903043834,-0.009160090289204779,8.98
-0.03698167226698464,0.05466476743703344,9.766279064426325,-0.004280825669339723,-0.010436165748399949,-0.0021483398523056275,8.99
0.03595213888355312,0.22075236913460441,9.681520754715088,0.002817235090898661,0.010108131530344183,-0.026448947664640274,9.0
-0.058517288220558496,-0.015305434950244078,9.945614199296939,0.010003530198088575,0.0016813087591123703,0.018662852322613215,9.01
-0.08184679553235358,0.031274681833868744,9.575639515581202,-0.0025781199767277146,-0.0019138832396147594,-0.012427697193336107,9.02
0.09977051010230892,0.06285120561748596,9.824403499326682,0.010835327423382706,0.01027692651563338,0.015644672492559967,9.03
0.007734388214327619,0.037349570523706535,9.757778461707016,-0.005770786606818921,-0.005172440502196998,0.0026142259656744744,9.040000000000001
-0.13124477968529633,-0.0021961475107273153,9.730014845244586,0.010333639837194356,0.015196836729776104,0.0022437660780319168,9.05
-0.0677312690776135,-0.01827669634837629,9.918037047130994,0.004327346629239343,0.001497408564681997,-0.007607495492520336,9.06
0.01584766873929358,-0.012928894429538122,9.833063317052005,0.01597399497305257,0.017744111793533697,-0.0006917230294957339,9.07
-0.09184598245158705,0.11542493925857861,10.048542188474993,-0.01600258071523163,-0.009095596342433301,-0.019983283337634918,9.08
0.0388755294073283,-0.008653630212077223,9.718563849094492,-0.00397341172160686,-0.005422265389428066,-0.01002413711747685,9.09
-0.02281534229387057,-0.018614295276355032,9.68981910826846,0.007834814735050039,-0.007116724320811811,0.0009926386384390112,9.1
-0.10914211060428206,0.06389740057863177,9.940377400069336,-0.0041492537699250615,0.014163336850275156,-0.0005726498124666752,9.11
0.0890654717452827,-0.10530083077736418,9.852001378030428,0.012219754521181889,0.0058858584921571665,0.015025952592750505,9.120000000000001
-0.03343985501174225,-0.006414406561178816,9.835202521519502,-0.009396368067178171,0.0024170959859726297,-0.013452922154213596,9.13
0.025480487376347144,-0.20256068954233208,9.876154391797298,0.005152749604233096,-0.0031726442516667,-0.01588493900242356,9.14
-0.02513109745023481,-0.08029386644357907,9.753362161378114,-0.018313551114482886,-0.003174080706000843,0.014550657911692895,9.15
0.10149414182239412,0.08459282597599835,9.949798006800835,-0.006878901274656889,-0.008897393380376302,-0.0049397086314266845,9.16
