ax,ay,az,gx,gy,gz,timestamp
0.029338829636205335,0.07719874133381853,9.842935337701848,0.0048006480274606815,-0.0010691018911913783,0.011752677750041974,0.0
0.05031426095063725,-0.08091757144463935,9.892903348925955,-0.01295223135192083,-0.010581742766624512,0.006877559045906247,0.01
-0.06758431257160956,-0.10812657652957287,9.726091580914593,-0.0046125024012136,-0.006957410502477993,-0.0024510490177594687,0.02
-0.00953474535490892,0.1057636650026626,9.952104339919481,0.014988472939572195,-0.0029674801784614568,0.008042499402792704,0.03
0.02908126164886184,0.04321638822874667,9.933541425242002,0.017343303651179188,0.0017659350269954592,-0.004179131054733065,0.04
0.10036177166601995,0.04230339667574165,9.79999178138599,-0.01127944773668723,-0.00033776441125315203,0.016911747506768448,0.05
0.08732054713429749,-0.11591094611085116,9.907158261634828,0.013327233982309306,-0.0005478645440852049,0.003377228332084479,0.06
0.11253815320595464,0.004490445492763931,9.834326695547523,0.012067641440723254,-0.0017026910847777036,-0.021417141497003207,0.07
0.0076514860992711806,0.12669980506036616,9.744754302068038,0.0008500884095179437,0.006924152860076109,0.0029030606642223506,0.08
-0.05547053128082441,-0.0763909014764474,9.802327433221912,0.0004888328994946129,-0.018258694924164834,-0.004192612718378901,0.09
-0.031614240315988654,-0.09698025905302898,9.72964810343546,-0.0061840366124037375,-0.00964500101355573,-0.0008797420560249904,0.1
-0.0026090606940092774,-0.05147978445204096,9.8619857986526,0.000654220406864046,-0.0032454931475982113,0.0012293680409399142,0.11
0.07237519638707765,-0.021805067601128367,9.851755887678772,0.0027651588608467925,-0.007497484096615223,0.001440890780620391,0.12
-0.019884028739392982,0.09387911481609704,9.676363794850554,0.015940403944750083,0.011395382602929154,0.005259167550757669,0.13
0.22699414724717368,0.14691751071200732,10.034717515758004,-0.003261284975536248,-0.005515091494367403,-0.003848189572469315,0.14
-0.17209776966039386,0.011026794627556624,9.737306963676128,-0.007802749150711092,0.009457111860236407,0.007151700048993505,0.15
-0.24989895335514578,0.014726019250149464,9.640723962587732,-0.0025224589913568174,-0.017636361238210777,-0.011740087829283383,0.16
0.016558856784528283,0.02601678522080471,10.01370001924054,0.003928522828024677,0.013337486455236372,-0.0005230179766165225,0.17
0.055835612239505776,0.1463113555878869,9.932460648310137,0.0101190524293536,-0.005080318229539886,-0.013470077348914096,0.18
0.005674158904168648,0.057277569249832974,9.865198418988314,0.0019377471680984484,0.006115921377791337,-0.007001099244970781,0.19
-0.15002406151664036,-0.034599742926004005,9.721734605206331,0.005006142510703482,0.012708759882587642,-0.007248786333892052,0.2
-0.005770930265164903,0.09633397241255336,9.92791757489088,0.002180477154848579,-0.0010034831443170387,0.008552911707752756,0.21
-0.063192594578642,-0.004531422432965585,9.75715026591381,0.000899184471518037,-0.00897763355348558,0.005955745745824982,0.22
-0.07278434412557971,-0.006947963008443064,9.719177502727987,0.009932996038975864,0.007036482471982879,0.014032703441525844,0.23
0.03176579319739153,0.043935822138510355,9.54925677331539,-0.007880063670217194,-0.007593824380547214,-0.006895785967277497,0.24
0.11535441533520992,-0.00030429235254117773,9.713402604377015,0.0047525785168338,-0.01704897213997491,-0.0022193388149833186,0.25
-0.13751544497567833,-0.10940339974281635,9.878124525874856,-0.018763313001844834,-0.011039084304584461,-0.0044178448867368625,0.26
0.1262171301158537,-0.08112639378060596,9.875763616802924,-0.010035137182915323,-0.025886738089599706,0.0030310818494796777,0.27
0.037543496465675466,-0.10864380038229533,9.76150119026505,4.056159972680206e-06,0.0002290863210917002,0.008769311185961056,0.28
0.1365305902203788,0.3305433234924131,9.798892560456746,0.005423738114803091,0.0008936669186512545,0.004641289948691905,0.29
-0.1031930710067161,-0.07561127921387424,9.692473291172144,-0.01714860743344864,-0.0017179452794968916,-0.010031417602728764,0.3
-0.16630268457223585,-0.031716614613176757,9.838440639777124,0.01173749206899656,-0.008280147661374828,-0.012796088662082374,0.31
0.2505174120828923,-0.14357737774060092,9.990537387657374,0.013771012976224125,0.000413721256695041,0.003185551276140823,0.32
-0.05242433506445365,0.07866209614791034,9.812093453713475,-0.014794260540699251,0.017432304281363938,0.010032807413073134,0.33
0.13893800200792422,-0.07425264404697504,9.725762940683909,0.011344805342609262,-0.013191602468430654,-0.005972546146796251,0.34
-0.09604360658471865,-0.07812261401283101,9.808785959943046,-0.012096812004144442,5.480939837122927e-05,-0.011709879689406358,0.35000000000000003
-0.07809185604618714,0.04214851408772659,9.776995445898365,-0.010981697476267883,-0.0038312322309672375,-0.0008142337751128275,0.36
-0.14360513413812326,0.07106899542639238,9.715038437340514,0.007970200136474094,-0.01878934828587182,-0.0013983130067729665,0.37
0.04805511522860431,0.05082459470363994,10.02669131233068,-0.002372117862811774,-0.006900458338127285,0.01159157214271225,0.38
-0.13768667924306013,0.07516074034369913,9.874052442657831,0.009384498376189687,-0.0015068490851927522,-0.002176216180861665,0.39
0.07120474770977224,0.038369356115264985,9.934456134311246,0.013181060580839059,-0.005510522392852913,0.007498075727757189,0.4
-0.08455490455255281,0.04116074212892073,9.934384378831824,0.006267508258169867,0.003797701864383053,0.014431393548977026,0.41000000000000003
-0.10076984021021451,0.004847587455832883,9.963511959889743,0.003230503425624301,0.007194087720706934,0.00581932426872502,0.42
0.03297963892973641,0.05781424962938469,9.763662942416007,-0.014235479498178086,-0.00983883023383236,-0.001032322585129428,0.43
-0.06261821855689453,0.015820238476035385,9.929242885907907,-0.015585265862279941,0.0010473771248020233,-0.004942876675354236,0.44
0.06777207375285303,-0.060618806565583855,9.833676718774448,-0.0009987401348007636,0.015496507981685488,0.0011594366385780375,0.45
-0.1414047247903841,-0.09306627514309142,9.78307309249146,0.0008757783431573939,0.0006724995504867788,0.0006328463565783229,0.46
0.04151673294238869,-0.05330238793744611,9.751840974283757,-0.020645788724340898,0.020627828175633564,-0.007297136877187043,0.47000000000000003
0.08305122928950884,-0.09523145005507684,9.830284861514482,0.006444627044597574,-0.013966802772823908,0.01775031345390696,0.48
-0.0974608453501353,0.11664354930586754,9.63278987708522,0.01661997897461533,0.008947434167132706,-0.010806338838111065,0.49
0.18518309087332674,-0.04209046132743455,9.755757134321925,-0.004510581461262136,-0.0005790433680355117,0.013590385400978122,0.5
0.19684667318808546,-0.02946550843843583,9.895820511381359,0.0026971332963089275,-0.021286476866713068,0.007486779051472626,0.51
-0.04606615505925182,-0.08975097209841107,9.689591307626976,0.010775139939927587,-0.0009772914507220549,0.0069451316732715455,0.52
-0.18679532060153695,0.004411407134729866,9.733158370660666,0.01031838657330472,0.003758330194517379,-0.005348954227846306,0.53
0.1012243431584987,0.1306785598995908,9.65046117686753,-0.0006493680074706999,-0.007413205054945299,0.010607169470109033,0.54
-0.008196241291017325,-0.05760222042876204,9.72672487174053,0.01254846808722435,-0.003937146409090416,0.009344377516078426,0.55
0.09167417884648792,-0.07578034224282948,9.769885113684104,0.015555158357017687,0.004583112792334649,0.012044811674262577,0.56
0.11503462311127861,-0.22647443468227912,9.949423283103426,-0.0026668322242247894,0.0120701664606124,-0.0012047509751158011,0.5700000000000001
0.06591649805752052,-0.002615964815633793,9.691745369248098,-0.0008548625631139214,0.026219270442724433,0.006695871100825475,0.58
-0.0012336780322292377,-0.1558932334331676,9.66245882359178,0.018181848099058748,-0.010321512167477944,-0.01654576356129851,0.59
-0.0025979402476000776,0.02676179147637003,9.805844547031107,-0.011391581325510453,-0.006109248926648041,0.010407255276762653,0.6
0.030435050162864907,0.060855774548283864,9.84092525549874,-0.006381670326011456,0.0018479801501105144,-0.010834448978249681,0.61
0.0007800323991318803,0.2526472540085129,9.95204941058286,-0.019345232131178287,-0.0007748495689677312,0.0029858483036638234,0.62
0.15182184281168293,0.014212786591891461,9.843017518824093,0.0029212753927887448,-0.014396616695058234,-0.007694712886542194,0.63
-0.1962188385601205,-0.18445182292461573,9.618357275155144,-0.02414377318060374,-0.004194784528236245,0.0028535620538479595,0.64
0.11737127456950645,-0.036382661053969194,9.621561471670121,-0.0030245837666052254,-0.006328026475587682,-0.004909706007792685,0.65
-0.03492090834305588,-0.13729491001023125,9.788283479031486,0.016120159447790466,0.009400385995116554,-0.008079781965360413,0.66
0.1142595040342903,-0.1730067197226183,9.995242206915487,-0.00598720978590838,-0.00603853435958375,-0.00039817901818687504,0.67
0.12560145581933965,0.04036863745366985,9.66804243867858,0.00982812215922683,-0.007315507190207951,-0.01723671943297064,0.68
-0.1600600580922823,-0.01287691661620994,9.80906010842833,0.010157868538627523,0.01590527333843996,-0.020807650591596127,0.6900000000000001
0.012298218350548765,-0.22703912826136646,9.765255662620898,-0.0158443591713,-0.012941992451805629,-0.009833610830778458,0.7000000000000001
0.04055929300876276,0.09936318179501617,9.750354341642423,0.004574038187949507,0.006813143256005406,-0.006245762700474354,0.71
0.01918366040237253,0.07391441314917144,9.723599687162668,0.019573730657211044,-0.002412850468019341,-0.015456782048334002,0.72
-0.02293935909268917,0.05261404093288811,9.865897091645767,0.01186077616468885,0.0004191493725756395,-0.001973285715551684,0.73
-0.00031515228334422766,0.044160711557144135,9.806371830853434,0.013186037222317837,-0.01068616778609641,-0.002520422475305391,0.74
-0.05924507280317459,-0.1300654686321979,9.85760145280536,0.006998890631966958,-0.010864704065620668,0.009514247720905717,0.75
-0.014834452549453456,0.10107934536314851,9.86044064145151,0.017105354529036162,-0.007556115723813391,-0.01268119264031963,0.76
-0.12250797530200846,-0.08528266619867064,9.83715468653715,-0.009046066738678017,0.008193804497992521,-0.006029107301873616,0.77
-0.10891755010480589,-0.10946406330189429,9.86965126915937,-0.009789676773170851,-0.009553874563962155,-0.006952261304700662,0.78
-0.015263375218072354,-0.17478813899775492,9.668395679899545,0.009639769897921289,0.008334251782372444,0.00916785395538486,0.79
-0.04268828486097017,0.12116795561262927,9.77824776366802,0.0003262669202654627,0.004476136589126421,-0.008199171353418518,0.8
0.0503073161722047,-0.06071267722129146,9.865103124377328,0.005032939732134704,-0.0010876767654778212,-0.005533023201830935,0.81
-0.02029355456106828,0.03691489034121146,9.854737645680755,-0.0077372990071873276,-0.0032052214912030312,0.0012949714288151665,0.8200000000000001
0.004232207522850434,0.14159889642386464,9.808531956899408,-0.009746205405308893,0.022076424175059905,-0.0004244608816642864,0.8300000000000001
0.0009758520309496098,-0.22519783574237048,9.747534307645465,0.019144072963407838,0.007732075527810525,-0.009513368165587214,0.84
-0.06740003924480635,0.028327993106486073,9.64882709807974,7.248384820182044e-05,0.0012541113325556874,-0.00498148134389713,0.85
0.2275653006068628,-0.15780833510345815,9.829662047415672,0.018271328290865897,0.014018614550712143,0.007929233001250303,0.86
0.046367441801260414,0.06452919285571727,9.457407998785717,-0.0063661786265200165,-0.014339571837069185,0.009703948863633795,0.87
0.07063439967794799,-0.0012507405077835404,9.82209712413722,0.005345751372015219,0.013564381912700936,-0.025283126879212064,0.88
-0.11044378406250195,-0.032864621514515684,9.848587822126255,0.006868099731489303,0.0028573750838444055,0.005188077657754713,0.89
-0.026146765945925354,-0.07838907130146029,9.867425453103271,-0.009917560514959987,-0.021565652425530626,0.003214341135290801,0.9
0.012376135720464003,0.034720911669848684,9.619393933217246,-0.013535851199026033,-0.00324883801020066,-0.006018187386311082,0.91
-0.01078233147898739,-0.14391759728018821,9.619964965464817,-0.004859979389825363,-0.0019623669516075017,0.005626963023639111,0.92
0.13471737631581754,-0.14581432697070845,9.813143832650686,-0.010770601285431163,0.029698575015160315,-0.0010192693626249474,0.93
0.07344524753400239,-0.08950591219713608,9.894052125865631,0.00037534550523646884,-0.003357092735764934,-0.0009478234724106364,0.9400000000000001
0.05657768534646597,-0.027244616441741778,10.028866505144732,-0.0027792572392985023,-0.0028123201372304563,0.010529794760802607,0.9500000000000001
0.02299901108453807,-0.025724911299069043,9.770264598166712,0.00011841137011769756,-0.008934524607302102,-0.01512982046817385,0.96
0.07269663692235123,0.13642746118353097,9.60981446351138,0.016646725856283923,0.0017393026825401493,-0.006870156300339351,0.97
0.00021263137670821951,0.05796180353495792,9.768794009832558,0.005239524357248369,0.026209121744836972,0.013483529039678145,0.98
-0.04742529362370164,-0.012614628329069871,9.814977573669788,0.004589711799179201,0.009665185808270464,-0.0037230701543322802,0.99
-0.027889462368758645,0.1770974618960991,9.839338973788267,-0.00617597426961495,-0.001980995829294826,-0.013050123642345543,1.0
0.022700714891326277,0.03883353131982328,9.742378762056225,-0.007427611806701583,0.0054320321761966925,0.004540866068432887,1.01
0.04548467395405728,-0.031210116596928628,9.665839007297997,-0.008159726993846157,0.015083112532379879,-0.0002688266971466522,1.02
0.06731016403944858,-0.08378934975163978,9.853345984787131,0.014868095792696441,0.001721962518098831,0.011096616485541807,1.03
-0.0025300960635578043,0.1676583780299269,9.650820326250702,-0.00526424178417842,0.008311794814084882,-0.007843980146647151,1.04
0.027150922610854195,-0.1105170604816951,9.694850314088022,-0.001694557067095357,0.009006736048412683,-0.007863051507000686,1.05
-0.0552155031968524,-0.13093113742737372,9.887216353240602,-0.026868491421965023,0.00841515936294713,-0.005943041144614366,1.06
-0.05730370086428534,-0.07489653608811701,9.881823923723088,-0.014125959277614668,0.006378392322756712,-0.0022485948071872546,1.07
0.057857026698060504,0.03592476713013697,9.789054056769913,0.0035207024865017774,0.011365833483913903,-0.012524870101061304,1.08
-0.10827411965864984,-0.0031903520623377743,9.949343276158354,-0.0038396950216228872,-0.0010879500843741195,-0.00016959170431888958,1.09
-0.23014364061674392,-0.04156221988772474,9.809283523685377,-0.02407573084572318,0.004705291112035082,0.0002861496191738975,1.1
0.08421591655120925,-0.06530849803462001,9.905326315490841,-0.007504599947389027,0.01108469627047123,0.004352052886521962,1.11
-0.10576166545071655,-0.061536131739164814,9.830744183727813,-0.026886106662312344,-0.0017666501495797332,-0.011266576177655497,1.12
-0.17738675471241042,-0.10129654898480484,9.842583806478755,0.002625029911579509,-0.004130067070628806,-0.011189727540847048,1.1300000000000001
0.1695396689683836,-0.1254642651762658,9.737695183029565,-0.024251202795788376,-0.005186679783068522,-0.012976243070570903,1.1400000000000001
0.041129912687777714,0.013180956131905284,9.739313129430377,-0.012144483406145583,-0.003195246798415963,0.0021325927962738034,1.1500000000000001
-0.09639625077650521,0.13473367060415842,9.994208397746679,0.015152290910466508,0.009386975352886441,0.0019446593575401206,1.16
-0.07039424884685375,0.016658732592096496,9.838065821311885,-0.02965707208562929,-0.010245297297668736,0.007251206655947022,1.17
-0.044222239556676556,-0.011861935905019886,9.829557831421281,0.0020315355717969237,-0.012355045487914568,-0.007389355993638337,1.18
0.0027709295505228384,0.037041787625745885,9.774246849281832,0.016900498627435846,0.0013113989066097587,0.000712389215377197,1.19
-0.04287932172841496,0.14128792582552074,9.744808415760538,0.005773998730957035,-0.0005305822892020326,0.016416918214550512,1.2
0.1750067629812465,-0.057399277350763424,9.619494444656791,0.008232088262621989,-0.00832475333932157,-0.0017115713442857306,1.21
0.00397381690180407,-0.01409912775983193,9.783087615543879,0.006591882717375378,0.008259480238956072,-0.01248625927718482,1.22
0.042370119065560374,-0.08993421804125606,9.723027619274896,0.008236404411133342,-0.0007170790315996252,-0.014062224935007814,1.23
-0.1538294790159182,-0.01818802415212532,9.544213755446373,0.004677565938435243,0.0012457252781944497,-0.007102414319405523,1.24
-0.02181903150681372,-0.06672986822201449,9.796501930464535,0.01538986914210013,-0.007721847295635506,-0.011966136324919177,1.25
0.0862222072813717,-0.06376675784362879,9.922366560331197,0.004077820059098561,-0.015669889200869983,0.00017628110228342885,1.26
0.11114482247812403,-0.01875032125623974,9.793630449698385,0.009954684423378409,0.005009141414825309,-0.009038003596892712,1.27
-0.06957054984203116,0.10266335220375518,9.94950059114626,-0.005664363444286552,-0.014694745929135253,-0.009186842173309966,1.28
-0.24358066273971213,-0.04158051743184142,9.853394268282065,0.027553701434923066,-0.01448945262209533,0.002038473001790767,1.29
-0.020700480412117202,-0.0839853312181538,9.851273997198682,-0.004987262604369749,0.0011502488568409421,0.008412195865363403,1.3
-0.00042871670899101937,-0.06777668661997906,9.765616216490498,0.002033420352569781,-0.008363568181073968,0.02146813301455763,1.31
-0.20733211196874868,0.06299790572702568,9.794427805065286,-3.85003645865599e-05,0.026676813193127775,-0.018383825505106213,1.32
0.018866178645391835,0.0373031216212874,9.931375438584938,-0.0017359645233495534,0.015123015132135246,0.011420376219886659,1.33
-0.025926745403448415,0.12971438385674489,9.819049849165886,-0.002157180711559266,0.003022578364899329,-0.017471399158067443,1.34
0.01521165542990283,0.02181149322262657,9.934170250007208,0.00043737195179208366,-0.006061653047683705,0.012381456140649713,1.35
0.12758244652915104,-0.007881046592458077,9.726294931621508,-6.328830002912907e-05,0.015715961725347227,-0.0012426114321727685,1.36
0.0228711528940714,-0.19292271313441334,9.751447650246913,0.0016555359555752264,-0.007114841807288648,-0.008895185251745277,1.37
0.03406566259444171,-0.11821234591659596,9.705569332935294,0.0017064892438438308,-0.009644726277571474,-0.005789465595211806,1.3800000000000001
0.04536630527316624,-0.020660646316524423,9.873864263645816,0.014048506042838069,0.016344910360461245,-0.00267542372743632,1.3900000000000001
-0.1393191055286253,-0.011146241076622626,9.689378081726636,-0.010673140974094974,0.018592590263663104,-0.005341308041422353,1.4000000000000001
-0.022313928161316485,-0.047802960334565534,9.880328363453886,-0.0007060312919355311,0.0042407468892851395,-0.011699443247069877,1.41
-0.10653979911098287,0.024330005947696534,9.680075195347982,-0.014553365574553676,0.011984189953762034,0.0028085125620325047,1.42
-0.02476202310382461,0.08119919119881865,9.94538004938721,-0.009853081297715834,0.01252539497191648,0.0005032268160759367,1.43
0.1369618577193494,-0.18426246219939735,9.736155752237751,0.007070600497572667,0.011966370015148692,-0.007889794360948102,1.44
-0.08128967590621741,-0.11877452855566457,9.917771016679206,-0.007337422308629388,-0.005116575651307139,-0.01305711081449096,1.45
-0.010422763311729978,0.10371333229913592,9.959548827835183,0.00042928237220166853,0.01673590021966515,-0.014106248202480708,1.46
0.043406630617397836,0.11009175959354074,9.633065850806657,-0.0015607184451537216,0.0025237056920402634,-0.01808326834578301,1.47
-0.12224679541819493,-0.10582407940274018,9.958438884682012,0.002788062305663473,-0.0010953116566644666,0.00125576510176254,1.48
0.039320709075425446,-0.04572192111734913,9.822636823048935,-0.0030208549115584987,-0.008910572747923116,-0.005644387208142662,1.49
0.13077572200616858,-0.0025410879468786038,9.805431731033401,0.008504169796145527,-0.009656815199557866,-0.0025668418624999003,1.5
-0.07814270809658787,-0.03496899302841271,9.759314604003771,0.003535461047775945,0.003660179311396771,0.004596382881130255,1.51
0.05848060756643993,0.02064510148461211,9.925954376745024,0.007549939154639227,-0.002621085192120666,0.008240480664374352,1.52
0.003691479865542252,0.07947555140418094,9.937827978238786,-0.008928244077336764,-0.007659954191808526,-0.006115442748249267,1.53
0.00030292898274118926,-0.07435025461421539,9.78406203927022,0.013114088210273753,-0.0009825690327068721,0.010921100269408764,1.54
-0.0019265261944895055,-0.00261407913972541,9.825003238538704,-0.007703373243672609,0.008893103068454531,0.004403794954998353,1.55
-0.0246862291835468,-0.08862527437290593,9.842870044464004,-0.008597767751758262,-0.006312532496398553,-0.008176449049189492,1.56
-0.29188362290715514,0.015452412258911584,9.933497977806464,0.010292976993100564,-0.0036865686013636033,-0.008791227297302993,1.57
0.10306787147078181,0.2055054152272589,9.807989780281321,0.00014896948947243583,0.01455423011641334,-0.017731324973603534,1.58
0.09194011490822722,-0.08885994919443502,9.845300289514128,0.013015192018329656,-0.0017017533400776649,-0.008343626867658327,1.59
-0.13664938712546934,-0.0010249571924469897,9.891521068077838,0.004333346781379656,0.008885770182944017,0.0187408542203152,1.6
0.09469137348652437,0.044129204345860686,9.819224932479429,0.015135924170842708,-0.004043804509253006,0.0035646349941083635,1.61
0.17211863207375433,-0.01742225420492825,9.782090684024642,-0.014968790991537279,-0.02130306346657659,0.012650450504589945,1.62
-0.11051324888097279,0.08505392319566316,9.896279767145769,0.0059208440849188885,-0.013752249868271112,-0.0031778743695203473,1.6300000000000001
0.19165065755867716,0.12474860307124283,9.817319143325319,-0.00208996451283059,-0.0004886380625596642,0.0017051082928888684,1.6400000000000001
0.09853150545164066,0.03664399765903605,10.049144073146042,0.005739934771463029,0.007219146798437258,-0.006187148227674893,1.6500000000000001
0.027518955648790946,0.02977042606616259,9.73718199125422,-0.012063967412998177,0.01822110115156744,0.00972893549899639,1.6600000000000001
-0.05408822640338438,0.08905374365420843,9.917052341714758,0.005745893041967113,-0.009549680200705941,-0.005161665957209386,1.67
0.008704643736609485,-0.16477784569802723,9.82137428378518,7.491421639812886e-05,0.021322032537147963,-0.02300143385583415,1.68
0.03593763298465613,0.13176455187599398,9.63202216030713,-0.0017551739807119755,0.002966039515258074,-0.00020083283869882243,1.69
0.06025024535551008,-0.016617348583542187,9.793105979974015,0.001639583244809484,-0.02328411609918579,0.008243194168949194,1.7
0.062074166025681755,0.06320768658126542,9.942357174882108,-0.012046355141977041,-0.00383158754347457,-0.0058394828382601184,1.71
-0.09090804210048567,0.048135053611620134,9.682215727616228,-0.00768658995594626,-0.0011382464228283716,0.002857776727285901,1.72
0.00716950165334747,-0.06446720500613727,9.85902393739112,-0.0008889552988797745,0.0035887908631569293,0.002906297050961148,1.73
-0.18129937434930724,-0.021052479751851302,9.98464648533236,0.009227165792183797,0.005700392993354857,0.005618577801048369,1.74
0.019095047454684287,-0.09238188345441677,9.953548425731134,0.018465226601384867,0.0032863725764357716,-0.00023668139589535128,1.75
-0.0425545418363421,0.06387417856426679,9.743245213597048,0.0165482910526984,0.01040905821249081,0.0027246819446711834,1.76
0.03934836287583623,0.09063847376984019,9.73768306354462,0.015816427892752876,-0.009537274402972624,-0.004938030062741932,1.77
-0.042433738132041945,0.05064450197641316,9.834880087423182,0.009536291812299733,0.016149511729049458,-0.014248199813305745,1.78
0.05023795288965352,-0.2273896761072372,9.998997849097382,-0.014323565553182847,-0.015692200339268002,-0.000751672158320763,1.79
-0.037300592537552336,0.18589703455437945,9.919352732088491,-0.005244082730812761,-0.001878938424817166,0.02488238856602055,1.8
-0.012337039114457523,-0.08821039514991058,9.700015726355744,0.016695692213427725,0.01608196629499074,0.007769772249490763,1.81
-0.10874400684406327,-0.07785024576521542,9.999423300382956,-0.005797310226609322,0.0026278582832760067,-0.004729331804989944,1.82
0.10706275093043525,-0.030074893045622383,9.865880391824815,0.0009582643901027577,-0.0032498380774544007,-0.009344030056163351,1.83
0.02039556931497996,0.19872049101953992,9.73894689844048,-0.001030130437875097,-0.0035327444149416062,-0.018779818387647116,1.84
0.06192560438945937,-0.1573289178092192,9.785334803257594,0.011101226378283731,-0.011172992305002483,-0.019800080488057047,1.85
0.08038784314137182,-0.017658544407700677,9.660846991915783,-0.009519491505526417,-0.002696591633390471,-0.009406637418238635,1.86
0.043358701024632205,-0.11351574601342117,9.874279311023566,0.006398761062158673,0.009359553450228363,-0.010218619652122958,1.87
-0.03462597446756823,-0.0605148413104202,9.876848940870653,-0.007610597126106812,-0.005356594838748023,-0.004008332802748924,1.8800000000000001
-0.00792396344697705,-0.1415310987979987,9.876936585365502,-0.001575160715901576,-0.007114135383126055,0.008839411434937253,1.8900000000000001
-0.11482685263322351,0.027044370534202264,9.847795818659225,0.01974562791823587,-0.004279537619381921,0.002814031593727379,1.9000000000000001
0.16848034593501393,-0.07265331984417762,9.843251519772947,0.0017659691101388566,-0.009296959562708797,0.0021184792110209654,1.9100000000000001
0.0748018310437162,-0.11512919081159323,9.881297291877988,-0.03332165627210897,0.007131860038432327,0.006235541493351548,1.92
-0.08262950399956316,0.03639850102407988,9.826352291454244,-0.0009352011239357839,0.018057405351183154,0.0019586626352513783,1.93
0.1847762648713409,-0.0658925794323285,9.678538113920002,-0.00529666431065669,-0.01232053793338499,-0.0039179839492523095,1.94
-0.10543133755077819,-0.060781493860784054,9.745504527584666,-0.014472304616079696,-0.017444993303447568,0.009467484910022061,1.95
-0.02738371224346648,-0.13879512686328802,9.911863786805233,-0.002119650260947704,-0.00042539321687718747,-0.0018281844691070562,1.96
0.13266939992027657,-0.06209059642965599,9.842655063698212,0.019396419244972533,-0.0016153403528798233,0.005117263325404661,1.97
0.015883487846736735,0.019082995878112127,9.68455790214868,0.007801272551320767,0.0022757201078797413,-0.004236248057943543,1.98
0.17238667320017165,-0.024603137529965,9.81212227465689,0.004142539795458858,0.001224177170139054,0.01142179093691233,1.99
0.03382554226124913,-0.07243625259448468,9.85145124200136,0.006760786445233381,-0.00438644838368105,0.001132062360378243,2.0
0.04955935616092749,-0.09681939500081793,9.946892245390112,0.004773543577213467,-0.012920710958488974,-0.010039397817052298,2.0100000000000002
-0.08451524086056317,0.05177110166048632,9.602905079855558,0.004121818808054966,-0.007642433704408072,-0.006420631046441197,2.02
-0.014920106513776522,-0.027784733228819164,9.854405211114688,-0.0002521811041060297,-0.004560943126006725,0.0012983139152479652,2.0300000000000002
0.15273445376925968,0.09142575732355648,9.927378588155998,-0.012744473559175733,0.009608786256396527,0.003718609409099946,2.04
-0.166301813371225,-0.027405510124843137,9.622139826654639,0.0067848522667888315,0.01870063824841075,0.009626536683155868,2.05
0.0023162658258429345,0.06237829484095785,9.597021712486233,-0.0209350832066084,0.002597283950067465,0.0027740850975356817,2.06
0.10814944229047813,0.12692179502397558,9.801889153822405,0.004127560678454164,0.004228482607655107,-0.009769602902016197,2.07
0.015568791325992513,-0.01900505978345376,9.66228823419777,0.0017482697039009711,0.008398477174116264,-0.0006522840278768803,2.08
0.10283535185402909,-0.1641079389082086,9.787602816984649,0.01372491052746374,0.006897097171282629,0.02103084375700695,2.09
-0.035496955050740145,0.004744559519950846,9.884535143938333,-0.007658998984543037,-0.000560647795316877,-0.011472076893666878,2.1
0.04662461134313582,0.07224354870639359,9.682998727827588,0.0011561429911058254,-0.004885954320413013,-0.005252380696746051,2.11
0.020883602592668027,0.15496330403866074,9.832210826009106,0.00551613481064943,0.02471532892592598,0.001778070601610515,2.12
-0.052994136625157444,-0.1279956446743584,9.921350072837607,-0.0001534447228419569,-0.003852221492258115,0.013525458503687818,2.13
0.12986148572774667,-0.07195207079779288,9.785341052811894,0.003306051765612147,-0.003385976936942623,0.003774672119674705,2.14
0.1140721334658475,0.060771373878814185,9.618933701820596,0.020699866130326768,0.0031707166337809917,-0.0133918075238184,2.15
-0.08001405798659766,-0.14817444425400586,9.877092229768584,-0.00544867996206361,-0.0006133642519547698,0.007580027284398401,2.16
-0.1346255665922005,0.08592468022144831,9.739935916489863,-0.00575579550709437,0.024752038946494852,-0.004211132949668962,2.17
0.09981912036503227,-0.06909822751917079,9.76009405390479,0.017641182387138955,0.025542554971553225,-0.002867918416300778,2.18
-0.05889017830597807,-0.15199652883731407,9.75001459234252,0.020653417335026097,0.0026170834614709093,-0.013259887016176987,2.19
-0.03236849959957249,0.04580748664528503,9.812832069178397,0.003464442685011957,0.001848705586152061,-0.004344795086003298,2.2
0.06961794825996305,0.031119942968367672,9.951236478481867,-0.017682271486938874,-0.010847381283343002,-0.019095960409857796,2.21
-0.02777794759237097,-0.037246213641906466,9.712207768964289,-0.009741836890990825,-0.0026574425490838573,0.0010918432816473167,2.22
0.014822844597088639,-0.0064536005103457365,9.972711022774332,0.00856844522599597,-0.015964032669071784,0.005605079841300352,2.23
-0.17850104610861725,0.15950946599656615,9.884555157607545,-0.006109489158152315,-0.009948456532069841,0.015824356787732644,2.24
0.016274498111145935,-0.09077565337657507,9.660730817604932,-0.01414573377720322,0.003238960203482809,0.003621696722404526,2.25
0.03561676979704255,0.11419576413349788,9.883815239221157,0.00904237180509472,-0.004168563634740624,-0.014822859761517157,2.2600000000000002
-0.019249155364116005,0.01581761419311589,9.721482742276727,0.0007507448060564007,0.004619435936734052,0.0016413526342827648,2.27
-0.09837454311226734,-0.06751504586930318,9.775811889965826,-0.009468797704171854,-0.002600029261196637,0.013071296877126899,2.2800000000000002
-0.07465153203327314,0.06616081612474377,9.827378248301288,0.0025659528151141674,-0.010968234577341836,-0.009239099351415187,2.29
0.1857108800571262,-0.12282772761292625,9.932181795082352,-0.007074201215230104,-0.0042669615168047775,-0.007107791110666874,2.3000000000000003
-0.1178012596134349,0.09803743858090902,9.851340621153449,-0.0016891782718832593,0.005671070758345191,-0.002811185778548444,2.31
0.05828126315880792,0.025256928988127255,9.856112897527542,0.007544323037625203,0.005942176568135629,0.004223447434565322,2.32
-0.031736506355210796,-0.17868467870298155,9.895425867369122,-0.001336138398372656,0.0007256950045565599,0.0025612492436230916,2.33
0.03720095621090349,0.10903311793223039,9.764189762243918,0.0040007624746809444,-0.0005979189993741519,0.004832663684716694,2.34
0.06551655218148207,0.11090525861888856,9.706957025227503,0.013963514283659773,-0.012873042507156483,0.002716118767479692,2.35
0.051711491685025146,-0.026747941575109103,9.823119982034191,0.009922151532336717,0.0065078870978887635,-0.0039251296073681986,2.36
-0.1354068618753941,0.04891526824230833,10.021944691848047,0.0008746925074347617,-0.016582691952187444,0.004409464917491259,2.37
-0.08863692078356605,0.11278673246038101,9.85964598272249,-0.009357159091767568,-0.009850861766018454,0.005592025817110156,2.38
0.17511774520296058,0.021309148899557442,9.819842900956456,-0.0056194945550341385,-0.013618619825464473,0.012641967168123412,2.39
-0.10248876294593386,0.09746782601480142,9.786762684614859,-0.015428294195210242,-0.004623312903431656,0.014871684014603105,2.4
0.1670659939947273,0.00426318303045903,9.89544645576537,0.0002711053484299936,0.013044903525447389,-0.006295374780469216,2.41
-0.1354204382113646,-0.15480290671696162,9.793372481182624,0.006587863581188882,-0.007199305264494043,-0.00763424238571991,2.42
-0.014680775457633709,0.0012128308059842327,9.795054633222374,-0.008854062156389933,-0.02038404495116035,0.01552679041883087,2.43
0.04681394625756197,-0.022309839996852748,9.812478973994553,-0.011555430352047874,0.019765996064285793,0.003923446831187744,2.44
-0.10438516245124385,-0.0410458610585614,9.641349471183775,0.0037830586811431837,-0.0006458932459412004,0.011625349375911991,2.45
-0.15366303206297308,0.06306560766258226,9.885541681161024,0.013714650573284947,-0.011419098452936491,0.009882834292257817,2.46
-0.21010583245430575,-0.09982523357135122,9.791723384364746,-0.008442252623058505,-0.015334442219161524,-0.00416400361800626,2.47
0.06614476779368951,0.14756644406592576,9.849780484406962,0.006620409647647763,0.01748169419350281,-0.012111492075489705,2.48
-0.026840992736628877,0.01478454941155507,10.035976684872724,-0.010648951752652933,-0.009806523195642368,-0.004757863397835085,2.49
0.100765909142376,-0.05923446100639343,9.794382737175855,-0.00924472023687531,-0.006357709161883556,0.0014826832266245055,2.5
-0.04227090351617309,0.1177112284157442,9.87419949216312,-0.002347362436211211,0.006264318248716395,-0.009915346154574279,2.5100000000000002
-0.05122526600268145,0.1634076898341591,9.833898122638846,-0.0012003113270596401,0.0040362712260805554,-0.005645004735721393,2.52
0.018702862487094876,-0.16211197575908476,9.837587081874002,0.01098514025458197,0.010339284147049734,0.01560826797594936,2.5300000000000002
-0.019579491340149087,0.0698354116949531,9.871902525280285,-0.019519020190487204,0.017132252636848012,0.0013629389538609895,2.54
-0.0035736207002613793,-0.03157969292127288,9.853401526123733,0.008778755779019024,-0.01636386583665507,-0.013635865164152335,2.5500000000000003
0.12979254447155975,0.11193264830128256,9.803006786131766,0.007001072244787089,-0.012679737952700889,0.017498839843001494,2.56
0.015777386961676965,0.07669289311779849,9.885810250460212,0.01872879263793973,-0.015293102176674398,0.0012118422167333315,2.57
-0.02247694235191119,0.10331717955226649,9.674152997256812,-0.0043121025772395105,-0.004086293679644636,0.015950831529727556,2.58
0.009161992334401967,0.12500740637394817,9.73179984758175,-0.0088373306954811,-0.0069340380991856874,0.020010764746373845,2.59
0.06222948317054805,0.03789443790192444,9.81055616749919,0.004193452240570867,0.0038615087232430558,-0.0021219089998691393,2.6
0.09693087242029982,0.06482546900628855,9.82204194648589,-0.0009936571995891202,-0.004826672805151706,0.015619036580950056,2.61
0.14544917710193794,0.22707036804390596,9.734379332059927,-0.009942149738398368,-0.007185817542013061,0.02204719450742201,2.62
-0.05584654746262411,0.047706648567813724,9.80366322275059,0.001978304880284116,0.007843754503872495,-0.004989887748129928,2.63
0.043908929396849775,-0.05081579733200299,9.875837258266836,0.0005890920696600025,-0.002009679912209671,0.0007469631180721323,2.64
-0.03224063812649274,0.07917583934789849,9.881830609539861,0.007234635572412393,-0.007244702026743726,-0.004553134399024074,2.65
0.07851087027079923,-0.051933494300352434,9.876668673644422,-0.002528688361441754,-0.004460076580281098,0.01336380645795549,2.66
-0.023173924717309613,0.11312349977568573,9.795260635454227,-0.013038406485162508,-0.0031953268163962844,0.016478036051810446,2.67
0.012539465612190116,0.08038373989052688,9.870254916255504,-0.0036389692016267246,0.034793470994377344,-0.005870353086318725,2.68
0.19623050505338363,-0.055224163477602464,9.845750065923813,-0.007547351851036206,0.006973555337881856,0.0022440778612858583,2.69
-0.11608953253739165,0.07970542619225578,9.685690755819385,0.0023308864578552085,-0.01320443727686232,-0.013376911608741254,2.7
-0.025185722244589388,-0.10129033221877444,9.885973875868562,0.0002765218966571478,-0.010817793192164707,0.0001948113295982097,2.71
0.024456346913754305,-0.07320064426124613,9.757796468004447,-0.011049728128613013,0.012532187817510601,-0.002956646321861862,2.72
0.20170268697439814,0.07853610790608415,9.81689381478986,-0.0018274337089678953,0.022145505985125765,-0.005306970016099635,2.73
-0.0395098903376123,-0.11559913676443441,9.869310032785798,-0.01851226709212559,0.008892651678143473,-0.008910084649067326,2.74
0.004945536782121906,-0.02548508758976787,9.771235429157565,-0.02013989336692559,-0.013293065113695702,-0.01764555935112208,2.75
-0.03875982370480319,0.06955923198723292,9.806507736008786,0.015984900209887465,-0.014726628947883687,0.007341687772975826,2.7600000000000002
-0.07369517544889924,0.08468405067132621,9.93521559769887,0.002130253466780563,0.011167120952323984,-0.00011816215546521462,2.77
-0.0693449316088488,0.07766947685861278,9.848306098422924,-0.016041211816895422,0.016453290661928577,0.0022686040279902555,2.7800000000000002
0.018311233570091453,-0.01898289598340723,9.886921175651242,-0.02526251431866167,-0.00951829539939088,-0.028966132284883876,2.79
-0.22702208237336832,0.15963314105225354,9.655723656230997,0.0027091139996494834,-0.016686126811914333,-0.004413757409833857,2.8000000000000003
0.02325906821628446,-0.1751982623560902,9.771811358577251,-0.011840235372024365,0.005085355261937386,-0.011428916603631099,2.81
-0.013196597462644039,-0.07373156873611404,9.872244160246037,0.008398738385728495,0.0019791584533622644,-0.0040561612771217994,2.82
-0.22857207072903607,-0.09322978498343848,9.746263092670127,0.027316697282744173,-0.006449825994739315,-0.00426531346358674,2.83
0.0927033123259352,0.17824114731716098,9.89030901258456,-0.01518957971775709,0.005465761320365665,-0.00017242072320632258,2.84
0.007736561216372816,-0.0343110347146053,9.983182298994544,0.011956782400058279,0.006064691621884805,0.008187609305918095,2.85
0.1978897656333032,-0.05120400657129261,9.787991960820532,-0.004540401847017821,-0.013685069319322092,-0.005090142665416605,2.86
0.03649337968425819,0.07124978379452422,9.828337723804099,-0.0061948810745301435,0.00702867094175805,0.010574243344667037,2.87
0.05971508868538512,-0.07931656387286948,9.90738567389235,0.01157061964497844,-0.006463458894943964,3.8638557911169335e-05,2.88
-0.018780978798580615,-0.0984899604747843,9.91927635577255,-0.003890414165218476,-0.00659757922661496,0.006954078371403358,2.89
-0.10065146073109209,0.06143818543761066,9.730220829904797,-0.010617816902612973,-0.0032160624702194784,0.022064061501604063,2.9
0.14148436257636973,-0.03422677768793599,9.80009945988985,0.01254620322902803,-0.0008561699407908097,0.011296599817660317,2.91
0.013701790834676332,-0.029678514226704106,9.755461330952611,0.0024833889498491898,0.01050698089929143,-0.005790926019716829,2.92
-0.010542372817917022,-0.1775968164389094,9.72452121145402,0.00212179147979338,0.003450272146564187,0.00289689564978204,2.93
-0.003492801726874384,0.00016346327892425368,9.648320268043145,0.00045012564076531646,-0.006563524084502052,-0.0060706271455581275,2.94
0.25323698406828915,0.07763514742753307,9.857630531635586,0.0020631759409817495,-0.0027252862755330286,0.0027134308725873923,2.95
-0.0042435729762093,-0.013925792677626817,9.75974845598602,0.019841771916614882,0.0012084554502292425,-3.3767799610571214e-06,2.96
-0.0023771165879549207,0.04366914931489658,10.00547035549094,0.013706335924172008,-0.00299807190728665,-0.002178051351928379,2.97
-0.13555409128012166,0.14161820044121484,9.79265024286422,-0.005478502672781669,0.02020708837509862,0.0060401362252617535,2.98
0.013785016672135747,0.1388672763626554,9.811299855951331,-0.011537932204374013,-0.008050393494866038,-0.0018959321272704235,2.99
0.04234573906835833,-0.06401588969205427,9.659041232085814,0.0036837455707535373,0.019499567456314093,0.004740876992485819,3.0
0.1055684543435661,0.11482777606991951,9.864368200300452,0.0009103329824959713,0.00044646254602864505,0.0012765086970447997,3.0100000000000002
0.04742826302838943,-0.09175653517846374,9.737808559976594,-0.014116762377118001,-0.001084660482677157,0.014436839733308096,3.02
-0.13216286771720218,-0.07696225116143933,9.804174678721589,-0.0028671994914790328,0.01218423876634551,-0.013485266348606877,3.0300000000000002
-0.10163676577655585,-0.07882926553069804,9.77126705051676,0.0022043307848483916,0.004195132119260043,0.006095695252643818,3.04
-0.10060115706262907,-0.009978594677023146,9.769869645735298,0.005336183116299255,0.021996889439402076,-0.01828591683731331,3.0500000000000003
-0.1311973434293687,-0.2030205569806273,9.788549230942465,0.0023719706887645213,-0.00025850775042020584,0.00428700352881794,3.06
-0.021187153082671942,-0.05808226101119606,9.674984928645086,0.010004240493031008,0.013302428698893108,0.008218616341826867,3.0700000000000003
-0.14636339002624243,-0.06827017223668909,9.955948524151038,-0.002388243814114357,0.0036026844529922003,-0.004118425243850035,3.08
-0.013685100075189562,-0.08431232877637726,9.811623455302271,-0.004896414160642924,-0.004598503693614623,0.010442878255762518,3.09
0.03985941716057295,0.0713476411871196,9.665261269234811,0.006482239987542625,-0.004712302629484551,0.014664991468092477,3.1
-0.009490758258845317,-0.02969908573802496,9.860420742150303,0.012649351367218637,0.009981460013763089,-0.010232726525506771,3.11
0.022721013363804186,0.10537197721211784,9.629015267614598,-0.008963647513831932,0.003780915126138399,-0.006752226142288166,3.12
-0.11894497730221086,-0.11876233538771482,9.85137930032979,-0.001062245628040868,-0.00010451928793881478,0.00553119368084812,3.13
-0.16216298440637145,0.07725721314278068,9.78865223378622,-0.005544541291232661,0.009044657188457487,-0.0071961362391713,3.14
0.09376300704805417,0.12191772385377748,9.809752543396886,-0.00031776337515274506,-0.01406620062864641,0.00458054744093201,3.15
-0.01625851209326805,-0.15080277063361802,9.911442268784647,0.0025177055520375254,-0.009443917404335162,0.011340178017843055,3.16
0.017920282441116982,0.03414801330989994,9.818351832028641,-0.0009207529406701131,-0.014722660950473117,0.001234304914627283,3.17
-0.10711694828184092,-0.11083922155988157,9.89738525600171,-0.005494964593104783,-0.00875105637154961,-0.008568099664964636,3.18
-0.28854054455022154,0.097462199687275,9.943162809473993,-0.008305712953020395,0.006608179080233146,-0.017535403302782547,3.19
-0.0279836524306332,-0.010880086036745498,9.697479640215944,-0.004511872936914877,0.013163617003282026,-0.013524608682935271,3.2
-0.10744359511366722,-0.015164847004824029,9.83453778616009,0.01063566133315638,0.01528399491887704,0.007214727153459637,3.21
0.11875010869992969,-0.14203249967828854,9.877775573571334,0.009112282532423284,-0.006634266092688716,-0.0012615976527028203,3.22
-0.07512761172129756,-0.07731129817058692,9.855288459202308,-0.005659393265060416,-0.000533466656252425,-0.0010708289203370674,3.23
0.018495882692177567,0.03775213224340609,9.732761605482692,-0.00035859118610760465,0.009841710337231422,0.008788581408194865,3.24
-0.08909735101458564,0.005106508832118929,9.840407471315883,-0.0033361866098034036,-0.015295087064281093,-0.024529143852145916,3.25
-0.12668303873819028,-0.06190532253133379,9.70403616660422,-0.01696767592178457,-0.009912248480404144,-0.006945400968849154,3.2600000000000002
0.00021999422767087626,0.025778524514835435,10.022216913269068,-0.00819281246580309,0.0035675900841994237,0.000685767370182392,3.27
0.05588997101431155,-0.09049705877639436,9.728848146532789,-0.0021574420696298157,-0.0014599335494989922,0.006913384251955802,3.2800000000000002
0.04366588894124895,0.07504091358781152,9.714020628494989,-0.005785486894918109,0.012164062096649692,-0.005751849059515795,3.29
0.05757649499905043,-0.02952465299851384,9.928016112002467,-0.007847229549041514,0.008782608752956878,0.0009833245971874764,3.3000000000000003
0.03157405363886397,-0.13276278431090538,9.715519375384227,0.01275879560926679,0.0032415520169684782,-0.01722703474575019,3.31
-0.1592891305261906,0.09381035035870257,9.89072621738033,-0.010778208143584019,0.0025062838445399074,0.0017438421191557836,3.3200000000000003
-0.02644378386435241,0.2414742845785657,9.750490522943199,0.010826783277232289,0.013553597530395598,-0.009532481011707273,3.33
0.01619136838605756,-0.12504653820295666,9.755672324982646,0.013568780618110185,-0.004028046603021662,-0.0005627692746849726,3.34
-0.0627838595483038,-0.09197768976272352,9.763933770383712,0.009176930390254407,-0.009187410233770682,0.00794966948297791,3.35
0.02524135917328508,-0.09614778118302769,9.729516680182162,0.0018806532411652732,-0.012207455687798408,0.011375173707774527,3.36
0.20951416211772822,-0.006795917590801586,9.71435718189924,-0.00036186769957922185,-0.0036229471344802547,0.0003096909046446389,3.37
0.10215623273347052,-0.018433238802677176,9.852572548782137,-0.012587693579930614,-0.011173915956232239,-0.001934423703548354,3.38
0.16891434125530982,0.12845630696598906,9.767513421723192,0.009710334015715454,0.015020616465992374,-0.009536334440903361,3.39
-0.08537328103372582,-0.12053457438151186,9.77529526299249,0.018616642072516752,-0.006651491338826462,-0.011632291823267174,3.4
0.15967530438391997,-0.04045095312038899,9.813296955447642,-0.013040876765083038,0.0045610992163801455,0.006907882062075582,3.41
-0.027622599284380128,0.03839112294481961,9.895812990289954,-0.006154900143400316,0.005153898672614328,0.018838789169757005,3.42
-0.05358941821371032,-0.02853921314396107,9.730623434394255,-0.007517981413959992,0.008607639969238627,-0.004657559216207598,3.43
0.033013031952999095,0.14536636795603738,9.757764847465683,1.3282860861404249e-05,0.010178573996124261,-0.0022185147704383667,3.44
-0.13526196246201994,-0.0038714377108399786,9.838825991824843,-0.0071031834409098415,-0.01079037566479441,-0.007522452502586727,3.45
0.02497436243260464,0.052892247465816125,9.849826878480025,0.0012233171028118862,0.004731167404647882,0.0049540293127120025,3.46
0.056311647382520105,-0.026649614122494832,9.792536918220906,0.020029543883660003,-0.02232007893937869,-0.006805368979894805,3.47
-0.05139335049280583,0.1471991892955984,9.738901528066506,0.007971052127105275,0.00920407267126229,0.017106416970129677,3.48
0.09160001818252016,0.06202721906483716,9.798089756772033,-0.015720363625608486,0.01250185900332849,0.007365177081437485,3.49
-0.007215064181586702,-0.12640727135811367,9.920187484462408,-0.009586072159450934,-0.019959258869267475,-0.006546444393916151,3.5
-0.026272347486052335,0.09178194949699,9.852367358309108,-0.020108244806187475,-0.0024814036898308414,0.006197585340867312,3.5100000000000002
-0.12391262932997474,-0.11479472380353069,9.809149030694638,-0.005464209078755546,0.005976583564899821,0.0016513594420038231,3.52
-0.020599278756741866,0.0985438351511363,9.677116629461725,-0.011821978266044517,-0.001108808731974766,2.6531784531774574e-05,3.5300000000000002
0.04525339588524788,-0.022007025023649263,9.735074961220821,0.001543947414148972,-0.005898715026844755,-0.0020367245539404397,3.54
0.06760518545557086,0.09969431685424045,9.962544262576245,-0.009215416194098177,-0.002800820396984508,-0.013521458478150457,3.5500000000000003
0.053439462140154416,0.0085974770024037,9.73177635561655,0.0047822375399849066,0.005381730095227977,-0.004516815409545825,3.56
-0.02844261391637104,0.02792197244622742,9.868766766876043,0.0003810474286403673,0.0042882837334734655,-0.0018443430808326802,3.5700000000000003
0.017009626700793035,-0.1474072059438573,9.893628431108493,-0.0028149982876420386,-0.017840728714794973,0.011818694969521494,3.58
0.03588968095408093,0.09407264122193447,9.79405174894946,0.007312582642952721,-0.013985997722810888,-0.00641348117223844,3.59
0.1358525578115331,0.03828533929661915,9.782031364168997,0.004246842305596924,-0.0011502665843354195,0.014267304891576639,3.6
-0.05221717290612837,0.001691653479889107,9.712233987783545,0.010911500874162428,-0.003465367873136255,-0.009193918201298805,3.61
0.016529287284230584,0.22236558540677778,9.771074459483795,0.0025693145472232355,-0.003846979272449156,0.00040895285388657736,3.62
-0.09997885106920298,-0.2786021727517491,9.735958008225488,0.0016112484958402502,0.00449855371468003,-0.0013501172898937163,3.63
0.04321861378911843,0.10386343760529829,9.863093993839838,0.004797043397756006,0.021289749369038997,-0.022073695880626888,3.64
-0.09982976379596642,-0.17094391858858968,9.83946316405119,-0.006689834291654622,-0.014580471900356365,-0.00658736553748327,3.65
-0.1315614696603281,-0.07760424542375248,9.678195635970722,-0.009317834478754157,0.01163858276822469,-0.004043363277523702,3.66
-0.1854286985286438,0.05461977198916476,9.865623327620076,0.00249019224044635,0.0006526505260598114,0.01485080830731445,3.67
0.10377102356331896,0.003788981012311154,9.902260014277617,-0.0008033396041955939,-0.007528232372435304,-0.0010569828915060154,3.68
-0.07880656980715683,0.31570939791989233,9.89627539334206,-0.009378497743392182,-0.0003532370121569102,-0.004975720296215688,3.69
0.12472933805272562,0.06697066234847934,9.76617230014431,-0.0036291303292850623,0.008665372552006776,0.012523609286145876,3.7
-0.12231218021670705,0.07588830737913627,9.801156930463389,0.01010168438665164,0.015708402611348482,-0.011511366233340684,3.71
0.012256080059951838,-0.0939367023726548,9.768472579743325,-0.011780821291849111,-0.0036933712071680986,0.007662296191655458,3.72
0.09716067488085772,-0.12111446922473129,9.558876840705196,-0.004168826554902373,-0.005325329125742387,0.0021404635394311877,3.73
-0.1663961310108082,-0.1002903164598602,9.884231627794925,-0.0002582270283557453,-0.011534176215470808,0.003261251896396015,3.74
-0.23348057334124148,0.018744994324372977,9.744557090036384,-1.0839767137068922e-05,0.001379398742613153,-0.0019438064258110385,3.75
-0.17839013229154582,-0.030183982123233578,9.79952538944613,0.009851019445321848,0.007988759139864783,0.020030340469024018,3.7600000000000002
-0.028609835473421098,0.17620459451056036,9.936725685988916,0.011723354187680125,-0.006519060443262423,0.006695083813925682,3.77
-0.0032271229366505946,0.09324055201475295,9.64913517928338,-0.002069435201122775,-0.018746266558588697,0.005025964226992724,3.7800000000000002
0.021115783936181284,-0.09472152995644835,9.899047355730774,0.013287098054322969,-0.007466353313590008,-0.015883089278045468,3.79
-0.02681041778923784,-0.07819370877893478,9.931297766572174,0.007741510185460065,-0.004833189637050659,-0.0065966442536060845,3.8000000000000003
-0.06862044128401268,0.07903137250453787,9.793768844538691,0.018283396135502148,-0.006361612559847831,0.027026897861472797,3.81
-0.030554182851331102,0.10276971203380177,9.891533410022141,-0.0055947192923792655,0.004074714586578591,0.004002345526287857,3.8200000000000003
-0.044585464184833654,-0.0022761690094595505,9.945824270769451,0.0021218641581118,0.008661866968591008,-0.0067214663825374025,3.83
0.00923619904931041,0.1518954762441339,9.744202405812477,-0.003368831040158496,0.009038884134533461,-0.013585649472983283,3.84
-0.0648981196793335,0.021094229033515217,9.815822568780955,-0.004699490072237608,0.008741471653596695,-0.002306201502472335,3.85
-0.11635662202054671,0.0651964116551794,9.971282464183403,-0.0064022399483749885,-0.003018318226181976,-0.007036548525333259,3.86
0.022669024842926627,-0.2047476414269203,9.879195440949005,-0.017323020185585087,-0.012194552441681597,0.0036902593357823216,3.87
-0.10496100175924938,-0.1504543716864885,9.83694170087168,0.0034165857994991966,-0.0029513273243007786,0.0006203364689583815,3.88
-0.15770956495856775,0.07525900296169286,9.838909821638495,0.003265063447696053,0.007308850482963254,0.01309521713001462,3.89
-0.11099044753030773,0.05459492505552077,9.69697890574413,0.017091495617559717,0.004504443866030249,-0.009469051492481333,3.9
0.05938944718767594,-0.0495208558586633,9.851963553856898,0.0007188634082412763,0.009676951745284594,0.00074262478397438,3.91
0.13727901261240094,-0.06531739714792716,9.843446138084754,-0.00030907865315492013,-0.002362833948836957,-0.01004078592029932,3.92
-0.003259752703972099,0.023317128178692106,9.795363057595454,-0.0033118464799001307,-0.008784238032040672,-0.010904252624973708,3.93
0.004539379126665015,0.06209593590368317,9.817350901789457,0.006303979920496761,0.003828215859741408,0.009320796858879916,3.94
-0.0034129787539395463,-0.034334422100856125,9.68916669824631,-0.008238626383939825,-0.0014947357256702204,0.0032283009319758155,3.95
0.007680286002126158,-0.13038606293931498,9.853475318335818,0.011673626892192052,0.0004701093001647086,0.011012937935247482,3.96
0.06921667674380591,-0.08023105613904923,9.902536105241637,0.007083491795893106,0.0036570103829242006,-0.012922481657238258,3.97
0.20070779126153152,-0.011774970223822373,9.805458658841587,-0.013049562857917274,0.002570260305412176,-0.013217043191260497,3.98
0.09246703959304707,0.015011687451609065,9.72950112093704,0.0019064464874192699,-0.0005547646128861853,-0.0022106381999770874,3.99
-0.028276506878381215,-0.020862623712485276,9.845096425594761,0.011704332094787344,-0.01552483836578935,0.010262971772339343,4.0
0.08563439043484275,0.021838466797207346,9.882697594240183,0.008849182391676605,0.013151737202088204,0.0016138062875939272,4.01
-0.06388348489261006,0.014510696592981757,9.867437585627219,0.0018732066355726734,-0.012459097591328959,-0.02254727566697007,4.0200000000000005
0.042890518779556325,0.11896953542158482,9.819769233218043,-0.003805010061403002,-0.013180577685287527,0.018133437130595113,4.03
0.004904013417347582,0.14261237647612499,9.844511139380081,-0.007821423659967477,0.01083615326959394,0.02752877714142477,4.04
-0.12056002616629946,0.039132866113044916,9.94969020687636,0.010408063981820157,-0.018454509560295127,0.007575242693970754,4.05
0.11222530672981315,-0.07893488725076721,9.78860018173855,-0.0051550652729354446,-0.011503555041060551,-0.003253995469455468,4.0600000000000005
0.002948226776438314,-0.021221511711697703,9.667572322226487,-0.0013587208482287996,-0.019666130781192632,0.0015912837486911089,4.07
0.04182778077332029,-0.18745659267048842,9.956153293753708,0.010214528172832691,0.004928455334479338,-0.008508854747128262,4.08
-0.01656184201694824,0.010664573380634694,9.668134739703744,-0.011658153308595265,0.000576272388491203,-0.0016143703397617484,4.09
-0.04648470913170258,0.11911756307224874,9.914483083569547,-0.005184609908955474,0.0017188649641040174,0.01109981789679255,4.1
0.12090115242751685,-0.0753544411258229,9.714807131162157,0.016439330265514803,-0.00044883099596696244,0.0006818939214102753,4.11
0.06413916140126384,0.04393523567482949,9.746733006378868,0.009354384332276347,-0.01150096729055942,0.018473935711880784,4.12
-0.04011255309564221,-0.028326770899974502,9.75664755943357,0.009006035935593272,-0.006380212966326678,-0.004301108268790015,4.13
0.1504489497807037,-0.14684475597990201,9.923980543843886,0.006405329932314244,0.0026496699252554013,0.009823385631437066,4.14
0.18738937994334767,0.06782950182042113,9.986921979247152,-0.005925517483965532,0.000512352987175053,-0.0015971670306502354,4.15
0.1400578192661876,-0.02054912619494506,9.893831539402882,-0.003939119029852708,-0.0006302256299951223,0.011273831634303772,4.16
0.08634366655796799,0.012523254629878447,9.859383354134728,-0.0035281335662686072,0.017521003660506553,0.00774365060661385,4.17
0.26131769469448163,0.03758731270569692,9.761412619991015,-0.01810955144876101,0.0005109707459728088,0.016305051597087762,4.18
0.02051094451283543,0.1296471773775173,9.764248172899391,0.00215675740742397,0.004074885559864357,0.009808124584150818,4.19
0.05834461722365502,-0.1269378494013271,9.987359198318549,0.008135601615676235,-0.012134344641688753,0.01355356716217765,4.2
0.022486475470456437,0.1744164871740665,9.652936295353715,0.007291987203719789,0.007890660874806386,0.011988109971561594,4.21
0.04821753791980709,-0.05302401042609422,9.87006670750306,0.006947924243218638,0.002898705965921175,0.0037069662106245056,4.22
-0.20606440343219412,-0.016062522226843387,9.87684199653722,-0.01164958344636711,0.0027525704499233106,0.011199464006300215,4.23
-0.05769765663971946,-0.1294666785981812,9.819950736008021,-0.007556060063039944,0.004178745067516673,-0.0003078919419802919,4.24
0.14645188177971596,0.11127493911842284,9.852425232505988,-0.005892751644589745,-0.003461026168717383,0.003521164932684427,4.25
-0.11567630877227247,-0.047731548201764534,9.77767105271498,-0.006327778359616307,0.004730126524172991,-0.0016264755383581918,4.26
0.15934162419383308,0.03959789357747226,10.042229994651297,-0.017240837049230528,-0.003056511774194416,-0.0014635227332873454,4.2700000000000005
-0.051491583075220684,-0.03613572247189271,9.860064826997096,0.006495532510400247,0.01842024697514847,0.003802463610237188,4.28
-0.10584637022403692,-0.11047713896058238,9.702199059842144,0.00328298509391329,0.0014794028363956776,-0.006572191747102753,4.29
-0.06413791912356062,0.018690982677386767,9.801274348599028,0.0015821925269890876,-0.010463626891751492,-0.001037292031751401,4.3
-0.006177537917720397,-0.18764629258136403,9.812851884787943,0.006619126334816678,0.019790937933967953,0.008820602095017196,4.3100000000000005
-0.21033562652688037,0.10519947204335428,9.734660897130645,0.0035787480021275994,0.007431162913986137,0.016857740481320018,4.32
0.07210434371382,-0.09410620424005639,9.816128874357222,-0.003449613653617636,-0.00029787639705583204,-5.472327225375941e-05,4.33
-0.03792431315619375,-0.022040830607261586,9.755468949061912,0.0038802925848660636,0.003976382239923334,-0.009599399439351898,4.34
-0.22302201622959675,-0.007385494864840781,9.955566703809449,0.004479730237205141,0.009236556373824688,0.019476297185660147,4.3500000000000005
-0.09307407285750864,0.12160705103309821,9.70635387978427,-0.01679781724191448,-0.004980454840628138,-0.016413994024344507,4.36
0.05791270031078917,0.001988824173365393,9.735909007825395,0.015485588103920873,0.012167726221681819,0.0002920673226463611,4.37
0.106733448239942,-0.016973029659805884,9.67427193587158,0.0032471394111544096,-0.0033772298386824723,-0.014056596809744856,4.38
-0.04398269560487846,0.12673927247521932,9.804452464517574,-0.003721154381369482,0.001465552636910654,0.0033935748086115157,4.39
0.11101874079783723,-0.07950270631130492,9.74447809175419,0.010723590751074007,-0.00892026962637971,0.016144563296204114,4.4
0.022229257763348276,-0.2753617996749435,9.77897721175544,0.005741276587057575,0.007398236796081613,0.025059600680599634,4.41
0.019068472126509778,-0.06620732295147194,9.799886888583456,0.016675186073841948,0.0017699869697998946,-0.009713663578845356,4.42
0.22544248000492956,-0.06787468162370709,9.849765177076161,0.001679429757952451,0.014772373953425693,-0.01177359066681982,4.43
-0.11011998189197494,0.13203511925108372,9.894622676311082,0.00666509818554172,-0.00024647761423481003,-2.3403367963885876e-05,4.44
-0.04563975986584317,-0.03139195516167211,9.675912867693627,-0.00056199255823496,0.00990465912952043,-0.0017388628951935609,4.45
-0.06578914342620006,0.053911199816263,9.801289231272982,-0.011343543745317453,0.0011457817349732238,0.001371421669796552,4.46
-0.061965999466652016,-0.09041949822676193,9.799652024265967,-0.003354520626829193,0.0015823281970804447,0.01481366089297691,4.47
0.04420796076499414,0.10869903235977547,9.771188384544905,0.003149450275130497,0.01285009968606031,-0.005299257056098918,4.48
0.04003601360704042,-0.03248385004906952,9.769056151692507,-0.010721458492395865,0.02419909893090493,0.0070227978617444274,4.49
0.17395124553737107,0.13070403478670792,9.843879812865174,-0.0032743519112851814,0.010961430321217696,0.011176586812959388,4.5
-0.05378722122816897,-0.07815475864721752,9.912345019623821,-0.004439017400687634,-0.0009643688122614071,0.004241622570669451,4.51
0.02858263011307286,-0.0311023719100952,9.881074077015162,-0.005053905298027641,-0.00011687529358115519,0.013049924748591,4.5200000000000005
-0.1524749189034658,-0.013711652557898616,9.721328836445554,-0.0005298319647143557,-0.011834615413352463,-0.007708907211193824,4.53
0.07959886362196494,0.11166799399023067,9.858299076020378,0.0048516259915696225,0.005508676155804398,-0.011288067216247191,4.54
-0.012242049351458666,-0.18404564316766087,9.802681202880326,0.009391288037891047,-0.00060477863339302,-0.014585454322653691,4.55
0.07561427137510757,-0.07464954537982182,9.752500550446946,-0.004644815920923547,-0.006603080585933234,0.0032780663602912665,4.5600000000000005
-0.08198077511271634,-0.040237547459372976,9.809050548551001,0.012543862641680536,0.010040488923832601,-0.022570905968959984,4.57
-0.15885225462313568,0.018499043169239834,9.927801583726751,0.01123143393769437,0.015299650943844594,0.0032353916961243125,4.58
0.12760290674050442,-0.059705556120866324,9.609137140838968,-0.014923899349057863,-0.005372946994838098,-0.0034291245991576224,4.59
0.07265725558650409,-0.1728161250864193,9.900563439761678,0.003258052029025953,0.009213067839521758,-0.016290205871237633,4.6000000000000005
0.07259980129279626,-0.037481328091607057,9.736395359111901,0.007279236072806784,0.012319806137724251,-0.013529757242554001,4.61
0.06957636429778326,0.01448755077842521,9.896869336326626,0.000949513012622071,0.011746216353494984,-0.006418772538789014,4.62
-0.07592508188732501,0.07531232715584807,9.76359146479655,0.0010448519001044858,-0.014193512053643074,-0.012665283987430845,4.63
0.09221257346633759,0.03694897263151411,9.926993818824394,0.0030923631097107,-0.005417107031909602,0.0024622645055555523,4.64
0.025219858408085435,0.038879719520194846,9.840361088117266,-0.019555324787985544,-0.009654679715385688,0.006074392304767,4.65
0.011495625113835381,0.017704612063347735,9.679281094968527,-0.00568580897789014,0.019226143478889245,-0.002796296815776938,4.66
-0.00560495460668396,-0.028161262866595312,9.752181110291334,-0.003158766683978907,0.025180312637192816,-0.006093221895602279,4.67
-0.05400612888146514,0.056499741285063625,9.78305619015431,0.01623171593530435,0.0035225316498140075,-0.0029384444647834406,4.68
-0.03653780499237014,-0.035034652468477825,9.770561105876313,-0.004989663322102831,-0.0023595857228830633,-0.0020624335331709755,4.69
0.2016263019579818,0.0796283843209585,9.72073805535659,-0.0006014445798820639,0.013613295807262662,-0.0061321270120237945,4.7
-0.14339056168922135,0.13871153500741598,9.847098164725745,-0.00432191268494584,-0.0036346234951936435,-0.014810551366162114,4.71
0.14736206939358099,0.03854819456630831,9.905572965831249,-0.008810734361007367,-0.006350244162572963,-0.004016398428043576,4.72
0.19642466456951874,0.03885888611746774,9.886121436415799,-0.014068687986636083,0.0020629546829434666,-0.013670801635147136,4.73
-0.08138299837603623,-0.031892051618875955,9.890013462570804,-0.0276739607004103,0.00172608650820541,-0.0005942145749692585,4.74
0.07313406960269768,-0.02175828950901655,9.903873586899016,-0.0030333528548830875,0.011988588623941802,-0.014305989856591816,4.75
0.06201085052510091,0.1912236066522728,9.823835674695523,-0.017425126198658852,-0.006414917276262326,0.013217747069954985,4.76
-0.07232482193769565,0.07061022517539865,9.963289538194351,0.0040073793952215405,0.003622243794106716,0.0031704307590268237,4.7700000000000005
0.0027353096607520785,0.14591785226861623,9.798957141889396,-0.001143942962266004,0.002232307078715196,0.006118443572612887,4.78
0.009513199207348923,0.08562683261039966,9.74397259492916,-0.01769393001029472,0.014676423223523472,-0.0029502242902703646,4.79
0.007984064430347526,-0.028654357337269617,9.737200615644113,-0.010710057497740044,-0.008834015400611513,-0.006999463001544749,4.8
-0.1708959871686915,-0.1755139666579748,9.933730581616752,0.007903782041404617,-0.021013455196700087,-0.013588166224289749,4.8100000000000005
0.1092208815425691,-0.3074754168594846,9.92122688312119,0.0179744926921833,0.008146538155144422,-0.017239042219458916,4.82
0.044615311319841464,-0.11508411074958205,9.594014531483198,0.0020214676863281058,0.010263471576801473,-0.006836732377847546,4.83
0.04036890828341341,-0.02514379494470061,9.781530223603786,-0.009158657672478374,-0.0031246815342322277,-0.0115305763038738,4.84
-0.061777787730512485,-0.24756483824347986,9.73834142026825,0.001454644292781397,-0.00202211739228697,0.012016643259314272,4.8500000000000005
-0.06250322524120702,-0.31209925399207744,9.880432827528647,0.009068053713200033,-0.007229470071868173,0.014421339433120427,4.86
0.017401105586505487,0.02915956620621662,9.663849969471391,-0.011371113000474857,-0.0062869772596668705,-0.01871433473022013,4.87
0.01026942760490838,-0.028915534896654823,9.80992824481105,0.00975827485644289,-0.005006721929580306,0.007605535322423266,4.88
-0.19307466296816167,-0.0875410766013459,9.699340330641416,0.012890102466688659,0.004638403702713,-0.019112293456058468,4.89
0.0784630509113664,0.08113019619916853,9.960723825091225,-0.00168175223888633,0.025294206540370102,0.00018574825097201673,4.9
-0.03341410275966835,0.0017090436158420025,9.970828604572919,0.0049687008704688085,0.01585326770468505,-0.02251111566286983,4.91
-0.05528186194137405,-0.029182280791193282,9.757008338457087,-0.0011507484997066533,0.012740616367622049,0.010837144428693267,4.92
0.11530052304079536,-0.07204103590303083,9.680035902379943,0.009888291041441113,0.006320336941374094,0.0034086490773765454,4.93
0.06065016245773162,-0.05503827359631533,9.717683374732005,-0.0014590606861564234,0.004421085294277013,0.007274089249021275,4.94
-0.07170438266475987,-0.13115251861787042,9.864973450247014,0.0029584471336951516,-0.00029359980712085384,-0.003485627419173713,4.95
0.061045518792743086,0.12281636383901613,9.683584408904329,0.0019554927027315857,0.0061932598060820045,0.00540457626393956,4.96
0.04168930657668277,0.09745112505911632,9.949836778404737,-0.005412594968255064,0.004952873471086554,-0.0053624887642615875,4.97
0.003919061847099521,-0.07422353322389191,10.031744716815416,0.010216484463861608,0.011535065851686425,-0.017802194344118404,4.98
0.03508825549761052,-0.0809867330806224,9.94567546575869,0.0026550291131948824,0.0010039717198870508,-0.00812643698505636,4.99
-0.034628234411818476,0.10188986231106906,9.74423933699504,-0.008766914060184126,-0.004143323968229019,0.014124580320796077,5.0
0.04174855303775296,-0.041757789241695153,9.900393480470008,-0.02604291367760896,0.0016166886266516598,-0.01639266058824064,5.01
-0.054499084553585556,0.007973202262658593,9.937476034534681,-0.000867713230758533,0.014934893813655073,0.006564424036794913,5.0200000000000005
0.16459520240902756,0.06589528659607154,9.749076537341262,-0.019971896118319607,0.0005347519087338032,0.0014700417817089825,5.03
0.02453079872877469,0.04561385451952614,9.933425441250357,-0.01458768327733299,0.00441936127347914,-0.0016759492040798326,5.04
0.09183321749198647,-0.04468331722519477,9.895414135518369,-0.007723751819757362,-0.005833337215195146,0.0013239464189577803,5.05
-0.003631859040571589,-0.1413101157242924,9.939702985386644,0.008761963026620806,-0.0029102630371452723,0.0016515349588836889,5.0600000000000005
0.08845228981900495,-0.10947359495744916,9.761984345600695,0.0002593752959622788,0.0005854558329474945,0.001970335662508714,5.07
-0.11991022559853333,-0.018795737539935943,9.985036182903809,-0.004422510802005745,-0.01249119034800174,0.007158995036944723,5.08
0.14317360732578185,-0.09917388001584866,9.809178981419883,0.007608858925749806,0.01299713180634752,-0.012223427543728117,5.09
0.015018388116611187,-0.026096029598616084,9.796156697200866,0.005565324683862758,-0.005437000309287248,-0.009914982999582229,5.1000000000000005
0.04900835198391343,-0.0634542943675438,9.65664952328598,0.01641386670667886,0.009065632588162374,-0.008160708227474561,5.11
-0.09395110199730981,0.00939142479108879,9.757453928694224,-0.007276173879327751,-0.013664428065341142,-0.0021828602169315404,5.12
-0.06829840582325096,0.021985220724990644,9.661121353587884,-5.102109075177966e-05,-0.014152490635126391,-0.0070587369495055475,5.13
-0.041618903065198276,0.035068209994041685,9.807929647852466,0.0066872862907117496,0.013528284430747104,0.012836686877861388,5.14
-0.06031088515148297,0.15776252946935318,10.010048930354483,-0.012974711719193134,-0.008391906907276177,-0.0016711985397727714,5.15
-0.05665683136937283,0.018660211884073682,9.481252075531728,0.010910537097534248,0.0063767291011448315,-0.013297293797647101,5.16
0.029911425333212362,0.12260785891374099,9.856759491044238,-0.017430830389670433,0.006259791025515465,0.0004629661515879757,5.17
0.04199155419219507,0.09741788351307873,9.884363846494276,0.01989117820027133,-0.011952413954808394,0.004033430710108053,5.18
0.035759188135886424,0.05211334586682412,9.916599219348008,-0.005814779734341681,0.00477700391965386,0.01683088082488541,5.19
-0.08217379900449347,0.11751928437582447,9.81363937058586,0.007702869433786219,-0.00039886886674349976,-0.010877887074867238,5.2
0.029792998856126227,-0.23101594771885595,9.807423851967075,-0.00676529032388178,-0.008001023055459987,-0.0015834405250063925,5.21
0.11613502161211729,-0.1689993408058271,9.826335333150883,0.0006856618136902552,0.010440951733310862,0.005086995672793131,5.22
-0.047997297255976144,-0.08162803231604186,9.746826595894797,-0.007580399077082903,-0.011028719459812802,0.010730102276838167,5.23
0.1160135049759266,0.008062559583985425,9.761013117373297,-0.006549834432331765,-0.003587287216746409,0.016515265622725293,5.24
0.2180363138225554,0.16727782422965298,9.824003258931398,0.03002471546379595,0.0063330303709859615,-0.0028604103389467533,5.25
-0.05558404894063958,-0.09360201170088206,9.856356319369883,-0.0004836955974642247,-0.010737493326747677,-0.013276065524171028,5.26
-0.08664140476714245,-0.1548838501918193,9.78299380493628,0.004106573645747569,-0.0005566017411280933,0.01153438407098356,5.2700000000000005
0.11639130821178995,-0.09399877986426354,9.767893735707275,0.007681050292506875,-0.016219712485581465,-0.01476909912627777,5.28
0.025129129787714963,-0.06993387930141541,9.718975502727917,-0.010818093168685237,-0.0019837296934715905,0.007348661007432637,5.29
-0.07276771190341959,0.0411683945760395,9.959087022606626,0.011760071985639829,0.003817922001161768,0.004458605332985916,5.3
-0.008895919782625746,-0.20114094894312762,9.781491152105373,-0.004823777624263974,-0.010635288313191752,0.014084642450030323,5.3100000000000005
0.006056318288151548,-0.14160285404976303,9.77631939062667,0.0010469791437551612,-0.0070126169945151666,-0.009107192324962252,5.32
-0.2220546883029338,0.047282897601605436,9.773668496474835,-0.014900690693287285,0.011812419309745904,0.013234561935006073,5.33
-0.03310944528460536,-0.059121351019745194,9.884650630224767,0.016016494934713268,-0.003083672621411955,0.0023427562462915064,5.34
-0.01112916615673979,-0.020787003302637837,9.880513660447868,-0.009668708146339541,0.006045966363181441,-0.012281356322622124,5.3500000000000005
-0.1298752319210902,0.014419090414771836,9.90082481778016,-0.007015369749915935,-0.014174079003071443,0.009924912551126838,5.36
-0.07942032141884638,-0.20269244126373476,9.800353095621881,-0.0020110725335441364,0.0026697583791465613,0.00594171581873807,5.37
-0.05365098161863324,-0.131430614035444,9.799185344810782,-0.02429518824307561,0.018309427181983088,-0.0003568676672232347,5.38
-0.0025524888583821907,0.018874327614542066,9.845104619329435,0.0010306309385253317,0.015606932463039633,0.005437864640363767,5.39
-0.04906101840519936,0.07889771207937546,9.845209377166803,-0.0042748383860677945,-0.009304968952611218,0.006527776721912694,5.4
-0.02984729817455773,0.003972899747772969,9.952598407108095,0.0036962282682763367,-6.802216938242763e-05,-0.0028908016356998683,5.41
-0.0929738827863844,-0.03454348427121472,9.899606992708524,-0.008259640819223434,-0.00834375417555651,0.009596035970344498,5.42
-0.18242173586542546,0.053183624112429134,9.984643137534967,-0.00853135735786215,-0.01163029233509852,-0.01502945586557189,5.43
-0.1288564809117064,0.056039906071079004,9.761492217495848,-0.002357249322857007,-0.01140074077701827,0.005416378785778896,5.44
0.15245983627177256,0.1633774428158091,9.868656304200764,0.009167336537447654,0.010945143522417964,-0.0049331052735079066,5.45
0.041923176143044666,-0.026637711263140518,9.827583404294217,0.004051428520576835,0.0002947978739504035,0.011127197425936432,5.46
0.021198762492579907,-0.016254934758202076,9.841859873605271,0.0047214238631370945,0.006211761644807547,0.017391684691053785,5.47
-0.1739628958553352,0.019470610620729415,9.83128931693454,-0.003592775708931116,0.0025308907488489274,0.010582876294307264,5.48
-0.09216937165021948,-0.047435698668388086,9.860863670393858,-0.0030090048903300744,-0.004574418031615484,0.017111183544691693,5.49
-0.07965759560869194,0.04659071986894517,9.700064009054739,-0.005355385295383901,0.003313778668388498,0.009811800710330417,5.5
-0.1793034551172562,0.10857458004670284,9.78811759391748,0.00640356314481815,0.023434403808641813,-0.019043617608688817,5.51
-0.19420777278685067,-0.26512840356181083,9.841980524288827,-0.02404033277458685,-0.004397905903879069,-0.009341278601564102,5.5200000000000005
0.07699211461771627,-0.11390150422672929,9.744195093411605,-0.000772326149411708,0.0021025795483986948,0.011325635909910285,5.53
0.030345246425793327,-0.015039028302396043,9.821672152401739,0.00769232805489482,0.010032147738035693,0.024715909534084004,5.54
0.056022384792534935,-0.025111846524785715,9.688886812169976,-0.014179748890323925,0.002149489326970079,-0.0009026565777664336,5.55
-0.23311926269125682,0.09681663121218193,9.80113470680356,0.0054307656303019085,-0.0006109135781290522,0.000977482204240079,5.5600000000000005
-0.07036750848241347,0.02889229122274481,9.86449389362226,0.007241112584747835,0.00664121375010792,0.009375675703531783,5.57
-0.05210680010903376,-0.014036312790196981,9.841237894315162,-0.006952561927745316,0.010807893504083257,0.005880627058818944,5.58
-0.07855528829956704,-0.11627454623835179,9.685541099507365,0.01774082668609121,0.013376835207861166,-0.0036850566395457435,5.59
0.10477667692343487,-0.0014768412977575942,9.93663384888803,0.0038886841150755787,0.00895350692905792,-0.0002948223455225958,5.6000000000000005
0.0012644801439017968,0.022295951862249728,9.63415148818428,0.011510026667090728,0.022454530148480662,-0.010225326637399649,5.61
0.008102969288713641,-0.04370449508754023,9.747964301094482,-0.005190657572982528,-0.009759952701446813,-0.008133994599474694,5.62
0.06892398364768053,-0.07543774004696174,9.784046551329546,-0.0024690668371338503,0.008398750168451385,0.0006599933722296514,5.63
-0.027975809332251484,0.135856483399161,9.904412604076194,0.012102345214750315,0.01020527061484147,-0.0043628756297472175,5.64
0.024773429398938784,-0.15664419597584645,9.881603708775204,0.01871388914592586,-0.011932441011752757,0.021261656143443577,5.65
-0.06333157185207709,0.04322901460290237,9.774031460750967,-0.0028662585611788295,-0.0017320582242391545,0.006862683861791448,5.66
-0.1276670405167452,0.050573416377266346,9.73440360812066,-0.007825441759497766,-0.014314490970798984,0.012258616934766969,5.67
-0.009187882033058564,-0.031471236031904014,9.803223289128788,0.010914905399453114,-0.0013930099632831377,0.009041467821554754,5.68
-0.17041213689960455,-0.013336380692135566,9.9531421356128,0.010584490431830131,0.004601304977480835,0.008704342734364814,5.69
0.1969272873043787,0.04399876242383466,9.890604736091868,-0.009245024955999952,-0.0024843764088420105,0.021947937533334433,5.7
-0.0036190748927346673,-0.18928938152734157,9.816644891239171,0.006015624318072579,0.011579604690631127,0.012369829318735823,5.71
0.05699665160580341,0.19607985853829135,9.732859448157104,0.01200293444594755,-0.0048198261693132025,-0.00944766902058071,5.72
0.06691904085814085,0.022867401007134226,9.791046410445949,0.016561649042064794,-0.01310036730279122,0.007649309566952997,5.73
0.20568230867240156,-0.011920098230004065,9.754283476907366,0.004922684439557062,0.00565277818368402,0.0028758388287858784,5.74
-0.0792650495495692,-0.0839332231699732,9.80491136528332,0.014664185922655929,0.014014749362075654,-0.013263468902395414,5.75
-0.005468379068125497,-0.20082621420233507,10.055890024760323,-0.011536107120015513,0.0003373466432984581,0.0035854242117948497,5.76
0.012136815991149552,0.13906549386136224,9.681680617189999,0.0024359544043324904,-0.005620809566994793,-0.00804678519318138,5.7700000000000005
-0.20710860561221606,0.08187688433430129,9.999226846746575,0.012823538506688735,0.005961311502697007,-0.00027842517165303473,5.78
0.02096255383932151,-0.018251872765593386,9.741361352048067,-0.020161778821754447,-0.017330309953406682,-0.004182704629591784,5.79
0.08379769972549961,-0.05310552574154503,9.911960011868882,-0.0041939260643283965,-0.005219503719953697,-0.008028439604347652,5.8
0.041326338415163456,0.1032347462571049,9.90869213641131,0.011740642116897662,-0.017730192383030714,-0.007405378037273344,5.8100000000000005
0.07733332965494111,0.024394424436171337,9.914623339860857,-0.012575235000954843,-0.01915565792532099,-0.011507279108466531,5.82
0.021584378171895964,-0.07801632716650388,9.79586328568355,0.019191802455053957,-0.002020905517107918,-0.002137810122517056,5.83
-0.05921704337314049,0.1970828292066633,9.837244998017082,-0.00618466979113005,-0.0019816292768901713,0.0037263019519797446,5.84
0.026531541312496694,0.1716124567821225,9.639252715278351,0.0033060826597052827,-0.0015107706819339215,0.0002258497326148151,5.8500000000000005
0.10997213207662303,-0.10845556921862823,9.75743581758499,0.01141133644574887,7.685363799471763e-05,0.0002567719097556497,5.86
-0.013389446490550103,-0.0554551546888811,9.791984706618695,-0.0059795334021553485,-0.010223867366634467,0.012072161488653341,5.87
-0.008888132821630647,-0.10133308518399664,9.828213965111338,0.018029213916016897,0.0017860983564406993,0.008258841290159644,5.88
0.1267415906790571,-0.12767920902321078,9.749686259905443,0.010084093146644406,-0.01785121294210338,-0.008521685275205384,5.89
0.10787386042207028,-0.017906030805924567,9.764995803518698,-0.004158927580634055,-0.019071343564008598,0.014004258330012268,5.9
0.033819254643959136,-0.07751861048538917,9.614786233886475,-0.007546480031048983,0.01999030846570892,-0.005332356035429161,5.91
0.08497706222567948,-0.00331739401907563,9.775233944546107,-0.007018945503040675,0.0007853711307584119,-0.02620723812908884,5.92
0.08911958809544825,-0.05189623911936341,9.80274052671082,0.013629420298936039,0.007148419098343678,0.007860703592786731,5.93
-0.12403901194333516,-0.12531468486892988,9.879505301570049,-0.026720404954425,-0.001741706293618426,0.00447666814304015,5.94
0.09725309673584519,0.072854510571623,9.716841301485035,-0.0010166037408930295,-0.002303642178202661,-0.010744898709992345,5.95
-0.031642931997498354,-0.13181438663005482,9.817151368110087,-0.011059884170719299,-0.016579097561124155,-0.013732099838868644,5.96
0.02538584478734089,0.11453597536246185,9.925270721081988,-0.014621405760409285,0.008667139435782038,-0.002214125484223552,5.97
0.11338471500920524,0.07240332432864485,9.688803139028256,-0.011299773287887019,-0.008002061264535277,-0.011193526220103446,5.98
0.11598800166657991,0.002887676553021693,9.777857598585626,0.0043676854478118515,0.011614576465035067,-0.010206353952819675,5.99
-0.2270310041090368,-0.07893870354839017,9.773371631280003,-0.0012394769517884694,-0.015423810132572767,-0.016937016676290998,6.0
0.10825795072273925,-0.09107092078539507,9.849718723676432,0.006277644722731044,0.005340444567716347,-0.011254079401727242,6.01
0.14334191209915922,-0.004769572324587395,9.748276734650526,-0.004561743546686035,0.000892983632717006,-0.0007234659520830889,6.0200000000000005
-0.0005590375594894272,0.1009364282501784,9.809085546132197,-0.008674476469393282,-0.0012912172734620942,-0.004916932358732691,6.03
0.1995670083277381,0.04775554597434198,9.81252475682859,0.0035038778423268275,0.006807051652566795,0.0063766920824346205,6.04
0.11393912104850444,0.21528378144718874,9.636094946700872,-0.010134116309652419,0.0034343555629684362,0.0011656424550450693,6.05
-0.01736420568455367,-0.13043037866063276,9.96287021292502,0.011433833598599353,-0.009986929895843141,-0.010605468046385645,6.0600000000000005
0.1506483749974899,0.022062984254960654,9.948023752864753,-0.004113459038015676,-0.01336633042064262,0.009337301108659636,6.07
0.03546620364758981,0.036659710906751145,9.766395677108374,-0.009778659319627535,-0.002530012643053775,0.01072376884417006,6.08
-0.048218916214818185,-0.022349018558192393,9.832452030019,0.0068174611853437875,-0.01750343612411019,0.01938952150161295,6.09
-0.1520574782606321,0.22382999804128234,9.798292597342108,-0.027815787282295962,-0.008577410154757638,-0.007329769820029867,6.1000000000000005
-0.048537325374076484,-0.09527237406233821,9.818294466673297,0.014007599933279179,-0.012900476078806964,-0.0007116778040657864,6.11
0.04680641425823122,-0.11533679816676567,9.890076602050597,0.006935497077170533,-0.007068803646977869,-0.0011319850456621133,6.12
0.041409712475440646,0.05473492180481047,9.854420131283579,0.003205912005555583,-0.006530956817999421,-0.0005290419408048892,6.13
-0.04312010379625916,0.04769631738985912,9.808153069984625,-0.004386009357912086,-0.015947494491129106,0.010835154279938022,6.140000000000001
-0.05551251760742487,0.09719086551631231,9.829359573883877,0.016405145409453353,-0.0028326974781362315,0.00035995142086167066,6.15
-0.03232291659053057,-0.11894827271974927,9.644451233830768,0.01034246477087883,-0.004303152781054028,0.005781835236897743,6.16
0.053258227955203824,0.3040493619360393,9.878160631612408,0.007982153075645022,-0.008048206784666565,-0.0067196890381522245,6.17
-0.18580359470601382,-0.08435085372022945,9.637875017940848,0.011002204559773765,0.0077885683389359184,-0.01096842472639901,6.18
-0.026392489248438664,-0.12470956475507695,9.918306165509444,0.013893787111706522,-0.0009839198265089975,-0.006835132700604274,6.19
0.05460402086430852,-0.0970107072558923,9.806810684409008,0.003248905390470896,0.008542532187065738,0.002695586755207232,6.2
-0.17231720806057801,-0.0231284939385663,9.928594240270167,0.005749947192266466,-0.00708250144389809,0.010851140269888261,6.21
0.04245048905797889,0.16699456962137293,9.851273360228426,-0.029097488376031228,-0.0033924042490037776,-0.01782475477191674,6.22
0.020242035081209017,-0.05252740275717854,9.642178831069126,0.0035680622783266225,0.003865272165833355,0.008502300713904535,6.23
-0.031037879556982607,0.1004764812799695,9.906118469454302,0.003651115035107437,-0.018691665141216608,0.001374215162537501,6.24
-0.1441425763098171,0.06271523522404059,10.003969864124755,0.004201734976742523,-0.010222115869374852,0.00031081797396643736,6.25
0.07185317715434468,-0.0749918306846493,9.8102312330254,0.024854778318427508,0.007564566488317687,-0.006830516217690653,6.26
-0.09221592814205648,-0.039672281073109196,9.819084865693789,-0.0004690091761768274,-0.0072438862823865245,-0.002560971221737683,6.2700000000000005
-0.12379068874019382,0.17304148896575533,9.746921225816447,-0.0016987789650659256,-0.017362899180596147,0.013079394334061013,6.28
0.00307640469156958,-0.1776909598902071,9.78415977424572,-0.0007463360155838594,-0.018168766782987292,0.002942418383860987,6.29
-0.026948893427847426,0.04101309473846855,9.788205541132916,0.0021995502923754227,0.0010764459887328427,-0.017443313543422382,6.3
-0.027279127305266323,-0.09256881479818253,9.7193057053212,-0.01943176688250754,-0.01380278900986724,0.0005819349520603725,6.3100000000000005
-0.09697504370075416,0.03081858214011096,9.887027167170391,0.0019591028732654846,-0.0055838622413272995,0.00669048214813558,6.32
-0.09597034422385377,-0.1925474032167433,9.552018456037787,-0.008005789093042002,-0.0165299611185584,0.016122179022883276,6.33
0.25105716768214714,0.06279964294524382,9.722561000164985,0.0007407263211295063,-0.003861866694974946,-0.013613261495075314,6.34
-0.034393060922177414,0.1231493014150217,9.661793456655108,-0.005490865223092949,0.004133233127995882,-0.021274500262415584,6.3500000000000005
-0.021894506337702055,-0.061057917923200505,9.706396706726377,-0.006265732111122049,-0.010159036437370697,0.011270554053333937,6.36
-0.031215274916495523,-0.022651310955360812,9.71041491829611,0.01271617584266373,-0.009511526777220738,0.017056088517759107,6.37
-0.049523293130157006,-0.02137129608197357,9.824513037926973,-0.012114067554249248,-0.01237119527851437,-0.0016500285457527876,6.38
-0.13770496104752136,0.1765704723587048,9.684328829270529,-0.0065623277424974305,0.0003963894054043896,-0.005215372575741183,6.390000000000001
0.03387549013879306,-0.09417740421575482,9.725682038253074,-0.01788289598760358,-0.0019429599907378596,0.002710497415645362,6.4
0.02573160737966608,-0.13641067327240947,9.856488347768357,-0.011556672499029171,0.01969603594358198,0.006048072004361184,6.41
-0.036183343936326606,0.11316335219893343,9.633280733487739,-0.00926477384136421,0.005356670761014418,-0.0011016377589797776,6.42
-0.21911641224364817,-0.15903804322292062,9.662716627236074,-0.005894422951401482,-0.0020699550244246334,0.00416590356011871,6.43
0.24086292692840186,-0.1750024070213023,10.044128159018364,-0.0025372731368197544,-0.012016266331302594,-0.0068262518158177885,6.44
0.010623664474214508,0.04686390045592467,9.607782269824776,-0.016688751538492065,-0.001975402124071893,0.0014008075023207894,6.45
0.20405409235115016,0.06617257258881146,9.77839286641265,-0.001837105885275422,0.0017162089463653952,-0.008796825376413006,6.46
0.03133330884480785,-0.014475910078582255,9.844374425470702,0.001948834500461652,0.010621781305062842,-0.0048011412594957895,6.47
0.053552830906977045,-0.21235709123881802,9.611045522768082,0.0026131628289402203,-0.008897137467147393,0.021863337642921844,6.48
-0.07647983431097738,-0.1403171364929963,9.797867000102466,0.016154900671795043,-0.004684117854594611,-0.02335010283336744,6.49
0.16519356630879156,0.07781923734538813,9.96639740657096,0.009358699532356641,-0.0037134660956252845,-0.01346141820437324,6.5
0.08361233515984115,0.02908073428138715,9.597134862412913,0.028517756212149182,-0.009304394224979692,-0.009370079290215765,6.51
-0.007953083725909305,-0.06876535614449189,9.781503841127057,0.00040435637087072554,-0.0009474830066724663,0.0004511800486166661,6.5200000000000005
0.06657281943164986,-0.08590832746353515,9.671091749361091,0.012896786288910816,0.0025977971544825142,-0.010317414551393417,6.53
0.2547387125422688,0.03611346792589628,9.916012336546592,-0.0008549531088363481,0.024006544075561402,-0.005264328485761175,6.54
0.0738045960433687,0.12755042526750182,9.868675810214372,-0.013792296141915605,0.0015021252817256207,0.0006050322277915717,6.55
-0.0702697683346408,0.15022421488067092,9.830769651216691,-0.008227749306015225,-0.013112593130693701,0.003908581047021966,6.5600000000000005
-0.05872939574263824,0.04936401303335248,9.89694358840185,-0.004012988916210379,-0.009538600614551659,0.0033837003164291675,6.57
0.17990824142025885,0.06322153969736598,9.794579071252834,0.0128199514602606,0.004798286559843393,0.005817564176219556,6.58
0.03190388379416414,0.02812212252933576,9.750781571037518,-0.006551298363597205,-0.007068536751806142,0.0147207359768396,6.59
0.11053406790982585,0.03757367737749587,9.635020712452496,-0.004426882736304757,0.001746933792687135,0.012078570617865448,6.6000000000000005
0.07229809581029062,0.06267503111226928,9.871207048548087,0.009114362694969215,0.004620327150990918,-0.0130753244802327,6.61
0.014409815354909029,-0.28662815978333916,9.838928579248334,0.0041194742014121575,0.0016457520291931075,0.007451204641762521,6.62
-0.009774514219938303,0.02339935457812257,9.808004539970096,-0.008443916550472034,0.009104803370941527,0.010023080447216842,6.63
0.03789691510934712,-0.05147663448744103,9.785255890860455,-0.015524065252991106,-0.007972867515549747,-0.0004231667086045933,6.640000000000001
-0.00551531054545612,0.08575138729289836,9.855932465599993,-0.004883405000497495,0.0022010071732191,0.012637351875410183,6.65
0.0212152632333631,0.016355829156358036,9.773197063971319,-0.0025204028900849894,-0.002441959963846859,-0.006998500052719167,6.66
0.10546169803808719,-0.029026906611309824,9.706158760918138,0.011784043869393935,0.00704434274803691,0.015835372283271493,6.67
0.04351682870253734,-0.06559760633748994,9.807992000511987,-0.005590399873308677,0.00968189743352222,0.0011015340638179845,6.68
-0.00890402217463399,0.19033514167422433,9.754392709940191,-0.016851021076711388,-0.007482577421098793,0.0031979500042304187,6.69
-0.035967040446144544,0.03547553517194465,9.909904975048931,0.009856754862071554,0.008063945279151925,0.006510062558811067,6.7
0.10465557796541823,0.006382845005888493,9.705308497753363,0.0024407467252575686,-0.02398315776708909,-0.011367061240230772,6.71
0.0059325741366923375,-0.0339175832836044,9.814995610100132,0.010828132869489911,-0.008893319536315735,0.015310333392704496,6.72
-0.029370491433535085,-0.22385788162078124,9.851741696804899,0.005442840557577001,0.01149841518559569,0.003949801516397412,6.73
0.047800988163956434,0.05384131195142257,9.75595390841157,0.0028069684226501067,-0.009618898755194755,-0.009713996997386395,6.74
-0.009300033620038886,0.03692434881130525,9.768291763278087,0.0018558971075525552,0.017526987128905738,-0.0025942623115951836,6.75
-0.021403322747427834,0.25375867805542945,9.612925985797377,-0.0052612972404765404,-0.010718991998502729,-0.00964174355647652,6.76
-0.04266611698145589,0.11243360068268321,9.927586544764015,0.0077872821988858145,0.0025612816798418095,-0.006066475475837336,6.7700000000000005
-0.009121300696577383,-0.15617107504077898,9.687077082061183,0.004666873573847066,-0.003388487344805733,0.0016182422579741416,6.78
0.012974618169745399,0.09600052856078894,9.871412002620705,-0.005615363195146919,0.008291701034349641,-0.003098648906762835,6.79
-0.2162348841170576,0.17177566819947052,9.74880309511775,0.015501250218101502,-0.019182765694188485,0.008027994213678747,6.8
0.1310272414698829,-0.09704417252764386,9.689260890072983,0.003302432133929885,0.01771698013354931,0.031578384754881714,6.8100000000000005
-0.03513121872156734,-0.007760995582565805,9.9876321420447,-0.005256344158107599,0.003362499856794458,-0.0035323683775280207,6.82
0.01195838656126312,-0.051983534264694,9.668408799950114,-0.006255055687396344,-0.004427302227409838,0.007494591615596383,6.83
-0.1395287632093004,-0.10466710053320921,9.760470226976379,0.015541714031957529,-0.022494065666737537,-0.011662016478737982,6.84
-0.02231193378234958,0.020996513793604878,9.771128760503885,0.00141548948111413,-0.004002721994113136,-0.004675663620819061,6.8500000000000005
-0.02168117866627333,0.11128527143199769,9.911039639569273,-0.012127932429640673,0.008690405655163495,0.002217691663439033,6.86
-0.054572151794676,-0.026014460708256915,9.804612047905756,0.005822632682557973,0.005520270437612942,0.012283554481757324,6.87
-0.17719299208509773,-0.09022793658281984,9.761050942373954,0.0034441889301284824,-0.0003643204356091481,0.0016575285325537278,6.88
0.09361442180917981,-0.061327173395808926,9.796345103026395,0.013256953345558946,0.004663885700593949,-0.011194579595684657,6.890000000000001
-0.009150832409404652,-0.007594265642299114,9.884248914578674,-0.01786140421646188,0.0034744001112029794,-0.0012733479388697638,6.9
0.09076722894080844,0.040229022806219074,9.80687985478548,-0.012594416187790905,0.014740627982732677,0.009373478046015356,6.91
-0.045971872844051305,0.10019506992409144,9.718083547581523,0.011380187088765412,-0.006264084589369389,-0.0018921283930792533,6.92
-0.09057485846291882,0.15696210111763098,9.730174923012202,-0.0076378356682544,0.007838388396800818,0.006368849594634277,6.93
0.013710509155614526,-0.0756810810868123,9.886114204325956,-0.017734510511039185,0.0038767543134289833,-0.003358434445327256,6.94
0.1845745863337784,0.10340679330470218,9.973980246687063,0.004714458875709881,-0.0011432594299953735,-0.01444796793573237,6.95
0.06080099380342248,-0.04192067253848572,9.776710934727172,-0.00628605807839274,0.017974356443362486,0.0020167506322515696,6.96
-0.06346366545571035,-0.0016096853123816852,9.92470779030953,-0.01006776871435516,0.009059837812728051,0.013280921702644421,6.97
0.05206307258873436,0.11867215211545033,9.991327917377587,0.014074609778439929,0.00022612137061683063,0.018035182146007522,6.98
0.08048899311695126,0.00623944542039354,9.627495530333594,-0.004874300122292589,0.0046170496154574955,0.0035996657304128614,6.99
0.13871962444231575,-0.12603621961223974,9.732353738564802,0.00095058348586069,-0.015732679399132293,-0.00011725858970626709,7.0
0.3122849099295375,0.09012145571009164,9.828763758164799,0.0026596880003706834,0.011391490903192622,-0.009453893169343834,7.01
0.041564120692729654,0.06289163137341071,9.81494894144169,-0.0104680542875273,-0.0016687760027259385,-0.003524732655739042,7.0200000000000005
0.13267384134235236,0.05432737367829517,9.686039647980298,-0.02078691248160932,-0.004386500922460694,-0.000966059656561387,7.03
0.06113363126962025,0.07346633349825654,9.711129399496976,-0.007218216905478024,0.016291591625125116,-0.009732221067806635,7.04
-0.00822997658903879,-0.06396980751772828,9.849862029693357,-0.011971543355164323,-0.0006313055987638148,-0.0022583615881718584,7.05
-0.08959765462527164,0.0796122016046813,9.834459772415846,0.0015937560396713376,-0.013421842267068508,0.005060439194340017,7.0600000000000005
-0.19740871897393056,-0.1992688145692898,9.568218764739008,0.008502109090452483,0.016208606961272933,0.005041894524022959,7.07
0.012968510136771888,0.12145214481637275,9.906593924733242,-0.00934506621683266,-0.01706998476849506,-0.0030092119013376373,7.08
-0.15795261245073566,0.1092642253696584,9.848926183040625,-0.002917963456289061,-0.006349821017378088,-0.0067143582821662185,7.09
-0.0694396362164571,-0.039278332665186905,9.621593376189962,0.0033559110031819916,0.010393534317434372,-0.008356784363927684,7.1000000000000005
0.09792327300743438,-0.05614177350600718,9.864262996164733,-0.003882151190478556,0.007654670375913454,-0.021392468884443877,7.11
-0.10729727389009519,0.18535123380735602,9.772287370790504,0.004136887624170469,-0.0015374273234682666,-0.0027112057568552277,7.12
0.009097833892418632,-0.17000418197010295,9.795965556753282,0.0006510216349192102,0.01207403765794011,0.015595076238535226,7.13
-0.09246338957836432,0.06916370950969075,9.835134597103671,0.008462064275051666,-0.0009156178702072841,-0.006728963199991772,7.140000000000001
-0.07618643597723629,0.05977908651096812,9.75238765759502,-0.012375859236642948,0.007984535193372446,-0.003064310647785784,7.15
0.12679389104421485,0.022856557893615917,9.78139382640427,0.016865373091800362,-0.0014810073224504326,0.003990403395078005,7.16
-0.12002491802329576,0.026676355434971363,9.875490287963093,0.0033829119982914345,-0.00397902277092385,-0.006501520073226486,7.17
-0.013486113148840137,0.02427299601652938,9.993410924288902,0.003769236263151026,0.00865915165469759,-0.003869344563972567,7.18
0.009400958151001398,-0.1849703866637594,9.707454515510872,-0.00907935059923877,0.000754500709049203,-0.006682955399541593,7.19
-0.014101878250460732,0.0033281162625783596,9.69585141915073,-0.003621926403863763,-0.0012548710085621229,0.0016717601478923936,7.2
-0.03328168496013721,-0.0752719899996629,9.939326667790377,0.005066912954968939,-0.01653500079351064,0.008999940827411934,7.21
-0.03630177299430985,-0.061613970701953506,9.648845625668798,-0.00333105014850832,-0.006554581081934291,-0.000491667884220734,7.22
0.10894753262166457,0.02612190595743723,9.856878040192043,0.0013491897501190708,-0.00016192541292816464,-0.0014552729478794918,7.23
0.03406980889635107,0.12974194267713174,9.839076903083686,0.006172017204488827,0.013469218254348363,0.004786604183302771,7.24
-0.07165861997574262,0.11708796596044851,9.636749470650953,0.008776710716081297,0.012994999416863,0.00859956502320587,7.25
-0.17610069964194497,0.1702731791283853,9.75601507528619,0.006547659258215995,-0.004940695467925396,0.002471996236910825,7.26
-0.01465626527751093,-0.059594160202998285,9.884379740330331,-0.003006428520601222,0.0027570442624336978,0.003914055542141574,7.2700000000000005
-0.027638640705820124,0.1105565892110103,9.934835863106205,0.01104924058154776,0.016898954950372743,0.007122653176989489,7.28
-0.02198957208310238,0.06218963551508623,9.777005485816446,-0.02296095466088432,-0.004688950854558391,-0.006987072877843484,7.29
0.07255105006707228,0.05024874947528887,9.956513814627641,0.011997843961639873,-0.01757264969579595,0.004138359353326628,7.3
-0.06661771304570915,-0.008443540032775301,9.82737242686452,0.0046533615354488545,0.0007754447687381346,0.010212593708755905,7.3100000000000005
-0.01206307627010061,-0.08781072394926315,10.009666646787279,-0.014030081484455984,-0.02203850996257498,0.003062123002935165,7.32
0.019328796780290754,-0.0841703159828299,9.75245474700396,-0.015669411004896477,0.0028610811751188766,-0.004983647923541095,7.33
0.20799778286693324,-0.11434122065464113,9.884985611405275,0.006665342849185784,0.010262359440772632,-0.012076605867461947,7.34
-0.15633481880747424,0.0738882705215859,9.762127999399437,0.02427874712306486,-0.010873676686136032,0.013801763185005873,7.3500000000000005
-0.16515240579718213,0.09048926746533878,9.821302785759993,0.009474823910418408,-0.0006598536710332165,-0.007643847338498812,7.36
-0.15265083966420928,-0.1095182532288681,9.956630198904046,0.005707720643036061,-0.0038625760268553716,0.008782614057688251,7.37
0.0797372073319014,-0.06665609265355912,9.674918035290421,-0.002124743942344435,0.00037699587791470624,-0.005659100018181199,7.38
-0.05573662545379855,-0.04546999611564029,10.000641272741195,0.013632694857925651,-0.01081418054855367,0.007616800829928996,7.390000000000001
0.24227616266694355,0.06404380222593763,9.816885223478284,0.011139093436024374,0.005036733216740513,0.016444700827431102,7.4
0.08183569708895111,-0.01275259658311771,9.727186934311073,0.0034490981279402914,0.0014201710436658622,0.0035915093525203663,7.41
0.14456802408309483,-0.01529612066677899,9.92549021062559,0.007438742112666961,0.005027074851675897,0.0025738037374281792,7.42
-0.11765169296187346,0.025707298260868778,9.847724352131712,-0.021944211052852568,-0.003809688084789082,0.00705680326806309,7.43
0.10653827328386632,-0.10597110258341212,9.944519575451103,0.00424207256550352,-0.007582855249870293,-0.010080837181105142,7.44
-0.04874689830453096,-0.13628008664423227,9.848780624001451,-0.005506528272442749,0.01282107762721453,-0.008117986135155467,7.45
0.04879477464464777,0.004251405938741001,9.900963240990226,-0.0030353057200407604,0.016390298965940013,0.0016023343710145294,7.46
0.02276810891580384,-0.01585993340110672,9.837126300059198,-0.0059565377843235415,0.006341782015068297,0.006829263871066853,7.47
0.14061074240316038,0.0548898530661047,9.74977275866966,0.02562258258609083,0.010505688075577549,0.0014294147572485173,7.48
0.01554437500135694,-0.06884668392500756,9.918829378897442,0.008082660509090287,0.01510205061269782,0.01775212157059977,7.49
0.02651374843931908,0.0027094258685882652,9.9481007293242,0.0007097062732830563,0.008742285508426373,0.0011662542186816319,7.5
0.12812331982724967,0.08510420687758152,9.962479259625884,0.0053971487784940965,-0.012077580962445917,-0.0020065346671079664,7.51
0.14019061258161775,-0.029223064164402113,9.85053538163581,0.0037110987950017406,0.013538714388257884,0.0016330951733126338,7.5200000000000005
-0.09218779585038894,-0.00086709093587876,9.8248185913713,0.012746608139825024,0.0012404098068092594,-0.008796324853715348,7.53
-0.18655962239616153,-0.18813881870777147,9.828377634391748,0.014320314119714546,-0.01138235354527079,0.007843135973698684,7.54
0.14532452473447474,0.1432225801877934,9.603298667166031,-0.0048414767040313765,-0.008358751725047173,0.011433005873277953,7.55
-0.03585788848000321,-0.01023688832497575,9.84110399832654,9.892945123764617e-05,-0.006794815509824244,-0.007253377246266754,7.5600000000000005
-0.05252480004260304,-0.090862392584166,9.784642294896697,-0.003119163692305973,0.013014479678349634,0.005996649942022,7.57
-0.0749655342214036,0.10777121708636839,9.83330767414033,0.001572483672791104,0.0062789058616651875,0.006721871922648749,7.58
0.07248613914400677,0.06385256600516356,9.7242495431094,0.0021406072923882214,0.008368735228703718,-0.008805627775055053,7.59
-0.04976137330524486,0.14290766440225175,9.805762487960628,0.002352583297432619,0.005954979795500961,-0.012731227548321929,7.6000000000000005
0.00941700951257579,-0.009645417315936194,9.870900975070734,-9.53775065216352e-05,-0.001980169487552094,0.00363075082329878,7.61
-0.017581713037498035,0.09289844655691061,9.64275780234756,-0.000795263609792797,-0.018325152442461197,0.0033736361006761247,7.62
-0.07239746560923031,0.014360497461099023,9.841273841651887,0.00908803576852328,-0.007578425540842068,0.01949192046168706,7.63
-0.019238167992992217,-0.021909887715034645,9.896996609411664,-0.013577476741076865,0.012153726747394986,-0.013920004491185167,7.640000000000001
0.07267450997695545,-0.02997248327897536,9.818178271568877,0.010261391922452082,0.016626948730131447,0.006228067457403711,7.65
-0.0929083705726133,0.12967111165579023,9.8723855082788,0.017213451845697718,0.0014933999606218812,0.007518538629373975,7.66
0.0007337471069586974,-0.014450833179985322,9.74629508741009,0.009393345406363957,0.012450050529663935,0.0017516770587431508,7.67
0.035329948810450075,-0.19676356451925842,9.774871741146141,0.021218327270965006,0.020051038815191356,-0.013708147365117421,7.68
-0.047861560501549306,0.0765347829675049,9.814675130559458,0.00844825544838335,0.004622961997620434,0.013744427155727292,7.69
0.05468864332946469,0.07082259955394918,9.721950516344652,-0.0030804018279402883,0.005858261419863245,0.016739252963547537,7.7
-0.005910636787142927,-0.19240750000175308,9.888564429019079,0.029682804015425238,-0.016624640352887018,0.005866207539184835,7.71
0.16546657779696528,-0.02611790087777471,9.870489141864654,-0.000573447919228736,-0.010305711639841201,0.01598457090237234,7.72
-0.1199561487242916,-0.03916512741597311,9.890256935213507,-0.00748020869727287,-0.007159549089020667,-0.009314424341379988,7.73
0.02057124832771686,0.05629960679131583,9.770773830627112,0.011532050447428286,0.005036607794347898,0.004361016973404316,7.74
0.02572948218768678,-0.06423468573129033,9.633190049313422,-0.008092954705607723,0.017215496356080412,-0.0005633232535984746,7.75
-0.03328899918571806,0.14343692997195986,9.642127030984927,0.027321482094241786,0.01003926619948599,-0.015350776190911583,7.76
-0.15473633265689615,0.03153840218318665,9.776068002412682,0.022535125660759773,-0.0014543390912812194,0.003016288799297295,7.7700000000000005
0.09348481406284491,-0.22047752884877078,9.987650834077309,0.001966753569291061,-0.011247674472197213,-0.010840779752724707,7.78
0.0010407857862932727,0.02362524620708631,9.85444354556645,-0.0012200929794933292,0.01473837044628021,0.013535631087659481,7.79
0.026654520891619623,0.030216197532455753,9.723252154093654,-0.014786157873218485,0.005916464433854593,-0.007307430539544444,7.8
-0.09738160845692995,-0.10474393460615386,9.747844467599753,0.009478246347683562,-0.010933667189671224,-0.0017772149762598636,7.8100000000000005
-0.036905700295100596,0.06800165257936684,9.778545761568955,-0.006030587244692635,-0.016656085827843677,-0.00514607672986641,7.82
-0.16069344409940567,-0.07788994717003461,9.671867141853255,-0.004836361359521737,0.014578503176587156,-0.007218130987102017,7.83
0.09930214850565616,0.14185746833116308,9.852423064943405,0.006033237492065289,0.0006324896118309256,0.00030111822584351773,7.84
0.026921310803755816,0.17383308782317441,9.786148957879652,-0.006392813211240644,-0.01207589388323681,0.0015722406843990382,7.8500000000000005
0.06306029462109304,-0.000604093125216208,9.83716782176794,-0.007639288770357167,0.0008858044141874297,-0.0014456187545409875,7.86
-0.02084443928200519,-0.09001832599482429,9.696297558680913,0.008218870990059303,0.011033044578555267,0.006437090277381107,7.87
0.13373203661695204,-0.12767595329997192,9.808698899999564,0.0012215427053607136,0.017047821501145748,0.0032672914062873656,7.88
0.02737068491740771,-0.2349114925713376,9.779463101942463,-0.0057305968621820585,0.008773413299924824,0.00284593364715858,7.890000000000001
-0.05203076644538715,0.10501008760506775,9.838587868623966,0.006042826051636949,-0.0008004228749330148,-0.006503257910030408,7.9
-0.13120716686040348,-0.049723803943154746,9.934878771750503,-0.0004730457877550452,-0.010818945083152112,0.0037321624299775065,7.91
-0.10653805157477732,0.0637688230649691,9.852101581291716,-0.009231105986527597,-0.009346615330227147,-0.010020451336124222,7.92
-0.07058546750127431,-0.022228940939713632,9.806982414594978,0.005206587575743284,0.0011485722890480956,-0.00032368635260307126,7.930000000000001
-0.017744484661694253,-0.0374448761079118,9.816882913805118,-0.006043462048887381,0.02568015004517371,0.006217005633005859,7.94
0.06378180610074946,0.07426399217761984,9.78095101792035,-0.014274592702238503,-0.002249984838970252,0.018008974644618925,7.95
0.015561182033213689,0.06422921368461604,9.788567361688248,0.0073858371887083295,-0.004441909959851221,0.004270444807444774,7.96
0.010646886631356565,-0.014311831524150454,9.673453281542004,0.003307170177126738,0.009233304295356091,0.00227142777814794,7.97
-0.052457285460137885,0.012651651467149345,9.81457706325806,-0.0018117717415078911,-0.002007267509770817,-0.0037810455299194705,7.98
-0.062130790011521934,0.09267955102047976,9.629499593403795,0.0016372560955769573,-0.0004367767794898835,0.0029794093159836834,7.99
0.0928943880281084,0.04670075359151574,9.739463056749115,-0.01571411984487945,-0.0021663911919738836,-0.010524756258644805,8.0
-0.12629687017241895,0.011838802157040943,9.876641283670747,0.0033814305346235975,-0.003228448307821563,-1.1679845726119488e-05,8.01
0.05658944586517002,-0.07104390947999527,9.789846479095488,0.011815498466798954,0.013194465824148896,-0.013702904789391424,8.02
0.10307322605584907,0.02992411734544836,9.970222247170787,-0.016311440027426308,-0.008011281962060421,-0.00302693623427163,8.03
0.14266296213793003,-0.12715808273259419,9.646993111825333,-0.010970904029885273,-0.01322258508122439,0.01386844014008379,8.040000000000001
-0.02274449347890896,0.12693643279492825,9.722518469406388,-0.00928858813195839,0.0073920061633984315,-0.006019871659440023,8.05
0.13697047276773508,0.00645607174377527,9.76832495204899,0.008048392185730686,-0.008110412432474512,-0.014962548408495806,8.06
-0.10294150670332003,0.008452614700494587,9.848876974497763,-0.01600647024906543,0.013616946060390097,-0.011307174012213959,8.07
0.05724600195210921,-0.01359774374263239,9.692325898991816,-0.013903761990583841,-0.0001149215246006224,0.011120887830694589,8.08
-0.030635054737286838,-0.04827402800092725,9.646991933006014,0.004908584049268843,0.008772269711003753,-0.012178140112211185,8.09
0.10551899159707741,0.18524458675427,9.842879838629937,0.0007925975565079109,0.009616456078310378,0.013122648157294366,8.1
0.10902529627996078,0.005606475399704391,9.753039230165866,0.004031911617317681,0.006663194658007505,0.0018717477489426618,8.11
-0.006624668197739568,0.06991069712320967,9.84012719195546,0.008577410568096244,0.004459657820319365,-0.001421074578823908,8.120000000000001
-0.09946081366410925,0.1518487558157668,9.80722412805611,-0.002622461262706466,0.008308634069108742,0.012808238747796765,8.13
0.05816653027033648,0.028613731683099622,9.733563905112918,0.007579049410080977,-0.0055298778023353656,-0.00859645749177496,8.14
-0.1928693415605734,0.0428671073237,9.823973258520544,0.0054382109229102835,0.010582709724404121,-0.015321300021499337,8.15
-0.019486088810325375,0.01686554854922709,9.842036660166963,0.0012416819174042753,-0.0011543665512085174,-0.002989405995960773,8.16
-0.04494722641350292,0.09454685961175156,9.890163820580536,-0.002900909729345206,0.013847997524329414,0.009386675433019572,8.17
0.04657076297731244,-0.010059690116397116,9.784568420525291,0.0065223743224233025,0.0009987364366112,0.005276575826174344,8.18
-0.025907786482944374,0.0400050814638983,9.818820808476339,0.0012070535576824198,-0.00820927845914641,-0.011148068104518311,8.19
-0.16764234599437403,0.06702918213018048,9.889502837347369,-0.00239413961113019,0.00011801582037758717,0.00822443300894254,8.2
-0.051317491627108525,-0.0007717306499886393,9.722057247643516,-0.003733813523519406,-0.01946412242448772,0.014217352771470754,8.21
0.0073357062389685385,-0.17487154861603285,9.71768111509168,-0.02708321836499494,0.01008364101640188,0.020999288134045734,8.22
-0.2216598190651896,-0.01379018023959436,9.804305780649145,-0.003890389070470173,0.0063785016179927455,0.007793470800022955,8.23
0.07962955082326914,-0.03888069453326274,9.846326984734585,0.0007191025043997234,-0.0032201441919087886,0.007359600704266273,8.24
-0.14051952062241244,-0.04002397143536307,9.967374906647605,0.01633684775561621,0.006475251959299591,-0.004437464177971062,8.25
0.05734055206845811,-0.019868494170981396,9.847900551408626,0.006046354614361193,0.01209189911231246,-0.003913787734611075,8.26
0.1073131615818027,0.07274552197842551,9.78717532853473,0.007843459357432216,0.008594779492687459,-0.0029562408015660806,8.27
0.06305976504846474,-0.06064822174242773,9.76223757576949,0.019846202239287118,0.002197559372022968,0.0005768193190121565,8.28
0.044462934489119324,-0.14527073712071256,9.90650080893259,-0.0016571989547349542,-0.0049244520923970685,-0.0035244906018949917,8.290000000000001
-0.038707901625879955,0.04926828161436578,9.641972604518934,0.0011779876461981103,-0.0030830984518437207,-0.0011618842510238453,8.3
0.18647765130186433,0.007143582454709193,9.736606996964841,0.0006905905762162297,-0.012518045246105348,0.006876265980270245,8.31
0.08998500731081593,-0.1720335512578844,9.796216601959983,0.0032440311945178403,-0.006202954077602862,0.002662117488513897,8.32
-0.13562928190681642,0.08465406360439075,9.790847491651041,-0.005980053223259174,0.016137209445237215,0.01688796380474106,8.33
-0.04298968827280624,0.1207509813305932,9.882704099565135,0.0039723194350044875,-0.004145225117665206,-0.013329921175253985,8.34
0.0163015317004162,0.0362608037557066,9.924463905437728,-0.004170788759085528,-0.007419880838215522,-0.0042474966580219615,8.35
0.04848414846362936,0.18550489974287626,9.747010452458367,0.008411765262622432,-0.0035045595553517632,0.01522805991392715,8.36
-0.007552444531827793,-0.019093236288389964,9.919821972724336,0.01633066265501223,0.010581478873067249,0.005120443065765162,8.370000000000001
0.017170354162354455,0.059069720720804963,9.759393116155548,0.006433590311254555,-0.003251952823766925,-0.01362235228253737,8.38
-0.07125034963000676,-0.04100748357573684,9.622403132230117,0.0002693228216767233,-0.004340930446638422,-0.000551912146749911,8.39
0.07441655524439515,0.1959068143726781,9.77060993605519,-0.001340657024848474,-0.02798022754931984,-0.0064064976289007715,8.4
-0.0873508338509361,0.0019312744590908898,9.708873780185652,0.013472106698069477,0.013755190142855027,-0.007579045298318916,8.41
-0.11693476274588546,0.04280792603566507,9.912174346053291,-0.012287074359136771,-0.01020033168663678,-0.018535723335877746,8.42
0.13610461414482453,-0.014719980373709883,9.671335392877323,0.014160383495607384,0.003578698881270419,-0.00248466380978859,8.43
0.06379502048261827,-0.02490106287861796,9.843915570315257,-0.007302340507382976,0.00031157370864296033,0.01186459376261087,8.44
0.1601064753954729,0.01024606477798023,9.832066486448666,-0.005022585304911438,0.007443415068491371,0.004798164380792293,8.45
-0.06203392928111221,0.07922969566668042,9.853312244227148,0.013825170924293025,-0.0003539537777241512,0.00013731545453603787,8.46
0.11422672496036801,-0.03593405834943341,9.707419101802786,-0.006302275027257246,0.0002718545378546252,0.007342576856437294,8.47
-0.09273609728831098,-0.12139535149347785,9.817150289339022,0.0032753849917536893,0.005986376652445491,0.0008671544661983432,8.48
-0.02746248037830202,0.06837319035215617,9.753296440764727,0.00283115693764115,0.014202914679144765,-0.011902021942484544,8.49
-0.03229076522747279,0.14357951665942134,9.675731598519896,0.02768675207176401,0.005996012796515844,0.012457495732680473,8.5
0.1250934703571258,0.05181265440298119,9.754374041061615,-0.0017132231612877944,-0.008088045091470614,-0.0016451433333900813,8.51
0.04397193057149144,0.002005189646721538,9.759821289440373,0.006441098399472572,0.017848010631670772,0.01364680969089322,8.52
-0.21484837351536543,-0.03514099474603951,9.621924667922894,-0.0013196177415302354,0.010339831896397601,0.00238189561365468,8.53
0.07102978586248214,-0.12842553855453265,9.911291221004516,0.007870446903891555,-0.005470348727368122,0.005313099442718967,8.540000000000001
0.07684657945493183,0.06877028721915729,9.823960976550907,0.007020627265880157,-0.0024760813831299576,-0.0031227529345345313,8.55
0.17939308546061308,0.07102748870157742,9.808546722247739,0.008420147191999799,0.011906826051825099,0.008562237049101236,8.56
-0.03372829762197404,0.009592785766625289,9.946897510217068,0.015608094362258684,0.00043165160373346114,-0.012935405455219564,8.57
0.1774891635545704,-0.08609162096791195,9.7695814287777,-0.008310737274097013,0.01523764680803724,-0.004925974195021431,8.58
-0.10404408499489992,-0.09287988414434614,9.869474705286988,-0.004115491154584499,-0.005219375860564587,0.010098172866448563,8.59
-0.008061670427623084,0.08772612890602435,9.800179128184716,0.020766804803449463,3.1556678152514295e-05,0.016598889702031844,8.6
0.1462084009987975,-0.0641441034098547,9.95644247009519,-0.007979422165260323,-0.01136942426706553,-0.004050766591720797,8.61
0.12101851451307047,-0.06461902464472125,9.913763494695512,-0.0034972400789811315,0.00991835162105707,0.011903253202890469,8.620000000000001
0.02618990633419358,0.06335119947578748,9.656806286695335,0.0038424650622374107,-0.0019364943626757713,-0.0015908188102236322,8.63
0.11228620243073871,-0.13030274450571386,9.885726277004832,-0.005386624463024321,0.0003276883863799807,0.015441834186973858,8.64
0.045233385639833014,-0.06250212416108841,9.63557996786306,-0.008219647625723015,0.0030556520035416464,-0.0016127020431962189,8.65
-0.04221005064755862,0.03618300370106233,9.808226283432859,-0.0011407609313662003,-0.007324053083600729,-0.005517939275517153,8.66
-0.12431759109475132,-0.1620553072054243,9.792744798740474,0.015921862062972015,-0.0018513808558749715,0.003911235980564195,8.67
0.14264758768153826,-0.02327010240609996,9.85359794050485,-0.0031285590631517962,0.006579021522282933,-0.009696371225404742,8.68
-0.1160928334609515,0.20575648067009655,9.776661452720074,-0.00786435651899311,0.0045113593195787215,0.007638045727492103,8.69
-0.028991122171085418,0.1706252227375379,9.969640044501835,0.027432377838708978,0.014726836652953344,-0.006034237414763083,8.700000000000001
-0.01845700577916237,-0.1794033407321709,9.909860128312964,0.016702523465397863,-0.01816247768731442,0.004415372717616685,8.71
-0.025181647486236358,-0.10188465690673916,9.65833391631337,0.003409716412238338,0.002870802292087265,0.0026729791494061426,8.72
0.011638190681299712,-0.09012827714028454,9.722879017111651,0.0037230071869149973,0.0015755593465360982,-0.010701919273499887,8.73
0.2679937863444017,-0.04196798100662497,9.983938690756363,0.01511969880185961,0.0023073207203483295,0.0002539117657102343,8.74
0.15903856164401745,0.04203605873626873,9.718647823759751,-0.014531556726102925,-0.0010495149183987152,0.01741966059292507,8.75
-0.10750706526209558,0.08670339370188386,9.750209448760499,0.00664835082421714,-0.006742985481992916,0.016559775208267825,8.76
0.015637451062678456,0.1263101912594372,9.836296744373705,0.02489660718105345,0.02513452368459752,-0.0027422919914102894,8.77
-0.03356159022124499,0.07415083751088443,9.740451485860305,-0.0024988590055683934,0.011697131901597472,-0.004364057053383355,8.78
0.11467107329483113,-0.074159774868795,9.688617303645794,-0.0066028694802249726,0.014879037516619054,0.020793216163653892,8.790000000000001
-0.14754428120297094,0.021302981669583818,9.798196959480734,0.0156978891120429,0.0003350246128917733,0.010543242346692969,8.8
0.1804737113518028,-0.0768517216777684,9.848624298848923,0.0014951207935509241,0.0061182019312492585,0.0035778938042915756,8.81
-0.045364520114638054,-0.07920030165353228,9.8103062416262,-0.016453890786738527,0.008703674947643243,-0.0008663946402324999,8.82
0.020049935218739292,0.10631841320073032,9.83657915080542,-0.007724791325000194,-0.014019689047119609,0.0028386680208491765,8.83
0.11567221813338668,0.07064309324534941,9.726297670807064,-0.005617420771284888,0.016419044476334334,-0.017645123962816495,8.84
0.04259131152044692,0.07072549816938549,10.054829636952341,0.004563839400859213,-0.0033043283423056908,-0.021445987465653734,8.85
-0.09116099194009059,0.014199970937145635,9.588584090325218,0.014140061783724452,0.005596130636315877,-0.012444065479388254,8.86
0.08241838855648595,0.13722323160144842,9.801555905986577,0.008196001687847138,-0.007273640261790118,-0.009683629833720578,8.870000000000001
0.06753986734553687,-0.11942550415201197,9.818384251129583,-0.008394566241935743,-0.007404008975638088,-0.004560281763106924,8.88
-0.1298127890023114,-0.014013954957765244,10.016927875112787,-0.010441857805699502,-0.004677606195893382,-0.0002819654320024797,8.89
-0.08105933235917641,0.01610906968795753,9.765344970473087,0.0069887541452220816,-0.0019412951394513801,-0.014195403073107488,8.9
0.07542482148789474,-0.04450619182357743,9.81716962863761,0.0030749046704369636,0.011946106805049215,-0.008402524663441956,8.91
-0.07827988174183488,-0.2238008047133767,9.833422013187258,0.0031539925035364126,-0.02355340780045814,0.00011073408630780277,8.92
0.030120098545772335,0.054556126346749195,9.913957180126197,0.004423836062863013,-0.006281187088776915,-0.006903365684834497,8.93
-0.051862919532926016,-0.08829882691346796,9.787345687263707,0.002988862370935454,-0.015344955372689505,-0.0028381503024447843,8.94
0.10514743924177934,0.052206492076003745,9.801798532174,0.006824937403775023,-0.00017846791185272237,0.015447602865234302,8.950000000000001
0.09466368354003526,0.004050087102273116,9.85766732948633,-0.005715117358439737,0.003335833075148897,0.013413742405288333,8.96
-0.05480543371024437,0.09334869969441255,9.834917615283382,0.016308328271809273,0.01607315968453223,-0.017399650278114697,8.97
0.1249882173263107,0.009308093766542874,10.000250465315444,0.0019886140478168274,0.021528199988944143,-0.004927121733233374,8.98
-0.14047450691041094,-0.14202052695654008,9.770569574649482,-0.008946979411730486,-0.002125524536644861,-0.02294897911812699,8.99
0.03349130188863302,0.07289815566075207,9.770888894424294,-0.006435131917872688,-0.006840285589981994,0.014093951657510064,9.0
0.09955928062569386,0.04400088510038706,9.762900069315688,0.0006721398267520781,0.005361927141297255,-0.004599293571594937,9.01
-0.07527850286964967,-0.08350205019819187,9.76809817074226,0.013625643923306056,0.0053191817182068595,-0.012130961954283792,9.02
-0.05000653292162223,0.21033744818513622,9.836125590993026,0.011009437902991201,-0.01738685028467653,0.009294788003578363,9.03
0.03573482850382902,0.1487061162643383,9.823000956203705,-0.011687333563577667,0.001938737336826455,-0.0009902736461635318,9.040000000000001
-0.10404542806168932,-0.10645268630121535,9.64966631284229,-0.002591134230813022,-0.0011154007051773812,-0.0025025804858916866,9.05
0.2196652827294613,0.002162647570372055,9.896420749138533,-0.00236670446008612,0.0036146428331267845,-0.006440373541918422,9.06
-0.039435836235055484,-0.10210036121840443,9.869383001014477,-0.00060957961740521,-0.003736335633497159,-0.013467950402858433,9.07
0.11968204846840542,-0.0242553075723423,9.73354857184102,-0.02209913371441473,-0.0013751963783013377,-0.00718084261533658,9.08
-0.10272397079504375,0.21924478318107288,9.98552623638143,0.0017815859578397106,0.004878207042849712,0.0005582911962669104,9.09
0.04307089397750085,-0.008821903646889657,9.865368058217804,0.016716224022118573,0.006357152322595113,-0.002723839058084602,9.1
-0.03790275208209721,-0.17576275349139012,9.754774116403423,0.01334628654783242,-0.006549656423420709,0.006452177978580671,9.11
0.005246306273255919,0.0930331155524293,9.83176480474049,0.012421635706854813,0.013416999187891104,0.0009836286605660793,9.120000000000001
-0.20522934951822666,-0.25614820673821337,9.992125640105222,0.007693287441748227,-0.003899952916936178,0.015172809064546046,9.13
0.043133430547741825,0.02626285037365308,9.95585927359896,0.01367226313835229,0.005701448496937518,-0.006389613782478977,9.14
-0.004949435311845753,0.0903851813213386,9.822685328266264,-0.022479355034554917,-0.0032206494933903693,-0.0015787659861587705,9.15
-0.1116620486486982,0.08623012695802025,9.930142963403616,-0.030761864944497237,-0.006604412182752553,0.017673285290445914,9.16
0.17995211072024717,0.09885193743216003,9.65222113975084,-0.0019219567484882942,0.0002841455459769099,-0.0019815182168041144,9.17
