ax,ay,az,gx,gy,gz,timestamp
-0.05997929746830073,-0.06875762778302004,9.887914019579455,-0.014375982260273888,0.018268846736574317,-0.025824925494478148,0.0
-0.03638086972993159,-0.042484422192813245,9.847977729002453,-0.00921136873097028,-0.020766646091894207,-0.006335701500468599,0.01
0.177887976181835,0.06342800017564798,9.796384821731325,-0.03027487370025079,0.004933698562125878,-0.007762905993990677,0.02
0.07337359729485331,-0.008784042995077866,9.639989811823932,0.01779684646753755,0.007144167731991771,-0.014612481142287597,0.03
-0.032334383233806656,-0.09530592224223851,9.762427603963781,-0.008684151162281493,0.02036127138950134,-0.011139818031369889,0.04
-0.016751933422134855,-0.10495709656254684,9.929400159573243,-0.0012837952451519585,-0.016354250789921154,0.004267219619115663,0.05
0.03696311905076079,0.029103862529438387,9.764111154675929,-0.018027160592461764,-0.006002198666487212,-0.005343532238857932,0.06
-0.09592595612983401,-0.054553273960114994,9.831312545612393,0.0004400303605362402,-0.0016151960853542176,-0.01377239800319022,0.07
-0.09791430121769402,-0.05669972310491919,9.840276207843543,-0.018666511246465362,-0.0006182144954975313,0.0017629128443725382,0.08
0.029107876260471,0.15628318579370368,9.845308409216432,-0.010393687402900136,0.022532078615628774,-0.003318323663044135,0.09
-0.06416280107037702,0.02176059249274856,9.833672173669292,0.001745503884607449,0.023270027629900936,0.01752287076195837,0.1
-0.05074776883623137,0.010370364003116035,9.909102388733732,0.005548524208719773,0.004425206505135895,0.012739387012093517,0.11
-0.028555646633153322,-0.16804561968291787,9.794096521566745,-0.010876454630534828,-0.004947593262860726,-0.008033189385719359,0.12
-0.15576130063551452,0.12550005773608824,9.64389660326835,-0.0005450925660326517,-0.0026155461054003896,0.00963344412644218,0.13
0.04139958397711352,-0.07285110477584517,9.801279179712516,-0.014306498784937532,-0.0031073140030633273,0.011139561040873268,0.14
0.0574699386815663,0.17468622867934,9.79886707336831,-0.0074013329286643035,-0.014469503647008983,-0.005958592754410608,0.15
-0.08902252804883243,0.13595484002565855,9.777224340749312,-0.004000409367197395,0.0007547617298643676,0.010815033319172662,0.16
-0.004473741191934915,0.0725962501978225,9.729339726724548,0.0016694905666347643,0.006733601228887306,-0.0052612353436878615,0.17
-0.08922292681591566,0.09243373075910845,9.710907282806366,0.0003376740958877433,0.005020934204647074,-0.009613899923992373,0.18
0.21938751827158953,0.06024311835377654,9.778873782083565,0.0018932509575422638,0.0007779369691161403,-0.013762077692639825,0.19
0.06135481685847255,-0.05672466370559531,9.791496073981662,-0.0011705726510016846,-0.0065698505285162,-0.010591451295763355,0.2
-0.008346852271351558,0.08553923470143518,9.754257566142853,0.004745709899185114,0.002980374553252222,-0.0024290821995635228,0.21
0.0012358897269511282,-0.10312979116688653,9.894102221728195,-0.005626178274870427,0.005080012556438305,-0.0165607176874593,0.22
0.043479675009758495,-0.03030848699988374,9.861671879641134,-0.012245866718412282,0.00505676267569443,-0.016848122579933424,0.23
0.08443339258884032,-0.033630050334277566,9.831717042698385,0.014566855642858907,-0.002841553020644059,0.002311738541133822,0.24
-0.0359100457342056,-0.07786994013411822,9.779449839434053,0.0072089916041294015,-0.0011018247944380732,0.003936637526494186,0.25
0.1433527737438984,-0.015566713009957503,9.746260309612804,0.006904846665415605,-0.009977932104257386,-0.018166105580218816,0.26
0.06923252202294554,-0.014211987640529389,9.773828485065973,0.02120239022530228,-0.005484073839965392,0.008593142068679366,0.27
-0.09093725752823112,-0.04907825592095181,9.67926763917525,-0.008271960185704934,0.003814225333568158,-0.004638850148682614,0.28
-0.06293167986361785,-0.11537623579326205,9.65062112946272,-0.014634720243073399,0.0032760525440034332,0.017855064149736432,0.29
-0.053062821541946054,0.2022597325114382,9.600771442983719,0.012749059482337654,0.007018367662387315,0.008045456494447966,0.3
0.004756860610267587,0.11426362799233943,9.831745179872534,-0.007086258336071698,-0.0068540733928652625,-0.012116322294311166,0.31
-0.0312794618917882,0.08565856445544151,9.916689285275089,0.0037150999490135252,-0.0012629755374972515,0.0043819230622103135,0.32
-0.11120256635012345,-0.03647968964773552,9.864395527401898,-0.012473261911028308,-0.015684417791865867,-0.011583351063300709,0.33
0.024414926707757172,0.17787687422808623,9.679232439447691,0.003236056882611827,0.004720115588523027,0.022421668220802406,0.34
0.0219315588536194,0.108514243711374,10.014339197509527,-0.006591977756898063,0.012564238701748606,0.022801230324026034,0.35000000000000003
-0.020597952462515196,0.14857777906827593,9.928531197528784,0.0011630289041503108,-0.002129916616115075,0.0022736488876452915,0.36
0.083488665483808,0.08626364442400823,9.87335176464996,0.00671259743734376,0.01459721234706147,0.0231702117756053,0.37
0.08112544538456704,-0.1095012700056657,9.785826525919534,0.005528892316024457,-0.0049360677123312605,0.03235001048626896,0.38
-0.08009428700947879,-0.058043787246907314,9.8289862824741,-0.003397875440272667,-0.01457648872769481,0.0011681492388604896,0.39
0.2094798516011579,0.1253597760668913,9.681746049529691,0.014852325123390703,0.009986582732886313,-0.010462052056237807,0.4
-0.1392932686944084,0.042807415487646036,9.932677128979725,-0.006563172347586623,-0.005495231866444904,0.00023644475038132035,0.41000000000000003
0.04954352596802811,0.0016685770575607323,9.700782857917579,-0.0021233537949447725,-0.002626422139680269,0.008893641395308634,0.42
-0.02405472352102987,-0.09465637596679471,9.711711507608804,0.0030902661049937697,0.011386710453870809,0.023605361034326432,0.43
0.06928723504908225,0.12463383100850699,9.868259172069541,-0.01940884330501111,0.015549830646097286,0.002331296367723693,0.44
0.08711896537367614,0.26590575657289406,9.972010008880778,0.006121710827639379,-0.0027530081017481263,-0.0023951524828581825,0.45
-0.0804902683835214,-0.05452250600056872,9.836527462083662,0.00215324849795005,-0.004486094480464851,-0.0027046437671435063,0.46
0.38966681504426276,-0.016092834825749594,9.638474970666625,-0.007896978822909729,0.01009625724329201,0.003124055391700216,0.47000000000000003
0.09328569315818758,0.06128417691835939,9.790257078096293,-0.00044248946812006334,0.0013040080504819465,0.011432174127512938,0.48
-0.10970114039944504,-0.06415615037400334,9.913621688892574,-0.004919088630831497,0.0008601748743406255,0.010973777719537194,0.49
-0.018417641936301302,-0.16909619612565613,9.792981556557374,-0.0003744856961350633,-0.010619767344949762,-0.010561425997056948,0.5
0.17029519529629136,-0.027770386977061863,9.808423377478157,0.005914393534935211,0.007901589234204727,0.007833222305743634,0.51
0.14129853202982492,-0.1219061215158491,9.975962744414284,0.005184105763183834,-0.0018317555839696513,-0.0013422506325708298,0.52
0.2430272357109188,0.025884809994516114,9.79894374876523,0.0012524263805561912,-0.01867662771955744,0.01994680989034584,0.53
0.00014289828452321296,0.010102527277861414,9.903737007163052,0.0017718098488316895,-0.013499292449333143,0.008180474562493639,0.54
-0.056197972527780575,-0.03649380001694579,9.88626083383875,-0.005585225188284504,0.015636049340732924,-0.011357705677348614,0.55
0.07111662491462889,-0.026109390521701328,9.753856551399673,0.01149435683462363,0.004906100336936188,0.0052865564699719585,0.56
0.003711823519555125,-0.09476323253770313,9.743433460053636,-0.008914795954966432,-0.030344228872023052,-0.0077720792406923015,0.5700000000000001
-0.04040501256169115,0.16656779467215813,9.846863886265377,-0.006155272403662371,-0.01644973456277669,0.0020836868899034937,0.58
-0.07160884005474334,0.05256864370058824,9.941728970746414,-0.008349755751334096,0.012243734796902628,0.01722718582144317,0.59
0.11685013719878955,-0.1727461921715055,9.715124884451365,-0.004892748515258669,0.007978201921687314,-0.018548514467998715,0.6
-0.036058686150007055,0.0743682297642581,9.881395884746984,-0.014438595968907175,0.00784924847108311,0.0005484437332991425,0.61
0.15597232596137017,-0.12673004773664953,9.749412402939486,-0.027932978505427628,0.005665047588463765,0.005588355644967966,0.62
0.0016364556595893755,-0.04581650587188045,9.835628808696569,0.00018110155488508327,-0.0107399745732861,0.012312230865659489,0.63
0.1650306460070723,0.08324211000848351,9.56781153093867,0.02230060709442226,0.006776364716028944,-0.011968200568618411,0.64
0.05090433723790838,0.11187714098180178,9.77546691163026,0.0012281160365097594,-0.032319696028061895,-0.018664964420816103,0.65
-0.09689916748685412,-0.10294361093864952,9.725504536773208,0.0005905329415087755,-0.017506868281429066,-0.005082948591087101,0.66
-0.08540475594671271,-0.03749333578496363,9.79294842971182,-0.004856611738535079,0.0038910890341017175,-0.006164921680845025,0.67
-0.03797959533093251,0.06411625257684393,9.734312671278857,0.009318576717432463,0.0032821121485261512,-0.0007135041882471932,0.68
0.08921342815842477,0.014512224281517702,9.834025269333223,0.018136422160338016,0.008866413658023936,-0.007198668637956884,0.6900000000000001
0.12328621129096883,-0.11488223783641907,9.879879236638752,-0.007070458949793877,-0.009371769364555079,-0.01954827517828458,0.7000000000000001
-0.09490596342133747,-0.11529977839200412,9.811375847138782,-0.004084067312971072,-0.009583367469983077,-0.005864601001763085,0.71
-0.22145491815091028,0.01762972054682189,9.90720953062677,-0.001284428024291999,-0.0003513432362204266,-0.009372700634618425,0.72
0.11234718435036835,-0.1381711844237267,9.830898480280457,0.0023069534064604066,-0.004419412370268332,-0.012087558340397637,0.73
0.08670761026426421,-0.05416160867503453,9.828357661819428,-0.0036718398660379914,-0.001745165080950841,-0.0010411008246447168,0.74
0.01819103928902779,-0.024949198066262186,9.755583455320918,0.004828630368429457,0.001805472319889712,0.017736434625427278,0.75
0.02741007750138399,-0.0009499266327339224,9.821040139938688,-0.00556512553041422,0.0015667304056792412,0.004058006915900663,0.76
-0.03836511165472605,0.15177567271432493,9.752066715941481,0.010412729797651087,-0.00587083837330081,0.0035805363676806802,0.77
0.10963231380517856,0.00757769393655661,9.835111979305717,-0.001721981092113205,0.0030399789696575297,0.007078990884279931,0.78
-0.01635942953455349,-0.07770037772873505,9.631538216251808,-0.0035226314598345784,-0.011399136129900568,0.018812324260772714,0.79
0.025073152009409308,-0.07477405835781378,9.937851279546786,-0.0024319807974182784,-0.00163647192775312,0.015552324667301061,0.8
-0.1027159573006806,0.031064085213585266,9.910241017146923,0.009076476997336477,0.01331714759222191,-0.01395141001255283,0.81
0.07589402176718651,0.2591003035468423,10.009559163624395,-0.004096852943929733,-0.017845492899568778,0.0042044858673070595,0.8200000000000001
-0.10589803548176696,0.03839960643529373,9.973053433453867,-0.027011737302551807,0.00464533358063169,-0.010482784837762524,0.8300000000000001
0.09578219424987576,0.035551982643075256,9.930181162619965,-0.0022010407101957087,0.0261740605652674,-0.0012581160496804395,0.84
0.11970521350819877,0.0030134923438209695,10.044576574633773,-0.025096594765160796,-0.012982627042578217,0.011494520251605798,0.85
0.12601054350914248,0.11403788327596594,10.064560335537003,0.0001698572401389679,-0.006109998322224673,-0.0028664697433229028,0.86
-0.008554818201146874,-0.09647367897248187,9.785673582007131,0.003171809214337501,0.0011284977777006302,0.0054514866507552615,0.87
0.017565458335060055,0.01093050075482778,9.813504540914142,-0.003081517632218621,0.006931327850022532,0.013827853506366162,0.88
0.024564062157850206,0.24029907217588728,9.894633777003559,-0.011277310062803324,-0.002412594567464454,0.011891133061452897,0.89
-0.1307408169245354,0.035150690857485185,9.858668941383392,-0.007528815621669393,-0.007915112980798767,-0.005612936192910608,0.9
-0.21414130911203563,-0.007750472099394408,9.868878795896753,0.003268467155148696,-0.01114208692338254,-0.013339477305267298,0.91
-0.024044756184559535,0.08315209796578554,9.737525627579332,-0.00020545730165917798,-0.011653322206560854,-0.019726624222161624,0.92
0.16213826265199446,0.07580093295202898,9.67143024167392,0.00127006440217168,0.00044899485296790885,0.02080433590945989,0.93
-0.08187610874790605,0.0892035452863392,9.741046440498929,-0.009670639402699716,-0.012520536100768762,-0.0005096894484505938,0.9400000000000001
0.02328631723784247,-0.1876050854768778,9.93206775131707,0.0020397313782094346,-0.005287160901001422,0.008119373188809807,0.9500000000000001
0.04110303484257999,-0.052340984071372165,9.807340798614524,-0.0010113712466162886,-0.007134445161555983,0.0076972004473066374,0.96
-0.011830982440923739,-0.2247907274000982,9.834546624753694,-0.00754328596677693,-0.0025540991693904424,-0.006940117276055835,0.97
-0.047251886684137975,0.012323044578339125,9.762402166108304,0.0022858554586841105,0.0005715105871747538,-0.0076424967271964475,0.98
-0.0761256995115736,0.09828805788320016,9.662558432967465,-0.009533883427672548,-0.009324623076562386,0.00025418384164979126,0.99
-0.21757535077812387,0.007056745452221378,9.850674052177725,0.01193454061196413,-0.008297074465119026,0.007933959511670625,1.0
-0.08184612252349863,0.1163509608033234,9.891506875882017,-0.004228655993916535,0.0059619410679272854,0.013295740650682357,1.01
-0.07689503690181088,0.107259966446633,9.769538804583176,-0.00010726250568521579,-0.011801223999162858,-0.009529496168598429,1.02
-0.0987020841772943,-0.09369543583963,9.96776279919412,-0.0008588464359100682,0.012471691206203355,0.006574960582223035,1.03
-0.0028139966495333677,0.13528965654032266,9.718988951186146,-0.009290522995727756,0.0002027280717159164,-0.0058988824892644435,1.04
0.010474297489431253,-0.17765697530849603,9.89683765323358,0.0007597766687532111,0.007348423976296231,0.00025926703853143773,1.05
-0.12940055227960554,0.0549245037327482,9.901261618519015,-0.0028521102895850137,-0.018380103745859716,0.012981030434323393,1.06
0.04455655706262261,0.14112058863072882,9.841002036589051,-0.0025673892429914826,-0.005134301746110309,0.0008442674736089797,1.07
-0.013235534119936372,-0.007183926005001904,9.711665734137712,-0.013818266702138367,-0.002126986424289362,-0.00660679772798693,1.08
0.20661297367221204,-0.13855921027399018,9.945429445221027,0.009018617893434432,-0.0015235337738385513,0.002579237543417821,1.09
-0.0982150437221595,0.13317745292627323,9.870078956695215,-0.021050381829590927,0.007091754460850275,-0.020838191423644254,1.1
0.09922696735829707,-0.06306741729123005,9.898569970949687,0.002544394113488022,-0.011000939630215152,0.0077317392957038595,1.11
-0.1308676184720067,0.12056399499191016,9.969590624322384,0.014105896000631522,0.010249261204871256,-0.008902739671246569,1.12
-0.1532096738280484,0.06340629747315846,9.744013021607827,-0.008803938114625048,0.01601161755940841,0.0040560241858329325,1.1300000000000001
-0.16597142078702257,-0.06881590592680992,9.703638629448847,-0.009881354030701365,0.0048740326008353645,-0.00040178229009300896,1.1400000000000001
-0.06797111971463503,-0.04268150087278991,9.733326373185122,0.008572942572928299,0.009187267511348443,-0.026415828964324754,1.1500000000000001
0.11922493881700712,0.06538769604019039,9.772003050012085,-0.009791237153194765,0.01741720974865613,0.006341757925547087,1.16
0.08134689103818267,-0.16736905341958,9.8699769604802,0.015499521826566158,0.008673759369310884,0.010454116381629172,1.17
0.06833000300833844,0.0781775108021991,9.794962491316623,0.008586171688018942,-0.011411237172094307,-0.0008433083268530476,1.18
0.17021563689369573,-0.11698249979118228,9.945838870637502,-0.00046741635922718577,0.018589524076337932,0.004943885132383884,1.19
-0.06457404362367068,0.03880383920688986,9.753387556444327,0.012268611421756741,0.0025671307057875854,0.007915945619473192,1.2
-0.09627046629262799,-0.10113626828683418,9.822398339121822,-0.0034855762375159078,0.008565700625916052,0.009870236108079255,1.21
-0.054746508217384686,0.009235914952108569,10.081122776584436,-0.005165247907272247,0.00144880330889377,0.0040279583655912525,1.22
-0.18348434629733046,-0.07923905409749288,9.793793571547848,0.03185770693747726,0.004385562746491248,-0.004279581270042235,1.23
-0.003002281142751344,-0.16562653887926168,9.818334739426795,0.008103143010921382,0.008317744494263375,-0.0029975551288312138,1.24
-0.16765218112876043,0.019817097237806083,9.945035534443017,-0.016418301098639936,-0.00517490418441534,-0.0063331713974870835,1.25
0.17589406389110382,-0.010186528019564677,9.767778073910408,0.020056822691429558,-0.015824365758119584,-0.00201320087507558,1.26
-0.11121688574850244,-0.17118308305794042,9.933336977453942,0.0016221355331579859,-0.004936001027177407,-0.009204236743408718,1.27
0.06583338592950963,0.3175147855197493,9.756460141143695,-0.0031627554283142306,-0.00025163462408573327,0.010244557199434312,1.28
-0.008219641593715143,-0.043991175772643165,9.767496226620272,-0.011754317749268203,-0.005320351712449687,0.0181401985314722,1.29
0.07940674801491275,0.07073898544005967,9.758928676233825,0.01002728773520021,-0.009353302477003807,0.012751593114569982,1.3
-0.019930534943402828,0.11267437092960673,9.791856609688859,-0.0010581929732660837,0.007151584338243595,-0.005557514003415716,1.31
0.013258648070443222,0.06846691255892777,9.819952778570835,0.014409665272356367,0.006378201615817543,-0.007212461788722575,1.32
-0.01407523631734849,0.18570562722450923,9.922694019496317,-0.024570270442473622,-0.0014926034509774974,-0.009813484905144568,1.33
0.005432581774255061,-0.06766382108185025,9.809381031476462,-0.0114134402377223,0.015549343682659611,0.010608469030411372,1.34
0.026477887010612978,-0.09561893201188841,9.880553029193326,-0.007528563076976495,-0.015141880998669468,-0.004307425260046882,1.35
0.1496278741997979,0.05600912121051347,9.897213793350724,-0.003155836589962104,0.005499556238011413,0.017367579169321433,1.36
-0.07481707143149931,-0.07025915614153552,9.838707845887079,-0.004433164958933191,-0.015726022416334966,0.007747047224166687,1.37
0.009832981774759011,0.021476402564033884,9.843944754253089,-0.009601439899057995,-0.007147949031252422,-0.012092650222526773,1.3800000000000001
-0.08249244104124195,0.28699649835579377,9.718084943706568,0.01388161500194166,-0.011058658723857716,0.01201846345823679,1.3900000000000001
0.04267738165219654,-0.012878376340186513,9.826645494143571,0.0038343181115428862,0.019080609146293736,-0.0021752341414625156,1.4000000000000001
0.07466465148433339,0.08365682496798256,9.831111307042907,-0.020718462494973947,-0.01329370659102389,-0.004455217027844965,1.41
-0.020552652091431037,0.09741381927403325,9.797055182522184,-0.008707706556777686,0.009488649019911278,0.025792809537846795,1.42
-0.3038067153906832,0.06577895213680829,9.870791534187614,-0.005632911503654805,0.007582188426989122,0.003174625771059887,1.43
-0.022103662846522713,0.08157084677351065,9.790134667369408,-0.0021629770782611467,0.015534401228291164,-0.013266497992930552,1.44
0.17186153057991974,-0.20397489786502043,9.906843576299947,0.012105309401855063,0.017328482699265346,0.010424087887327065,1.45
0.15885133272584653,-0.056228162825,9.792882422008807,0.014692603218730711,-0.00214889180974856,0.0035425753162682504,1.46
-0.04219639991285503,0.21720570028766206,9.765719298304807,-0.009180729062323511,0.0021617947385673786,-0.020174701016019474,1.47
0.11489546947698459,-0.08180272252173987,9.618521942964824,-0.0033708644000063253,0.013256242554855548,-0.007221857327240938,1.48
-0.16859402171808047,0.002792153242005976,9.842622487174078,-0.007534156066508411,0.00602818965761415,-0.016124170893875606,1.49
0.11183840407103006,-0.10375911693786687,9.85236970136866,0.005252961014798121,0.0009324428919248684,1.2295784960425458e-06,1.5
0.07402170188236668,0.026319856471574168,9.766215154465291,0.007360701078998125,0.011150892861321555,-0.006224506728645051,1.51
-0.07898778285086909,-0.07049763873355389,9.660579226753887,-0.001888348225159146,0.0067048312386320495,0.007228797640178234,1.52
-0.14235294386710695,0.028650036891125483,9.773073986862618,0.012175228213819802,0.00445138854494939,0.0005073346441168392,1.53
-0.038785064386012785,0.009613103692238938,9.79166972566689,0.0013092688633993882,-0.0015427866676864558,-0.003212367672285496,1.54
0.06891488381618299,0.11691585462354273,9.66728601362247,0.006474037956187481,-0.018307354746329024,-0.0071540626569184,1.55
0.0043673025839090765,-0.11357781427125978,9.704852991503483,0.008362839301408022,0.0026291535400707563,-0.005732594149557937,1.56
-0.1447734976775168,0.012725559208858941,9.770032772737443,-0.002079485026291586,-0.02344460012656397,-0.0018132625743525037,1.57
0.23186872630855104,-0.08751677787947781,9.850180766880271,-0.028360457116865488,-0.004488451216020943,-0.008066897107926452,1.58
-0.15095976563326738,0.035221712482067895,9.757814571056135,0.004036000791185369,-0.012462812051852085,0.00653069164635344,1.59
-0.00353978908471354,-0.055518658359958485,9.84848518692031,0.007996958163149277,-0.028480566955441457,0.007461806178762544,1.6
0.12643158197982307,-0.0881419430292964,9.843334461262497,0.0031364335536923794,0.00505983863800393,-0.005421694764084598,1.61
-0.051084277795121015,0.041990717951687996,10.051049830983613,-0.004409921108141244,-0.0028777189491806182,-0.019056565246884035,1.62
0.03508509665878039,-0.05165274944609466,9.823433666867789,0.0034747448516959283,-0.0005301331952791392,0.0013807012534666494,1.6300000000000001
-0.002990100981908543,0.0028935794032899586,9.785569845110922,-0.0037343238536606677,0.008604666508516094,0.00896359879718646,1.6400000000000001
-0.028547393635383313,-0.17274167189162096,9.890068381561163,-0.011111058099173534,0.006724185666198692,0.007735840630817225,1.6500000000000001
-0.0036803075528849347,-0.05159807756586833,9.872489473860595,0.01616049685397783,-0.005706501831011091,-0.004055834120827044,1.6600000000000001
0.017413535493859617,-0.05107105057110119,9.789380919993246,0.0002213092327944111,-0.021572450492202466,0.0014457094764433178,1.67
-0.08869411672635964,0.08543892881934106,9.94011289031419,-0.003923924560795718,0.00026735072067488036,0.017912706328958635,1.68
0.057394706819826724,-0.009986545752819515,9.98668911791343,-0.005335344835415661,0.001232064308835026,0.017759941233125114,1.69
0.05910560072104679,-0.04536696156938874,9.869991485409827,0.008388996776386198,0.0029261361196296584,0.009515733754528391,1.7
0.030058442562289584,0.14165674664231648,9.765488699040022,0.0008810867758276895,-0.005934952681589059,-0.0048261862063516256,1.71
-0.025620507597054365,0.10986971454086676,9.79244388650943,0.009634906351437544,0.009687632159826496,-0.001223150814143595,1.72
-0.11096182684391623,-0.023256120724533744,9.815973841734285,0.0010548906957213798,0.00017732898159339295,-1.3698046776079798e-06,1.73
-0.14572501291664544,0.09079659433055845,9.883548161848523,0.0024717250846645962,-0.013010345425901067,0.00034032022737478607,1.74
-0.09586425258167784,0.08424925808978272,9.912711902868171,-0.017472934714743853,-0.021099952450381952,-0.013311911860959254,1.75
-0.05744459846705694,-0.037963900742184996,9.781390759179414,0.0025226345313862242,-0.019956824108935286,0.0022552860979954564,1.76
-0.0889605716280748,0.06932993558847027,9.949457904031501,0.00884970322312199,0.005366036420612891,0.0037409807402559413,1.77
-0.003511699879347833,-0.1727654028730078,9.915784515983963,-0.008121245926643766,-0.009697089184876296,-0.005779146493699122,1.78
0.007159230453417236,-0.1722824026450223,9.93065822795058,0.00959759906128965,-0.017579430318411027,-0.010747806428390272,1.79
-0.02763839135941574,-0.1440320595675826,9.855873481109734,-0.002922565154815839,0.010506709399540227,-0.008355328068019039,1.8
-0.06519083626647267,0.058102644953747534,9.740050518967754,-0.019731885363913758,0.032759117355806784,0.02464383208983644,1.81
0.07308906747953685,0.13318308457397132,9.703207521961309,0.01005012448235488,-0.002736769829014863,-0.011554335712825978,1.82
-0.04890011463393018,-0.04294266873939458,9.845268364734679,0.01195756113557031,-0.0004347475616388244,0.011879572871686745,1.83
0.05849608395808095,0.05938872491314176,9.860103605931208,0.0025561003026362524,0.002365325951491963,-0.0014206565813318923,1.84
0.09450472889827546,0.03173301769166664,9.75688141853894,0.013970416049775421,-0.01719434095451668,-5.5137825299684025e-05,1.85
-0.06294005418584468,0.1048677969026824,9.924371491741049,-0.004191680455164351,-0.008021315073599334,-0.013522256655839343,1.86
-4.02215005194528e-05,-0.12761865779755233,9.743274731371901,-0.007175862410110844,-0.012296053431314567,-0.005436685307762708,1.87
0.09238307842041657,-0.10434446928900301,9.756211744984624,-0.008082805582289904,0.0027226520659125036,-0.027726212446769965,1.8800000000000001
0.14825918555324222,-0.0023700744491881934,9.779762527219383,0.0012644276428458701,-0.0009075625237428835,-0.007880012420425402,1.8900000000000001
0.14527196912530643,0.061962747039364496,9.872672645368924,0.006279575883978039,0.020773316039516966,-0.007838734101635957,1.9000000000000001
0.06269578482410675,0.0050487115816422075,9.826286156129948,-0.005932162782753024,-8.910346550473028e-05,0.01681990161097203,1.9100000000000001
0.09726335992231522,0.14126404402323398,10.039571051554768,0.0010466039687239842,-0.016136992275794286,-0.0011665482479440098,1.92
-0.09975631770717994,0.07013478463483966,10.074811421585208,0.010819517225923671,0.01588314201440173,0.008398260256145259,1.93
0.008045042439650851,-0.04421258726719812,9.806327591322786,-0.003965505337602316,-0.0065588960860267845,0.004047027275703606,1.94
0.04749080459648161,0.120016187772601,9.975381047031918,-0.010538208869197296,0.0009888166978294724,0.005872186791304802,1.95
-0.10714883127747582,-0.09840694217096516,9.823680882401003,0.0019318995804545995,-0.0008226951190012512,-0.012563983362224137,1.96
-0.013187423609399326,0.01603662410244156,9.807950009951963,0.003966968466529472,0.02354169490291219,-0.003965292470372949,1.97
0.12463677932057549,0.20666582851040496,9.824949151563986,0.0007455695346959541,0.008741635146644399,-0.017238094059271875,1.98
-0.010556156887090275,-0.16006026118080835,9.846079006856382,-0.006532271087349047,0.0006970320405387012,0.022959321300186332,1.99
-0.18437153864640599,-0.11519989888265383,9.92103507703696,-0.007827355641957438,0.004261445154933543,0.0004535427018534734,2.0
-0.10005016031063796,-0.04696795656123321,9.528172090631607,-0.020846800319229503,-0.0038577926987248667,0.010795820548066722,2.0100000000000002
0.12526125473172567,-0.13614675103134832,9.75632609307862,0.008147287776069252,-0.009474454712279725,-0.013169377961524118,2.02
-0.058880287635715546,-0.06743779864637707,9.915725412492604,0.027606108608769275,0.01499888710426455,-0.003995760205894706,2.0300000000000002
-0.12802289788501678,0.091525267585763,9.683611106711162,0.004539131056308996,-0.002863878371861564,0.0018883158110678908,2.04
0.32449846419267103,0.026487164354886766,9.79370049427558,0.009979098206762148,-0.016931359303154432,-0.017019297973221263,2.05
0.13934719436121257,0.08762249140592211,9.785986116407342,0.003773256442753273,0.00021752828824194844,-0.0006694408383284178,2.06
0.09982516254265825,0.06955939889365659,9.630410617446412,-0.012089964990143871,0.003403127472066197,-0.007240323543564562,2.07
0.2173790411947797,-0.02064551051421435,9.754394505991327,-0.008501345204957189,-0.002035329622102863,-0.005090934084512396,2.08
-0.07392150042912016,0.10280864512744133,9.73814734900923,0.011039633932631557,-0.007927340629574339,0.0034345205064798814,2.09
-0.06707308510053621,0.10959518558336578,9.95320358886638,0.0021363056308660046,0.010793809864246868,0.0024822678643033834,2.1
0.09527120002000905,0.01829385989941173,9.826479477235033,0.010132187544005848,-0.007427008347434234,-0.0014910225185813478,2.11
-0.05241990712381517,-0.037100263579161595,9.777575320423159,0.006452067578986605,0.007033861468545367,0.010511508196904367,2.12
0.0516024560768224,0.09225333922872424,10.095132519991417,-0.01522350295351202,-0.011318364463348772,0.013824176598709874,2.13
0.09112121765460535,-0.1895217122145432,9.918835464960098,0.003987988310526042,0.005755587503986985,-0.012918966440820924,2.14
0.11631030702269884,-0.07522681342844487,9.756723410160555,-0.003932104156847994,0.008163101101548305,0.0014053439315789033,2.15
0.0298118600181019,0.042150106679589565,9.942435416840487,-0.0015737841352144362,-0.014136412334203688,-0.00265574419032309,2.16
0.022006198303479746,0.005982902261146637,9.97858197922659,0.014841583311443361,0.007568306777621637,0.023903798432740864,2.17
0.0872487222386747,-0.14760190195588838,9.765023060307533,0.004809128763852343,-0.011315971663301066,-0.004889384340302256,2.18
0.0763848733386497,0.002703207158907083,9.689526112623495,-0.0023206141233194496,0.0004958171432331409,0.005312770740616321,2.19
-0.05003300403995995,-0.14721862682377393,9.900043510192534,0.0009824057316662573,0.00898286093943421,0.007335157470781971,2.2
-0.027431113808799052,-0.05860363024819531,9.88084391555735,-0.003860096809994705,-0.0037180326603422527,0.013896670893649623,2.21
-0.0043697814496933066,-0.0511703004176704,9.864363864169936,0.0007642510314617647,-0.0032054998327995534,0.0018487425681771002,2.22
-0.032831529347120476,-0.16812936932067002,9.9543452276582,0.009567259521876464,-0.018199778328360047,-0.01228149229941434,2.23
0.07891484629684406,0.05812032796539891,9.655295527885723,0.003956193170213284,-0.014675104971740656,0.013044361800372531,2.24
0.016510401814406262,0.18349488915985532,9.763531833830394,-0.004330297168491299,-0.01121080756925137,0.006508195860822768,2.25
0.13561387416016904,0.03367488056187552,9.838338956206607,-0.011313774978709874,-0.0029170768843085667,-0.015372128705824198,2.2600000000000002
0.13192714696720484,-0.05264543195427632,9.68571095454039,0.012280274264354083,0.008775437340932035,0.000695139362824614,2.27
0.003320591775813034,0.03149784664600594,9.689662326605923,0.00827426330870883,0.021810750439361388,0.019400021869009427,2.2800000000000002
-0.050272956533957594,-0.18073826177044283,9.805557540034883,-0.0021785096469222713,-0.006478959361890107,-0.018746337297485597,2.29
-0.13395927535304475,-0.030778670539347963,9.812807491313395,0.012942485832436065,-0.007326640584715934,-0.011449166297536704,2.3000000000000003
-0.01958216308790994,-0.1158966303413789,9.697196024452673,0.0055616060528825275,0.004429718789128727,0.007770848587510224,2.31
-0.04730555123506234,-0.02632674092255175,9.909755090618754,0.008571376990690315,0.004296752318564169,-0.01720528381539188,2.32
0.033916690842039035,-0.1854943000269638,9.637170453393514,0.011900021764193634,0.019338055139701466,-0.0076172484516562914,2.33
-0.037067768069928925,-0.08898954764615265,9.657282089399459,-0.012164581773694805,0.007110181815908171,0.0003720827360399439,2.34
-0.07730724554934255,0.05001830431624296,9.921193532369102,-0.010006052169859454,0.005458719153017722,-0.007484812995637913,2.35
-0.03507998783905598,-0.10094000414512908,9.62393207712064,0.004628906454397305,0.01319862676782825,-0.002734607592433514,2.36
-0.0914208898841879,0.12504995912530434,9.82685993221091,-0.009745343165881064,0.0069597354617424115,0.0012143990205638008,2.37
0.27931488605446914,0.016230359807780228,9.803745091060787,-0.013536889892232467,0.016068693477151574,0.026092472372681367,2.38
0.13070951245602572,0.08839521592407354,9.877399464408043,0.0003724138878837151,-0.002334866302422941,-0.00013848807035116343,2.39
0.09669240752826991,-0.017755116290634327,9.789289875003005,-0.009449455607870055,0.008871764385116363,-0.0046437283804838985,2.4
0.03553516034500386,-0.15662399243287822,9.641870021906636,0.0037499704257263813,0.003896531879684245,-0.017561583680481347,2.41
0.1757352804849639,0.12836383538225474,9.731632323322803,-0.007523020047516529,0.01430486733595002,0.020378345521064697,2.42
0.007662650857519843,-0.1413873892502332,9.817921674233167,-0.0011201573044629274,-0.009514787138645042,-0.0049326102872073166,2.43
-0.06502702946653807,-0.03170536421538247,9.877365083130977,-0.016420733958748376,-0.010298688446671289,0.020311822270712845,2.44
-0.2908978429327324,-0.08386645845658405,9.72367854416146,0.009276841437558083,-0.00529216733450425,-0.004859812839448905,2.45
-0.011277086796054357,-0.12285063063844484,9.758406445322144,0.010960791196267446,-0.0018032362531858312,-0.007198328889408649,2.46
0.040914886465196434,0.19683477815865189,9.65825073052404,0.002777840133388718,-0.020012711379276796,0.0034739706195740156,2.47
-0.10125032014674121,0.021827907723829195,9.702112209216091,-0.0015338400242653034,0.0008977984300728628,-0.0169895199965312,2.48
-0.22003115737861612,0.17060451379804653,9.707417851921841,0.008839833415521768,0.012746753576454174,-0.020478411431406943,2.49
-0.030059667570531485,0.0298512416475577,9.821660689064167,0.003720718353962344,-0.007032196397771651,0.0149939276411275,2.5
-0.02249171576812833,0.0738465024528812,9.701278264186614,-0.00699398621339356,-0.004040145866184346,-0.0014950842792586985,2.5100000000000002
0.07475772366997256,0.08899412797698353,9.888155885673024,0.005729937845834669,-0.02362774391578669,-0.012842768626540386,2.52
0.03755347140160592,-0.04603947260415662,9.873154820674136,-0.003224749810009346,0.0021879427957787797,-0.008814249510077256,2.5300000000000002
-0.025254405789723613,0.013270250589246566,9.974603793548019,0.002995404662234351,-0.012922048971721172,-0.0028097080734780246,2.54
-0.04562520824363491,-0.13313318390230888,9.734370215484807,0.010908832160442302,0.0011445703933874582,0.013725565022228116,2.5500000000000003
0.2502638654991324,0.0395829144596792,9.801058513253988,0.027921537906919362,-0.00867497958903223,-0.015019610046922625,2.56
-0.08575782294186962,-0.13035524363078074,9.96251571747766,-0.00221202940266694,-0.0006876926539363163,-0.007626885944703128,2.57
-0.05690368272547193,0.16496424568158305,9.858743697343494,-0.0052004296754783255,0.003161651333470707,0.009612835516274587,2.58
0.11953529096802598,-0.019823518976728842,9.894569093345389,-0.010127948180506994,-0.0006140522451212808,-0.006196319015033582,2.59
-0.02504370965639376,0.038696372889956115,9.8533364754014,-0.0154748511785459,0.010850422429733613,-0.007739135296836671,2.6
-0.06713072509815647,-0.13072958557119915,9.783464831736215,0.008169230159187659,0.005177755478316364,-0.01478020000950024,2.61
-0.005562241464624298,-0.02856565901533118,9.959809618923876,0.00247440258786053,0.017758780486353355,-0.010841017693673346,2.62
0.12632748686459014,-0.12136754965514529,9.85747992712794,-0.006301847554052256,0.00209979286845669,0.006527147334596654,2.63
0.2985552984651507,-0.10157597634057175,9.845601155208026,0.022469104372299164,-0.024442501411666453,-0.00731214585267232,2.64
-0.05710866007975987,0.053359787687399046,9.89845767819563,-0.001099618247011951,0.012823307986622828,0.0017433041407798984,2.65
0.01638414090943916,-0.020596321387587196,9.844032089896249,0.012385312340712565,-0.006171262819022101,0.008410486305075626,2.66
0.01038883826334539,0.11264655789058081,9.77627276010761,-0.0035698105354560663,-0.01650499447961953,-0.0018988512709386127,2.67
0.02054931549963193,-0.09285778174810091,9.69628055944497,-0.007879749037211437,-0.0024818945799130582,-0.001569646044028421,2.68
-0.028180247402575062,0.1631858391986406,9.806634747049088,0.0009245463416126408,0.019458999770560228,-0.018426840541658145,2.69
-0.10062038062188156,-0.029158027566146185,9.616574976476233,0.018865251368404307,-0.022871798545498038,-0.009325730622482205,2.7
-0.16083733531279326,0.012619144918206105,9.765299333710107,0.02224447959416912,-0.0156255193591456,-0.015542485473911504,2.71
0.006626739916551227,0.10122865433579586,9.986230743654728,0.011388777328933177,0.0014804801259917005,0.002582352059308968,2.72
-0.1311789255513851,0.0749078513481243,9.677295519305408,0.008946832954847612,-0.0005485920209926809,0.004062046038786919,2.73
-0.16699140290964493,-0.016444364531671772,9.742589737532583,-0.001915906771076887,-0.00574148907048612,-0.009719749898452262,2.74
-0.13549280721983786,-0.11131910792038886,9.920386459213649,0.003919199681626409,-0.012957582377970643,-0.007930567019408998,2.75
0.13462619455973765,0.16687676153343176,9.81920005147224,0.017992380188195992,-0.017103593554058542,-0.009329382101865484,2.7600000000000002
-0.0018332184501855886,-0.018326824326331786,9.843055639476177,0.00572102800467462,0.003916238939757776,-0.00960618585034316,2.77
-0.04402086984526672,0.026800750473169696,9.71529832071478,0.007443190667224237,-0.001042034163462353,0.00213715538386281,2.7800000000000002
0.03913495136275423,0.10865082443582366,9.74092189583707,-0.016836351439200325,0.011079894532072549,-0.01733388496530004,2.79
0.03400909868558011,0.11394409813108825,9.7217196161117,0.008828693021431964,0.00018005818926266175,-0.012125617504169833,2.8000000000000003
0.057154128824946394,-0.10237625173344111,9.803290271151534,0.016114909376858666,-0.001724776948280711,-0.002862019195197294,2.81
0.035475827780263314,-0.06935176484874876,9.624319932537098,0.00990062614531877,-0.0038026212284715376,0.015583581720204775,2.82
-0.09156383752643726,0.04162982463787595,9.971298597401049,-0.022638569045261212,0.014437838640148828,0.00897223462865689,2.83
-0.0006151325044992119,0.07301945459217624,9.723555983231705,-0.002850279620870756,0.007428384042429304,0.0026306532774873306,2.84
-0.1318976930606193,-0.024807109583692765,9.780174697281398,-0.0046731459363276795,0.0031128276634712565,-0.009183076350142172,2.85
0.13509348019241826,0.2047873578612193,9.719414152260438,0.010354525307775154,-0.013728467212442624,0.010705022294060918,2.86
-0.08526922929077992,-0.14557487563155933,9.71061417974767,-0.001176377032515961,0.012046118659954455,0.004941993283194923,2.87
0.11823659690023135,0.10056079472074989,9.790860058847784,0.028503973891505364,0.0040068888888462415,0.0020801907378079636,2.88
-0.09301294901936161,-0.042714909776067685,9.890847283080568,0.009034353628860783,0.007900565309352913,0.011985356248614418,2.89
0.05453082733759179,0.022439106706133815,9.941761620321847,0.022000763557052286,-0.0012820130838087284,-0.007325194200435936,2.9
-0.04004530804219608,0.16155258517305734,9.793044190798206,-0.013994069160674286,-0.0055319999766810825,-0.007985861041838146,2.91
-0.014423047670588633,0.27000840642612434,9.847884981443293,-0.0008646983815143669,-0.0012822052233758643,0.0035151228182418105,2.92
0.028825515755456357,-0.06122563464790701,9.748001973877626,0.01239641154816879,-0.0018273204976191515,-0.0007726894110391546,2.93
0.01839168181448981,-0.03072877471984208,9.802703223092779,-0.0014030274659178844,0.0066611369835611455,0.014421651072285765,2.94
0.004873657546032308,0.005049232835748093,9.619258861994425,0.006091283432109968,0.012520195832969538,-0.0021699345291188795,2.95
0.19149085676631328,0.16908359629459646,9.824552126417032,0.007828207006875502,-0.009679766603187062,0.0039010534388300563,2.96
-0.09302576798441263,-0.04459090376316988,9.826410752891942,-0.012171341231050008,0.010040891197195366,-0.007161797751579359,2.97
-0.029913762313641262,-0.11733541469718863,9.81585166758243,0.016226434930950266,-0.006484905127258132,-0.009430934362535934,2.98
-0.006743821202944592,-0.11016977673819602,9.820054852829683,-0.0071511872830389124,-0.009429760890569823,-0.004273898717610613,2.99
-0.24528593951780536,-0.034889574871405794,9.73135468386424,0.00473358757573855,-0.022226803486420633,0.017877665399493484,3.0
-0.02808074771625075,0.04392704346665116,9.743878675188656,0.009309871048369082,-0.00012692890037253968,0.01430660618827989,3.0100000000000002
0.03948797756892941,-0.09468014557092051,9.705608689553616,-0.0075408246324635796,0.012711179119726707,0.0009214195153004622,3.02
0.04845516765750564,-0.046602487019470624,9.73617262175381,-0.004490021477671703,-0.009523418690441808,-0.006799272263204564,3.0300000000000002
0.1490500618368161,0.05343629924605368,9.969529109534292,0.013193841864157157,-0.004442489295432772,0.005540287612155069,3.04
-0.13556237103455634,-0.006021257833369963,9.80338027113682,-0.0028020589102356777,-0.024607378086588035,-0.005353187997342809,3.0500000000000003
-0.019620307278893866,0.10710535582799968,9.84166015429013,0.009659532526182811,-0.0048390096744540196,-0.001897127203035075,3.06
0.09461604614788255,0.06908140629127854,9.806197263283638,0.0052165568459734335,0.003703766197592565,0.0011772328251445346,3.0700000000000003
0.012305774041056712,-0.0014705897063526869,9.838965115869977,-0.005562440044469025,-0.0068563899914783275,0.008377591983718362,3.08
0.23018476264833063,0.06344234336583641,9.793541364558047,0.0045302455880314755,0.006390407051456849,-0.01814678846291262,3.09
0.17983509542453754,0.05209347542149223,9.872671215998537,0.0033475516971198005,0.005877065699824692,-0.003434558656786141,3.1
0.05901753008553136,-0.03336661314555743,9.915599175476046,-0.003562304548189619,-0.03459207438123826,0.0006313746534108527,3.11
0.09406651620718348,0.08437122724389803,9.84474198670599,-0.006114696472849786,0.004504192855851767,0.008477345303145494,3.12
0.13467760396908385,0.09881046384101064,9.830165135639426,-0.0175751623715782,0.02757161065134215,-0.004683473227084355,3.13
-0.09048282348499544,-0.12180849301904473,9.906446278297429,0.007027734999520409,-0.006165427246424244,-0.0010978052246082162,3.14
-0.045955728349023506,0.007780599606567868,9.736858932964505,0.010902896835580957,0.021333987110772105,0.0052814959064966804,3.15
0.028224223054106885,0.0934667639692523,9.84193587775466,-0.004848413681857363,0.008403872401267127,-0.018405282006063856,3.16
0.07109558212717243,0.07493439704148817,10.011721246278093,-0.006939126471610993,-0.009732381811498683,-0.007340543247182772,3.17
-0.02107153247852442,-0.07521857242024203,9.790088233611609,-0.0034192808981636427,0.008513724904317233,0.0017977698856997855,3.18
0.034980591434288104,-0.06290800407348517,9.745370016098857,0.008499129474776976,0.00506279483525225,0.008293102370740246,3.19
0.051539033677587436,-0.04434042320336481,9.808654547078927,0.001799874568203215,-0.006491778570725643,0.013575641662640883,3.2
-0.18513248207659228,-0.024385976705121604,9.772718061671865,0.008432456130136988,-0.0038481320248879513,-0.0030560182152190463,3.21
-0.21815810444743905,-0.08022157718649965,9.66049937476738,0.0047744777922874735,-0.007284755295273895,-0.007645867995674019,3.22
-0.14022552947246114,0.06755940549817681,9.863624225730707,0.006260416881540318,-0.015683411785027808,0.003307275410251855,3.23
0.033388311380041294,0.02956529002236348,9.758399398364883,-0.0014842637804781944,0.014658114015947285,0.00029775076222056585,3.24
-0.09148644195051014,0.045444810106442544,9.945350196136161,0.004766716261418105,-0.0033559632642076427,0.003246374885630557,3.25
0.12349166465272754,-0.018889191517393003,9.911035757535705,-0.001959865785173142,-0.0003866926159325404,0.008827733460294822,3.2600000000000002
-0.15300433374102632,0.05539912750383235,9.654417611370592,0.018041059913486156,-0.0040971933616554546,-0.003334697475650939,3.27
0.07261922664049397,0.019629897073110376,9.64224291094988,-0.004368735677089205,-0.008171970704726268,-0.009556798315803958,3.2800000000000002
0.06893733061377957,-0.2840118741667552,9.781028407907934,-0.018741997478986094,-0.0047648175821029875,-0.001803032194013239,3.29
-0.03670709842004107,0.10454280654403823,9.93024387510024,0.008748118801978995,-0.00528335479760307,0.003843886364820517,3.3000000000000003
0.06090698233964764,0.07630797948174112,9.816738542412875,-0.015103942873058239,0.0027798072656975,-0.020218528511283404,3.31
-0.14085817877430615,-0.0576256367505142,10.048169090535454,-0.003721217856579754,0.010951923529261855,-0.007154507112104422,3.3200000000000003
-0.11953812766344092,-0.09150197299296002,9.807892850197923,-0.009251791433937371,0.0016967057237392061,-0.005467973557171174,3.33
-0.015203855263843878,-0.17030189384889297,9.796889838835199,0.004851429925201891,0.002901776266809343,-0.009191632365488122,3.34
0.06040269902507785,-0.16129194242153078,9.794495091942121,0.00422085330172461,0.004313475258501732,-0.013943998296283646,3.35
0.07214585087341903,-0.10585469116701983,9.835322234175466,0.004512857674943122,0.00021404772618400687,-0.0019293217499917034,3.36
0.12113182749778609,-0.04769331839344526,9.74204254872297,-0.005203680934309938,1.1977279470505827e-05,-0.00962833870644742,3.37
0.09155315771171547,-0.012819389472506826,9.800857946289725,-0.010111747865506608,-0.004340575205378821,-0.01997250362963544,3.38
-0.10867398243865665,0.06070294542807031,9.784336999515315,0.0008802257401924306,0.02685399064584813,-0.0016731637875675403,3.39
-0.147660249312893,-0.010395978222151008,9.739993716263463,-0.014179596484845307,-0.004367880996330211,0.014317445779310947,3.4
0.0899445625705874,0.11237479960080582,9.854813558565128,-0.009502913367651614,0.0120239007719611,-0.010004865359908776,3.41
0.009873353710771486,-0.10410632541904202,9.823121747730381,-0.007852775381654072,0.008029149253485668,0.003962344735689151,3.42
0.19392161481733577,0.13007305963665286,9.772692825351172,-0.0017787218456540236,0.0011694297568388703,-0.00873106041946091,3.43
0.0903656872775449,-0.08863027851705568,9.831588588415482,-0.01345000586765552,-0.012294343513858153,0.003955990177814111,3.44
0.0905710097677854,-0.19508401760498748,9.89498126146556,-0.005102088154440854,0.011734820852088695,0.005369767223136811,3.45
-0.10911825111266178,0.0680457454576206,9.841172962728232,-0.003679213933538079,-0.005565998552002265,0.0026371348375654083,3.46
-0.10013822821157503,-0.011285738955829636,9.831135679876127,0.0016727557734669699,0.0055209086211813274,0.0246712847989533,3.47
0.027258731712077024,-0.11027634774079481,9.866534090386677,-0.016744348580671677,0.01992390509041566,0.0025704020262459107,3.48
0.04659564868068146,-0.01705069450547844,9.632622877600355,0.027436552906271353,0.005891593322999944,0.00032826638225221666,3.49
0.08718850452220554,-0.07165738598355975,10.002425588382861,-0.004180722614778113,0.0022006000509573256,0.009170965215241309,3.5
0.014555333558040649,-0.048293055448976364,9.883258681407966,0.020934980849929424,-0.006368277064036083,0.008480958200195543,3.5100000000000002
-0.005628136189520318,-0.16668716957281735,9.860737225434416,0.0069145163214953155,-0.015191901400552838,0.008165708625370322,3.52
0.006665863813471679,0.0862451526901243,9.692226034867167,0.014962038525967733,0.011089898332291789,-0.006463474182772468,3.5300000000000002
0.0032619720029418093,0.05053035717895549,9.887811692337243,-0.0168322111876851,-0.010157332530829264,0.005305258281294875,3.54
-0.1182491857221504,-0.0701109021436352,9.814734485175006,0.005963703822425028,0.018342431531599125,0.010851195771941007,3.5500000000000003
-0.3110930604843207,-0.09618337140966349,9.8319331568155,0.00014648832959610517,-0.006737475995679346,-0.008473982771793682,3.56
-0.07991395432799572,-0.024679381019221912,9.737414518250663,0.007488509397469153,0.0012430389357721467,0.0071560204020777105,3.5700000000000003
-0.04841559118448857,-0.010650407104407483,9.788006319367671,-0.004103559509811059,0.006120510214165979,0.012612501824269718,3.58
-0.024602495494935456,0.11456428702817473,9.683737620510552,0.009485291084616477,0.004759498689533491,-0.0029854104936101046,3.59
-0.11498818984663889,0.19666906463232237,9.822573996071052,0.01171028636608863,-0.013017914636977513,-0.008409147105632842,3.6
-0.0067422686416085,0.04260957306521036,9.878129150100223,-0.008954846513349482,0.001180203733411452,-0.012330792870373395,3.61
0.007374729073683094,-0.017022642290112897,9.878108070485101,0.021921346701801875,-0.015823292484963926,-0.002818865952301721,3.62
0.09912833248674867,-0.07844877009790958,9.742840635691802,0.010651042544011847,-0.003371038443915144,-0.002315618539450321,3.63
0.01586987461433021,-0.08568668079154748,9.74454269454219,0.004593302308922977,-0.020765044489143684,0.005361032811974384,3.64
-0.2610232528999953,0.1785531406693536,9.773898815966513,-0.007325925917566723,-0.011704104385350618,-0.003396220715100629,3.65
0.06694072359337816,-0.12712033980465162,9.782953040503873,0.00909289277105278,0.00206516930115829,-0.010630709211677278,3.66
-0.13087069801119325,0.03487133957757125,9.909953416862741,0.008933320978642951,0.005153763979397946,-0.0055449436402781474,3.67
0.03909554622342814,-0.11166267461684168,9.647419017651245,0.007734819697214357,0.012263180734374277,0.01552763327167695,3.68
0.11825857660655421,0.010890467604004847,9.77738511548793,0.002241816532560503,-0.007714684668898559,0.0069262900533671855,3.69
0.05474264048717922,0.023871259436915492,9.703195231557906,-0.004188014092110796,3.2829058883100904e-06,0.007559697612334176,3.7
-0.05994145615495185,0.03898917951362387,9.919455621715896,0.012041678225703043,0.00579556335726394,0.01732217860142753,3.71
0.06805590537815107,0.10330954121541412,9.734507577000674,-0.004162007077597378,-0.01713383786959524,0.006833292207739965,3.72
0.04864873278504422,0.0713307652020574,9.81681290754696,-0.010227647923567023,-0.009308389288437136,0.00017144448501308442,3.73
0.08835369168965942,-0.056487624521081,9.580663901714274,-0.018811668247318267,0.0011875778404394639,0.010313606298959038,3.74
0.1421343416708156,-0.10961108349692111,9.914526834741183,-0.005063942487495988,0.01963381501555147,0.011673400451737403,3.75
0.051771730885630356,0.1015947423947292,9.806110444084364,-0.02482514095140997,-0.0016683723204232864,0.008044613878017472,3.7600000000000002
0.01385660738833932,-0.05756308734951746,9.682000628432185,0.015117296337879818,-0.0026724415100468015,-0.01504408898928568,3.77
-0.007455379756094229,0.08133232851253858,9.681866959399736,-0.022379296244139625,-0.02275588819521574,-0.008657042237299755,3.7800000000000002
0.022775708748786594,-0.06517690782055885,9.712240330886258,0.006739598460723372,-0.0044034992393223995,0.024777492070242043,3.79
0.10077450965671707,-0.04523734825688598,9.751216898499475,-0.0007988643696447119,0.009374132690043079,-0.0174937824158195,3.8000000000000003
0.028043275615779642,-0.05643574393462836,9.724940776615512,0.0006678835788198647,-0.01279061603110267,0.00810259192761035,3.81
-0.011425820219606706,-0.02808209090324544,9.858850237041084,0.002696590880867251,-0.00010302209670230319,0.011333668863708542,3.8200000000000003
0.10931096803617726,-0.14865870896103278,9.73796856329765,0.016972155898411636,0.00043440503558102756,-0.00016648025646809434,3.83
0.02023910616064521,0.21484564903549663,9.712038953973666,-0.003960412038204732,0.011017903541959495,0.012650158696818455,3.84
-0.09329111160184496,-0.2470535154850913,9.931151113113295,0.005333715616979112,0.004509866806576416,0.0024040095301996697,3.85
-0.0668336130561729,0.04450063903022736,9.832854588639535,0.011118189499471385,0.006256366069753788,0.007938371515123754,3.86
0.048061024950971136,-0.056485270509648446,9.842520254349347,-0.008939309729107002,0.002521282260772222,-0.01787506297982496,3.87
0.15232858017182377,-0.06617873609864415,9.882412270399325,0.005454428807235185,0.010250023727029472,-0.005689153766673012,3.88
0.03543475581733043,0.12771729385812267,9.815252463485477,0.015469779069219161,0.014459128906912033,-0.00442772274487994,3.89
-0.01261450257855325,-0.09571703844373254,9.75086361432487,0.002304125372490901,-0.011406290542800335,-0.010248491445223051,3.9
0.04400364094247963,0.06339366938836309,9.753804771330941,0.006580040345645457,-0.0002560064350857215,-0.019109524496188177,3.91
0.16862679095838637,-0.02148814377202393,9.820856857872656,0.024399677007202768,-0.007319623208743713,-0.012168588222142025,3.92
0.009900763201784723,0.16863354189833035,9.811180409621098,0.0008758340184989176,-0.0027952283088197435,0.003969418726599403,3.93
0.07089749548145867,0.02974089017874943,9.930030164419689,-0.007500507579058313,0.0011221571150672458,-0.011748485587203832,3.94
-0.023210829831229053,0.08570327455520038,9.9128258566944,-0.014511524722557304,-0.007848951220944471,-0.014102015124198522,3.95
0.07631349109397823,0.1210955250610905,9.944185520797399,0.0018545024304723885,0.0030420114227679563,0.006197658543902319,3.96
-0.013918209304452395,-0.04249079735968196,9.77870419206051,-0.000306286506643825,0.0013834063552531244,0.007298246531144877,3.97
-0.13326123739526824,0.005070192670814843,9.934779407989998,0.01089350523632046,-0.03616682740487989,0.0071702088271279885,3.98
-0.04155240715140067,-0.02156426972302584,9.749986028879267,0.02022099600646917,-0.009844905260170842,0.015596544070349829,3.99
-0.04531787758246212,0.09378526296847445,9.977767932515915,0.0013675234270419964,0.013003415342741567,-0.008004982502069347,4.0
0.10911017273759582,0.007568206572369774,9.83996281815964,-0.0012472388890838336,-0.012095179952243027,0.006021851673461213,4.01
-0.06732970198214586,-0.017052686898032833,9.783035038840438,0.004680716801248992,0.010481203881317317,-0.007995812071477126,4.0200000000000005
-0.0665007867407444,-0.012538390910067086,9.73734343903778,0.007320776088812833,-0.003640036863916227,0.007195705487004104,4.03
0.2270010350190003,0.006247464404881417,9.863903122899377,0.02084509553451584,0.01736546239026253,-0.0015758482093118416,4.04
0.234008365586999,0.04178925766023416,9.749392444669612,0.0009790441094672017,-0.015911804408013566,-0.012859936801271772,4.05
-0.07154941687941457,-0.09630306454990424,9.988618864833748,0.01045107022049453,-0.0048531092568562745,-0.00542811222091729,4.0600000000000005
-0.1859920007963509,-0.023378482706081616,9.78676851867959,0.017952028489640958,0.012265826524116109,0.0013697933276346265,4.07
0.12420954579560467,-0.10042344875340588,9.763454058817263,-0.006430486613072237,0.02035785835326874,-0.0013517394521189638,4.08
0.025114007538098324,-0.09035397577410537,9.845370479483764,0.004011631147370106,0.006216725922018558,-0.003677831899990092,4.09
-0.04891020569735815,-0.03708260288801933,9.763988058391709,0.01994894674543488,0.004654834495200735,0.007998565889392116,4.1
-0.08812714719594501,0.10867488646389095,9.79096520057076,-0.00274234519208386,0.015340989595452062,0.013286789313448788,4.11
-0.10095904533535181,0.010421507264851816,9.715983693661077,0.011203714429098345,-0.007973364888295555,-0.0029508132639480627,4.12
0.08327786593452458,-0.0904057205981226,9.613016032993102,-0.011791420820150413,-0.004238154491042283,-0.013902873167531055,4.13
0.011041211055065598,-0.12457279043028605,9.91614574803106,0.009322140827395013,-0.019441486168064112,0.009247890776517272,4.14
0.008305735493206344,0.09107824323894474,9.790038926698625,0.009142245265362269,0.01091458667706406,-0.00016756572363872357,4.15
0.10987846971878323,-0.056259105695159066,9.932045750841276,-0.008091764460022124,0.0019461644266437802,0.014131030229656522,4.16
-0.011325875175224025,-0.055379639360511206,9.887374062936138,0.004819398605929627,-0.0029881944953386807,-0.003481209197412273,4.17
0.06925552377569791,-0.1491654976221233,9.746263061882141,0.005073939279597373,-0.00510299721647467,0.020872087931560063,4.18
-0.014907236544315887,-0.027788190652759698,9.844047259803794,0.008129916103067604,0.002794790250040069,-0.0005512366317003411,4.19
-0.0034131276534407617,-0.167114870174234,9.809807449232698,-0.005067717237710518,-0.012740551863667184,0.0038803641495139185,4.2
-0.010934568629744764,-0.12708208886289865,9.813706866501887,-0.011528966630289437,0.021865211016650843,-0.0011851873693618077,4.21
-0.12957596011811642,0.01754608263459652,9.833298022262385,-0.002012546119455257,-0.020437431833982327,-0.002824701849091105,4.22
-0.16487007948953247,-0.08230342334843786,9.887529075846006,0.0073626954501403346,0.0009063874736891997,0.004552974374225353,4.23
0.09800318851685312,-0.00471439245692152,9.784234572684934,0.009351298809248629,-0.009866146017864813,-0.009666966642245612,4.24
-0.03441248301071736,-0.07893862910077429,9.733452598326435,0.0033747525069974965,0.009214211684844318,0.0011080394291084436,4.25
-0.10133523909047588,0.030497269089512297,9.795017626369908,0.006502553908516071,0.0028925870877479563,-0.015484914704999613,4.26
0.05788493671502523,-0.056379633546795996,9.95447356477152,-0.001938150281527052,0.005434943333692373,0.004623692441512704,4.2700000000000005
-0.07379572279295452,0.056872289987488917,9.726647213281884,-0.01797862780717319,0.021387509581581938,-0.012661626242352952,4.28
0.11916331940737318,-0.04933106702087888,9.787315958542182,-0.006375658377999977,-0.004650300840139556,0.0031526356582053674,4.29
0.28167114432493406,0.039216956992644554,9.802406932469909,-0.012027380029979273,-0.004994281849553991,-0.016136548233766528,4.3
-0.05383599505641861,-0.11311081148172326,9.731821529903801,0.018924894434895728,-0.008156589068915348,-0.005222749983023448,4.3100000000000005
-0.10500017011254348,0.08723077401535892,9.847112421985416,-0.010675363980711639,-0.011323875436010631,0.005324609408475344,4.32
0.042853857560027096,-0.050130944210042654,9.974689770182561,0.004618660662358489,0.006914228268063658,-0.0005765897923671967,4.33
-0.08351098539621045,0.15448847680085803,9.799778741622898,0.00816626689842979,-0.013838903280816392,-0.007383332845506345,4.34
-0.01790239340913066,-0.025885840849608717,9.838809076078483,-0.009989106719469423,0.006102838205234791,-0.008100944631657624,4.3500000000000005
0.02929445427037954,0.11019268237348892,9.833257552019372,0.0008889147288959858,-0.00948596677622084,0.003581467455000611,4.36
0.06268984917980717,0.009024350216664735,9.867217830308336,0.001386300867327262,-0.0036633031545671704,-0.0033567014430587036,4.37
-0.17358535809225484,-0.0392153114151469,9.905280487903033,-0.005207843492235325,-0.030018043132742703,-0.011480883059212917,4.38
0.099634196892344,0.07547946940798696,9.953642616826492,-0.011293286729634797,-0.002831717367814702,0.00974817668923524,4.39
-0.11498840796227008,-0.03583833190292551,9.709652939961279,0.0016806961967711334,0.015841231808511654,0.010716509813031707,4.4
-0.13495060277622942,-0.20874404048045547,9.733139805780137,0.01977372022888524,-0.011998246926890813,-0.001950845263433091,4.41
0.016869454370584985,-0.12010450595342795,9.860950115250608,0.012565191823896505,-0.0011458568710981446,-0.0002874396006494045,4.42
-0.23324281030550972,0.04721873296540745,9.852979563624613,-0.009960610393459784,0.013568526452473218,-0.006629900345769142,4.43
0.08688342346433274,-0.04705939414996427,9.86037373424962,0.0017556928313482143,8.450533959466558e-05,-0.01173031557641281,4.44
0.06373296569244435,-0.18160207896661662,10.049755301508187,0.008663738376352129,-0.002753967866631388,0.0048093065428964,4.45
-0.02367817156916111,-0.0029283218123674955,9.845365577020953,-0.011229790898542936,0.010930676447358527,0.0033782800401609483,4.46
0.0038687991601110425,-0.018032448236502525,9.669494506734432,-0.0256135301614486,-0.015087421474936458,0.015580699167441989,4.47
0.1502993451564386,0.056229278188083535,9.956458695904317,-0.0016715259554972142,-0.011545369499697087,0.0037300424228495156,4.48
0.06840175874371712,-0.0031688914698243587,9.747741474280367,0.006184085431308113,0.009335639891756245,-0.012339816637881768,4.49
-0.022100204455569695,-0.033489300793363465,9.938021806569898,-0.01660580660203254,0.015477174572535144,-0.000895597133006893,4.5
0.11219452386498377,-0.012430945577059163,9.978168086822805,-0.005929377724926408,-0.012934848685673612,0.02083317801192796,4.51
0.09607214827949768,0.003168636587055426,9.837437576047629,-0.019582844146149248,0.0022481048738513306,0.005814925603533574,4.5200000000000005
0.08956095512186249,0.06250646145513761,9.831677030685755,0.010060619791137952,0.0006866684880045845,0.002958679509532701,4.53
0.012624896900374563,-0.11628689329910707,9.817664845309231,-0.007129191828767877,0.023404525370310635,-0.00956500688823729,4.54
0.10367438228090031,0.10703396249583569,9.78463337531951,0.012999252364728217,-0.007221450420587405,-0.005129504011193641,4.55
0.015524701203787376,-0.05877405839810972,9.855126331443206,-0.01678891682298775,-0.009629535885438146,0.013789384108982528,4.5600000000000005
-0.02035261310797368,0.10116021818393191,9.706486292470476,0.0019652433894785633,0.0075162315625130205,-0.007177008817072425,4.57
0.11153508533963329,-0.10654371002555768,9.787010383082569,0.011373876326613836,0.0016118956975782652,-0.0022544318370573495,4.58
0.03660245144096211,0.060034111837770576,9.636054695070484,0.02062716865036319,0.010977873939169103,-0.0023297120315789346,4.59
-0.012057319663430757,0.2348221709734548,9.870476153205397,-0.0013506536288107186,0.008409204208837503,-0.0008425988367471609,4.6000000000000005
-0.22110625114176308,0.10267605753096108,9.958810057537008,-0.016410550660040196,-0.003927265919658097,-0.004639658900600552,4.61
-0.07324950128240688,0.044157243221782994,9.826582699739346,-0.007510718611879411,0.0024639692363479875,0.0004995449952961584,4.62
0.04851153550409082,0.021895188388748044,9.698711933964422,0.0018920843134729093,0.0037059853011558504,0.0027019961289960317,4.63
0.1855444649926281,0.07242629993740178,9.721864945100009,0.00752349591162123,-0.02358528544592034,0.0003489329002133636,4.64
-0.1364590469693218,0.0037295049126879333,9.911194274186089,-0.003912672162205233,0.005163403663060513,-0.003966685667658761,4.65
0.08889379510100429,0.010041679246691634,9.81172553395711,-0.016080385194558514,0.003018297627385355,0.009715808807686759,4.66
-0.08911676341195607,-0.086417437078004,9.829199609730152,-0.0008160357591296818,0.0028456882541355345,0.009293654596105315,4.67
0.08439493288250288,0.05613096638760809,9.773823945216147,0.012874269326032814,-0.005378761459369669,0.003939718783967671,4.68
0.09589747615267699,-0.03451114193051523,9.87103347801122,-0.00998178961036319,-0.0047410527795428824,-0.004253237830658191,4.69
0.07911795568117098,0.15827144167817628,9.685472738384622,-0.020285127322980042,0.006471217698432298,-0.0015211404923575716,4.7
-0.06409319314752043,-0.12008318659071215,9.880667433525645,-0.01260816483278487,-0.026282960978251797,-0.007846068009236736,4.71
-0.08706954154733502,0.08403568718868992,9.820228478106023,-0.016624320201125413,0.0013076530916852466,0.0015510452070835398,4.72
-0.2556737955138922,0.17838221710603802,9.768495504078134,0.0012964881342244783,-0.019564346739836896,-0.020707005481892134,4.73
-0.15795724508046705,-0.008106101451726366,9.706440374669965,-0.014917326146376496,-0.004670946209945395,0.014306363738278734,4.74
-0.13985145151482128,-0.01820714230988579,9.76310661814872,0.005940512519583987,0.013335709871146646,0.00516500165037591,4.75
0.05777591991355793,-0.11395626477261599,9.943622999973481,0.0074511342127059,0.006754590337730609,0.005567945039716484,4.76
-0.08497458740728527,0.10114788808367209,9.88856459829435,-0.006078846001546263,0.0044501204623089334,0.005163882658963689,4.7700000000000005
0.06382865251902137,-0.003605108230669145,9.851985490313465,-0.0043506080996538535,0.004874893000054231,0.017120543037157078,4.78
-0.04605003882279143,-0.03884399352935941,9.732499553530712,-0.010307977636760859,-0.0035643144718787807,-0.0026344712397182325,4.79
0.0620185472579622,0.09384479696160769,9.646622551686002,0.009976128488522527,-0.008517765024575049,-0.002740676487050931,4.8
-0.09673902695615258,0.0894950870292798,9.792276842561002,-0.00471858942666187,0.005334893942473543,0.007241696520173363,4.8100000000000005
0.062175133797851515,-0.04770788421956776,9.505992161794738,0.013911043125701881,-0.00813066529744337,-0.0020004699727839623,4.82
-0.1551388845355996,-0.11417622528871052,9.865576221515202,-0.003492426126048678,0.004524207220369579,-0.00326733852554192,4.83
-0.12097842977509979,-0.009726023950432523,9.909077877748098,0.004702952505135496,-0.006705406779192849,0.007582495536286332,4.84
0.09450684514733852,0.20485115184248956,9.727488385935583,0.011388626179709932,0.014991704949740723,0.004089637886979657,4.8500000000000005
-0.07559030270896422,-0.06927387528087707,9.777530883327424,-0.0018943119416137927,0.014581004579172455,0.013320388821909135,4.86
-0.007353529041253019,-0.05196980720634849,9.900444145400122,-0.006296311257293793,-0.009678369308973103,0.019880657127462977,4.87
-0.092720574411073,0.06977007712694654,9.818580359711337,0.012278671220608097,-0.008452835650335095,-0.0015354867547969083,4.88
-0.11012297826473137,0.007274864848878845,9.809280762390511,0.01967802016725586,-0.007082349582502161,0.007320267099739381,4.89
0.010285293845130019,0.1282844781504127,9.953028968533456,-0.0011797049532347133,0.000503627380559135,-0.005780587186967525,4.9
0.22634364282080083,0.01554658704788948,9.61925548803219,-0.012442207789168836,0.0016905920270585686,0.01057033863622547,4.91
-0.011202929898539533,-0.08905756389174552,9.766637026038778,-0.0031572897302425034,0.005737522462776459,0.007696910382802141,4.92
-0.12842775736688253,-0.0042310857085155005,9.990846050483157,-0.0028242255138181305,0.006620497345731898,0.007432322379945452,4.93
-0.12276265077460638,-0.055225948734130864,9.865045355061483,-0.008350616707557627,-0.007382470047722798,0.009637096922237388,4.94
0.04414096090223874,0.04843826901614013,9.828071746958338,0.010602624014520215,-0.004890660922250546,-0.0064249000040034285,4.95
-0.042370574650072206,0.004749268637394617,9.716101767545652,0.013958311723837673,0.013981594032424709,-0.012352430014733767,4.96
0.13693648367428182,0.008131435385130156,9.951712663594918,6.542100019162456e-05,-0.014517703181653033,0.013357376143559679,4.97
-0.10697569880863439,-0.0795515001516926,9.750537548474163,-0.004345807200908609,-0.013212080819015877,0.012111709700046904,4.98
-0.14629888388956344,0.0491348085412382,9.730659870510335,0.014326131783664844,0.01588227173911855,-0.016458129930418668,4.99
-0.07718756409848004,-0.07415714294211831,9.789351252035711,0.010560062109858484,0.015052525777097927,-0.0018906423375480686,5.0
-0.06687417765149264,0.1720905840998317,9.658087639253095,-0.019547219467500272,-0.002048093558290799,-0.013939154642560183,5.01
0.08685511978501494,-0.04685458457116428,9.937982383728869,0.013196614424930473,0.017104520114964644,-0.012329062531260513,5.0200000000000005
0.03315812838711274,0.1836399082451346,9.875457108390405,0.010207758293189885,-0.006584021004121057,-0.004558690146426048,5.03
-0.09004159763672004,-0.05422690247364621,9.98206878889638,0.0042655795099030515,-0.0012560353673279898,-0.006419346480280344,5.04
0.00549026976540844,0.05842155754713198,9.756941782781144,0.005186608099268895,0.007315258932168697,-0.0020692474820394723,5.05
0.11191594861050302,-0.026838676554677393,9.783691382656734,0.020739242231317314,-0.018767815508188106,-0.0027061352592019695,5.0600000000000005
0.08335929452587226,0.16799624002342126,9.872734417497863,-0.0027450707700115125,-0.0024967256868203428,-0.015363561274275135,5.07
-0.04460044499952875,-0.08784589514310752,9.920541079250194,0.004281854390296218,-0.007312925677053407,0.0016638134446231212,5.08
0.09128876025811138,-0.020141250837445092,9.840313785795358,-0.01107998902845566,0.008913670264693472,-0.009907944883745518,5.09
-0.01887233479461447,-0.009686314654781904,9.646924009628927,0.010740578164098442,-0.006937426660564869,0.0019200977074152435,5.1000000000000005
-0.05571403414267319,-0.23026420601907246,9.760908800659628,-0.006202200947356042,-0.0032367809182173592,-0.0010498435205660822,5.11
-0.1472499866836828,0.01796414342107706,9.743489480534661,-0.01438931808538982,0.013128101994003702,0.005107099119530222,5.12
0.05946089206739478,-0.03749588702032703,9.747275346598508,0.0038493661524450825,-0.022991189907830157,-0.004616762103811011,5.13
-0.07791337892951694,0.005227268005182605,9.889619951075005,0.00876955426670484,-0.006287072550843396,0.0073577874888926835,5.14
-0.08490715189560806,-0.05306113578852422,9.831085162056144,-0.014006790682822913,-0.0015258160137380495,0.002933119021818575,5.15
-0.03791807129235199,0.03965849649237362,9.582147929961256,0.004789733388151004,0.006898585091028819,-0.00676885456185114,5.16
0.09272079091414748,-0.023443067111169825,9.757050874292474,0.0072952098668723556,-0.007266397236552688,0.014890909402667714,5.17
-0.07020444120988945,-0.23163181203718575,9.814461302588706,0.0030471806079035387,0.007790989035575915,-0.001405351674001033,5.18
-0.1999979057575145,-0.0520729169224206,9.865209755682868,0.006921225418620514,-0.015185188579654545,0.0037550144834686402,5.19
-0.15299834623546057,0.06009925209520254,9.769022161474291,-0.010193942993348843,0.0013563312300592747,-0.015056286115637927,5.2
-0.10115797052023008,0.07655569196274997,9.872039804735445,0.01015488924664463,0.011428353856278961,0.00041617875718291127,5.21
-0.14945482557020118,0.000749577717807843,9.841611624461692,-0.012403745257734751,2.8881285514942452e-05,-0.00403548452949508,5.22
0.10071988996183719,-0.09636244949796702,9.719419646555579,-0.010456462860989708,0.0002582685875254584,-0.00044186473162519937,5.23
-0.1540038949000976,-0.038561675273398446,9.782133495283023,-0.001668369961297031,0.001394885616928114,-0.009571442309748044,5.24
0.3778035552494555,0.07445329305476428,9.946406556896951,0.0065839126685311,0.005678341661436221,0.008365609444702653,5.25
0.051937649109830744,-0.07833250255906649,9.641552440281494,0.004708856793149366,0.004343298852592869,-0.011429544524069276,5.26
-0.01420370039310712,0.12220415340282459,9.773650318105293,-0.008753975902548304,0.00273468748108184,-0.002623324981044383,5.2700000000000005
0.007534305439714799,0.10422472851548606,9.916718465741832,-0.007297073418125548,-0.0035888633572567817,0.0012071008040870383,5.28
-0.04753684671607336,-0.043379098547794044,9.871421155819274,0.008632806956499341,0.0006452291037097438,0.01086053902795154,5.29
0.07122340415275974,0.03471487624654635,9.654299271791299,0.019261247920182283,0.0008048921531020516,0.004791822186784167,5.3
0.021874034337164214,0.07239589885953085,9.784560043123424,0.014751352476677877,0.0059704575424560005,-0.007887201093768644,5.3100000000000005
0.10322829596097316,-0.13395974560006582,9.977550961046678,-0.015167117159984103,-0.011574528508909974,-0.005273151849466192,5.32
-0.08521843507592541,-0.17444541684710693,9.865732048647857,-0.011706552091748436,0.007131450481259861,-0.014376765279277627,5.33
-0.12124878142415618,-0.0051471646554130225,9.864671421732249,-0.0038324089908730835,-0.010675371642242151,-0.01475113695761909,5.34
-0.06850236213951023,0.09985365751901135,9.765508134385579,-0.0057512708290266565,-0.010391611361239653,0.00525552702482225,5.3500000000000005
0.08023252119598295,0.2676968097935694,9.745659271861816,-0.009551504606266685,0.014435575648471035,-0.009065468147040985,5.36
-0.13511651053234147,-0.03153097998681278,9.81852037296043,0.0139400021961405,-0.011943400491027729,0.025973749201597295,5.37
-0.15556283048372826,0.14873934097178595,9.997219735720467,-0.004271860165042141,-0.0002025683786553213,-0.009027527199745509,5.38
-0.014642284077098167,0.21429953818608008,9.93827357556622,0.0031056430205282505,0.010175015405578556,0.005679156526666267,5.39
-0.057931722781753583,-0.13029970702591342,9.791149967913093,0.013083701274437457,0.0008452933363171719,0.007289122848720883,5.4
0.052549118992025225,-0.004029680872512177,9.780821922295212,0.014159150170333564,1.6557265037519036e-05,0.00010621981467904152,5.41
-0.0046425910743568164,-0.017634011697414603,9.651694218455825,-0.0017334449055280967,0.008011862917464436,0.007656763423444808,5.42
0.08903393694049438,0.1410153465752903,9.815613221022133,0.0031326755099929837,0.0090310076615243,-0.010044144724971607,5.43
0.08899025575592041,-0.14840711684614719,9.785954263596842,0.004358541593549162,0.016607402475222816,0.0004758200948456308,5.44
-0.0688662684627455,0.21128907892126622,9.88147169447689,-0.0036741762625500302,0.014609624050566913,0.0015194598349379993,5.45
0.053727006912639354,0.048347922043423364,9.789969530800951,0.012204733352427465,0.024628836222047572,0.0009898546953740802,5.46
-0.10048309394371564,0.03778663277934877,9.897183616341373,-0.0056836869715956575,0.013682677260203785,0.0030432530540075455,5.47
-0.028638025879810465,-0.08699317881283825,9.885665954716872,-0.004681630732890312,-0.017828595678275695,-0.01651852854501592,5.48
-0.14679373823184802,-0.0042039343241225815,9.644253475557198,-0.0016020960881026353,0.00042866902606343,0.018217316987033244,5.49
0.1539189664912004,0.1089118864500029,9.868764680510997,0.02720045890198989,0.009891615444835317,-0.012105278057047092,5.5
0.018914097459087224,0.22500572692376514,9.870440597853833,0.012666610969438554,-0.0134336014160198,-0.003991129893936053,5.51
-0.09698113754577865,0.13059508424366384,9.830449383390365,-0.005556025304259549,-0.011733052059663001,0.0001278535020220148,5.5200000000000005
0.1401988497156367,0.0436776038315998,9.720142592299188,-0.00022419758501143798,-0.002486786727456364,-0.006194383248164474,5.53
-0.13280178223997816,0.021640522519173616,9.923198976681237,0.0001807101973056039,0.014893715784703944,0.002525841215013509,5.54
-0.12228248251962137,0.1781870418403897,9.753376898373796,0.0035095916094618923,-0.0023893744453135357,0.026807688211480118,5.55
-0.2818456198390006,-0.22662125243225725,9.777788379855652,0.009777096473577203,0.009973372031821099,-0.007300491172054127,5.5600000000000005
0.022699474261334607,0.008193717548063403,9.945503020453982,0.007563553773220459,0.002294273882732578,-0.007055427125884429,5.57
0.12762844778451363,0.15625170582503645,9.829624470060505,0.014143477632311573,0.004001022959030721,0.002348953171326153,5.58
0.02039486158002043,-0.0282879078813819,9.827219097641558,-0.002306141344951575,0.023550492091383626,-0.009041124038228826,5.59
-0.31078385888676746,-0.06348168467903101,9.886893055797712,0.018784697801171507,-0.005583086172822683,-0.0064606750994878675,5.6000000000000005
0.02950513319993039,0.011995790117778295,9.813013602875793,0.008949952473403806,0.020158816696139118,-0.014307757712958483,5.61
-0.04083736959109719,-0.18085475312621635,9.920246484113566,0.010982989162497023,-0.00907552330269328,-0.004180948681746743,5.62
-0.18949608953417954,0.18321724642872705,9.682679545312153,-0.024469866099661567,-0.0007623647556488905,0.006527267232717102,5.63
0.02013616653357849,0.13124470066224575,9.77827686728341,0.0013457759886013442,0.008503703872890704,-0.0188581917400056,5.64
-0.003226793655371326,-0.01211586772062984,9.972690259187546,0.008090149471687496,-0.010112241681261581,0.026668171196489295,5.65
-0.09054300417812304,0.02399016063429209,9.751305849382964,-0.00010147985640898001,-0.012402364813555243,-0.009668657090721143,5.66
-0.12660126409381486,-0.1141532402847916,9.988159822035355,-0.004447926715593153,-0.010965130911901306,-0.013280966370848775,5.67
-0.20250938762052925,-0.02223500525682814,9.8165986827529,0.0016104022485903446,0.002194166003115096,-0.0018479995986353378,5.68
-0.00010668825074317925,-0.03529554937829676,9.880255538591209,-0.006791192466439464,0.0003628724921739603,0.0024551288697401896,5.69
0.061459169250525185,-0.02782620614933462,9.749922795350304,-0.0034687723407508184,0.0003948343611485108,0.010227610472407446,5.7
-0.05523671599100584,0.019094778054097462,9.841598411022083,-0.003331431351043544,0.0037226499461566684,-0.009595001846229755,5.71
0.030317716940507305,0.13502167281204444,9.808375035308295,-0.009893088489303014,-0.0022883296154055607,-0.010283555684446855,5.72
-0.09444326001557835,0.11524304097589344,9.734187343013932,-0.010961796209106152,-0.026823437395507202,-0.012866444008499065,5.73
-0.06070308638585539,0.0012327304084443404,9.858441931480698,-0.0015396735562328285,0.004158449774832549,0.008179343258906372,5.74
0.05671320802977292,-0.0698762870242691,9.901103646518012,-0.01065191081347378,0.010691638110846509,0.0032651332282577846,5.75
0.2152148683719653,0.07153867217994472,9.774204479477884,0.02762578069595026,-0.01922532331947306,0.007982107222586618,5.76
0.13372438488594135,0.1844247947163557,9.778624630573823,0.006522577181366513,0.005888767054673045,0.002843553506346047,5.7700000000000005
-0.1339660992480555,0.008468264784397987,9.798568810739239,0.013454193015539389,0.009300963529988696,-0.00466652453436505,5.78
-0.07260501446598493,-0.019826965858034458,9.753942011341717,0.013511684693608814,-0.0034889784514654494,0.012766943344458626,5.79
0.03025563816151099,0.1449454982104959,10.016776073204255,-0.0019183521706950734,-0.007069661382492482,0.0056103175442289745,5.8
-0.04193400767545933,-0.010728505696662616,9.758517820401009,-0.003967111714262956,-0.009723419825163475,0.008701354232162376,5.8100000000000005
-0.1311725474648424,0.04512277934545304,9.793032997499264,0.013289410400325684,-0.005471898136143364,-0.009001908041416568,5.82
0.09552451627520935,-0.1549424865536379,9.903847532403864,-0.00914346172713385,-0.0029823458568597055,-0.0022608550451975436,5.83
-0.11124196836744221,-0.11406676491121566,9.77373385949933,-0.005393688698031473,0.009428622327871046,0.00844298265624887,5.84
0.08987630766083829,-0.07692951919564234,9.633890230920185,-0.00616768309488277,0.01156943325203549,0.011010715552310034,5.8500000000000005
-0.021746352482503974,0.06259032314327108,9.781292901294648,0.0049831593841220155,-0.0064354631476313505,-0.026498688327673478,5.86
-0.07951093475926253,-0.1148492873337091,9.917750763740734,-0.008675221595839442,-0.004706139762488818,-0.010093848169573453,5.87
-0.1208229271919151,-0.06257933215272783,9.81424741132089,-0.0031226893797124595,-0.00549778679390331,0.014168462479786205,5.88
0.06751103623544646,0.15055068003216932,9.8605930115123,-0.0008425373083403921,-0.008760894988781699,-0.012127382344267223,5.89
0.06238277748713609,-0.06503721686767071,9.708443919862184,0.01168327127407912,0.017044262479313402,-0.007918192270040581,5.9
0.28447691534576697,0.11782442033342362,9.934265554000207,0.0024623586947134174,0.005693059692386011,0.008549007633548917,5.91
-0.04841977281810659,0.03130599127453869,9.91221089032401,0.003686481623184898,0.0016279211314456732,-0.0018774329351712122,5.92
-0.06935602041743848,-0.07974398443891671,9.830892168818792,-0.0017528353514536497,-0.006567572346014817,-0.0008197161738556422,5.93
-0.10224941714172625,-0.10114605378363571,9.870862818074528,0.0009974134006164133,0.008077592885555701,-0.02520170651018456,5.94
-0.05015602566476496,0.10120309081157348,10.028164077667894,0.0011496074151433168,0.00972145746494947,0.004583164418036994,5.95
-0.016610177219817373,0.08189221883239224,9.728692241429867,-0.0071825182451697245,-0.00891564282223155,0.01641008828627187,5.96
0.048300399934484706,-0.09333520080910386,9.91551952816767,0.00311336519222577,-0.017874935019342557,-0.0006984294401756289,5.97
0.04929544311646758,-0.2099847412899718,9.670233366228357,-0.011742641150782027,-0.014265528226261022,7.790420101669513e-05,5.98
0.0650893425579339,-0.03701347115669285,9.809599372187312,-0.0026096096227386585,0.0061392335773472915,-0.006264204015178176,5.99
-0.08597463949498775,-0.02405826223664857,9.821371193187217,-0.004146437745128366,0.003607304429156071,0.006517808999335686,6.0
-0.09624515641255406,0.12272382192970871,9.806153582741336,0.000839233359888067,0.005955509571069819,-0.014597255299253452,6.01
-0.13146050981861687,0.037537908186817265,9.845604432402908,0.013021989260568355,0.0007487868252916135,-0.007710862883450136,6.0200000000000005
0.18599765390078424,-0.09815665262923784,9.808583256562489,0.020205070043322677,-0.010661888813547819,-0.011109476148845481,6.03
-0.010837634406340729,-0.09161663037969345,9.734946999415975,-0.009188041061804071,-0.009741730213485223,0.00584279420734443,6.04
-0.0650348687093481,0.05727338650871078,9.866067977312184,-0.006630485267015127,0.00048289306312161647,-0.005123567453735132,6.05
-0.05755063915103396,0.05103976427717514,9.96036528501099,-0.007905402797119192,0.012087673925865006,-0.0053398679653356654,6.0600000000000005
-0.05893400318449578,0.07099233608293484,9.811439197400317,0.002192215620446464,0.0013662948797925113,-0.012532779590075515,6.07
-0.056622718189345105,0.21258558878836342,9.874507552504166,0.0005832593831830769,-0.009381157097434862,0.006990817089155083,6.08
0.1647503255712429,-0.01904137116868011,9.878609193158749,-0.007344966960531044,-0.004768830753641164,0.010084278988147349,6.09
0.08450760989001153,0.08261084875136494,9.887518694470513,0.018279612945507336,-0.0019470274514243621,0.014352099406047477,6.1000000000000005
-0.1407423978578849,0.100836024005579,9.86177081789625,-0.012260735666441177,0.006720606680105783,-0.0022027347424560034,6.11
0.08201539744727551,-0.09992263346355316,10.06950694205579,-0.009863496295628164,-0.0005085536198014557,-0.0003205007174118468,6.12
-0.15594380002726924,-0.027139928426568424,9.909451061039643,-0.003962755640539714,0.005577648302453636,-0.00039814975253870137,6.13
-0.02016361386642332,-0.11449503331450289,9.809739806249944,0.008051171334338502,-0.007852581011175162,0.0035062894266565847,6.140000000000001
0.029788822500377555,0.07579561720408026,9.87650539786938,0.008650691740779407,-0.004190771645087157,-0.00552605339551621,6.15
0.062244971052723634,-0.02779841822620386,9.88761308904592,0.002530856019285759,-0.008828595774299116,0.004098324871638058,6.16
0.07579836369711832,0.23205700151938294,9.847863905181974,0.019556244312162175,0.01783307180418682,-0.009103440264823577,6.17
0.015921043995580916,-0.06109714442569755,9.868724689390486,0.010339540565475905,0.01982081567140124,0.002133670720840168,6.18
-0.0718845834212833,0.012681508683941373,9.902861753446118,0.011507295057673388,0.013521018222099166,0.008705579179243814,6.19
0.01793156248529772,0.009311975807379193,9.770304546027528,0.015195551495621153,-0.0007661174943499602,-0.0008684521546309048,6.2
-0.27684726846412117,-0.1587423547768826,9.904257968879262,-0.005414435103783531,0.013452099138511527,-0.011335406185916408,6.21
0.11053806501509443,-0.020373553584409048,9.821151100747443,0.020933025975980783,0.004824513723253085,0.008477633211953361,6.22
0.0075728497351432965,-0.012691263974670925,10.01219327041558,0.008207057750767957,0.0010398867520309703,0.020856161393567642,6.23
0.197189496889708,-0.005451612789229645,9.907824990661384,0.0022847352642425293,-0.012190155888015891,0.00478635441770826,6.24
-0.09927561806929588,-0.02202909256717417,9.655872864224659,-0.01476550838734728,-0.008578915706060026,-0.005270131636556292,6.25
0.10252488930023147,-0.06545406285635151,9.798758814059752,0.0009699333828166509,-0.018846000386583368,0.015264529237209688,6.26
0.17968561685820902,0.15537713859503957,9.887552768744028,0.011727309151249294,0.002557360765588815,-0.004786118304708611,6.2700000000000005
0.05316064384467215,0.03748448579614827,9.889096508645988,-0.013672476307261186,-0.005040117482819274,0.0011998780586280318,6.28
-0.0785539656488577,0.2005269067080692,9.901871052454789,-0.0004194067457023318,0.014844591673201058,0.0025879974021775125,6.29
-0.1335600344026742,0.09202020319329696,9.67029400506262,0.006032151040859164,0.00370232992522002,-0.005305443594469463,6.3
-0.11128174408154086,0.027005475377217703,9.671453401569899,0.012985955318725572,-0.0003948911293003963,0.010766373554923981,6.3100000000000005
-0.03858340181224268,0.011794036794507964,9.706549926780514,-0.003941853828735319,0.009958169638311393,0.0003453988949681272,6.32
0.0757847531707947,0.02198965593500383,9.793838295751753,0.011938895830082627,0.006244670776653922,0.004277572447299862,6.33
0.11081645524354958,-0.30116647109654066,9.717592823752044,-0.006314455850803932,0.014532675272745519,-0.004658426631746026,6.34
0.0470253709193395,-0.14438066107314157,9.933733428734824,-0.018462037461692667,-0.004622893427654868,0.011892996700815625,6.3500000000000005
0.05514236937444026,0.07864076184006286,9.757577579581671,0.00502774719981424,0.01939158059549617,-0.006920774057672255,6.36
-0.19513119955021374,-0.09147241932432355,9.767663140964967,-0.0008568617120134127,0.015440486960709793,-0.002817678895825507,6.37
-0.02690145588516465,0.06971169301609209,9.970392171373486,0.007011750813136965,-0.0026325907196648552,-0.004922727071090484,6.38
0.14839023270828886,-0.058918839993051725,9.790150228705494,-0.001537710739988652,-0.009581786952098515,0.007738491553932025,6.390000000000001
-0.15240840452600915,-0.0017570012839889443,9.917262530277437,0.007589814847053234,-0.0044169665422883805,-0.0022239399344115597,6.4
-0.03638260266817489,-0.08163718530452631,9.754404622216008,0.015526028537297351,-0.0050923982590662135,0.002972826397350889,6.41
-0.04061370212502912,-0.015741718903282836,9.73260741260521,0.002625900865080468,-0.02784553770114534,-0.006910064685371722,6.42
-0.07636579167236728,-0.10981210836287617,9.868971291163078,-0.002047615701058642,0.01624696436868868,0.018780887261302164,6.43
0.014296851776117982,-0.04438257023227207,9.706319478198463,-0.002959275979550311,-0.0022033959912186123,-0.003930064509946125,6.44
0.05081596175333289,0.11637533518995545,9.911089358308526,-0.003111939869402552,-0.0030716311437110756,0.025323613790824734,6.45
-0.03820690493793697,-0.17486659373949276,9.606245712068162,-0.0049286958119411145,0.028886715542843413,-0.014318786384419755,6.46
-0.04313320430219872,-0.0019038407889681612,9.809090499449464,0.0014479220591551,0.019277077192632514,0.006517920634784337,6.47
0.04005359710222216,-0.04099403221484173,9.514833176955,-0.024470872209488764,-0.0220445211248933,-0.0009446312026087475,6.48
0.08289440609719671,0.07991753577418284,9.846632146369757,-0.021674614027049337,-0.011216891018322059,0.0032626185635990924,6.49
-0.09989528294435665,-0.253093493245266,10.02071149762975,0.003687158766519861,-0.002299518243333996,0.004546889636123858,6.5
-0.05540750340047762,-0.005716715814980913,10.105071698548166,0.004893181567609185,0.003167514080116878,0.004445343141550639,6.51
0.037757763884727735,-0.09090184446065694,9.723144934236009,0.009500148014000261,0.013202824383038065,-0.006964448982230998,6.5200000000000005
-0.014230530864747402,-0.04924041575826933,9.63696761878082,0.0019010364150639958,-0.009611457305424382,-0.007498441372603033,6.53
0.07789675599208512,-0.08465186869178916,9.864913081513686,0.008881377455580769,-0.006007454011292053,-0.0011255026423709292,6.54
-0.010007288947180329,-0.01605522260985607,10.044461964186308,0.013012649666604367,0.017754280666131547,-0.00018197782223751212,6.55
0.008301639549870204,0.027260380961344862,9.836093805371075,-0.012169187159067712,0.021152640337180065,-0.022076162414238147,6.5600000000000005
0.013629687229878715,-0.05628614673747408,9.817480913597652,0.004346949569238402,0.0011642101066966473,0.005339207076855896,6.57
0.06189244281293014,-0.1289917837293853,9.855935775376752,-0.007302100010578582,-0.004248662673792275,-0.010487882399368155,6.58
0.00745538719655775,0.19317748828124617,9.69013498484447,0.004950585875586191,-0.025843307371936675,-0.009434992473056777,6.59
0.09719658787164386,-0.13030390677984577,9.769137606805561,0.021942980917405343,0.014516030662922424,0.016811073746004532,6.6000000000000005
0.11704183503265109,-0.012112385628966393,9.78776833304608,0.004655456866235949,0.004626584334135513,-0.0037081723262506402,6.61
0.1293871093543095,0.0500726919760515,9.65878966710183,-0.002613815020015852,-0.001987688040022363,-0.01229424152071543,6.62
0.12830084282412157,0.10928507546873834,9.677423907125426,-0.010754242949515434,-0.010290935399621686,-0.0018775539180181497,6.63
-0.05873322164399928,0.0023112142695452093,9.65940498285989,-0.0025738208542349468,0.01669194799363848,-0.00860710683188534,6.640000000000001
0.12565437459025894,0.03584107186356849,9.528461055455205,0.004543783866760117,-0.003246311817006609,0.005976899699228201,6.65
0.08367577539617675,0.02882152849545659,9.830932623747648,-8.718351908498709e-05,0.003514927332786187,-0.00977659800183382,6.66
0.03479766532263048,-0.008052113512584625,9.866556399107235,-0.003682693653337119,-0.002515262437692493,0.0015952078979323248,6.67
0.024951953430818755,0.11199230223616191,9.715389929759306,-0.02490645157002402,-0.013633662364732868,-0.006833222714181551,6.68
-0.03405212884164822,-0.014126580361186122,9.713970573004005,0.020045296064465465,0.001223195829115246,0.003778501053340087,6.69
-0.02803419392948199,0.09111416681307417,9.720937557594516,0.00986918756585355,-0.00219510777833462,-0.0023761462596855695,6.7
-0.020369964099414967,-0.051943602956307136,9.748389418496775,-0.0022310949916692,-0.00044173770164671647,0.005041193187251051,6.71
-0.03447258889701977,0.02873137124000745,9.774016256314264,-0.002153600996899186,0.009065733005090849,0.009947615196192632,6.72
-0.01392837475307181,-0.15609551929497847,9.76913169899436,0.009155155285884425,-0.019435895697248247,0.00487863924052894,6.73
-0.004049356308543542,0.18770681377634424,9.915392056379421,0.0010778745644473232,0.01154077759410989,0.0004576354834707983,6.74
0.05940668690146194,-0.12764131557400563,9.797001900339586,0.00586778964672776,-0.007943987963415567,0.000797785816037409,6.75
-6.636230652977209e-05,0.1568817866194564,9.770090962533873,0.01024309802713433,-0.006692174359338601,0.012543209475951929,6.76
-0.15790066110333112,-0.1471494306532811,9.819252871802304,-0.0051327905245738175,-0.014644309110227152,0.01000540496134508,6.7700000000000005
-0.04521815558928801,-0.022716107015214232,9.771283742617564,0.0007166585388874001,-0.01192547862397892,0.00292013034433067,6.78
-0.1358243580108165,0.09131217830119587,9.811473263964757,-0.0029626578841182045,-0.005484518928374346,-0.016582355819304097,6.79
-0.027995074576189244,0.08774358064139959,9.685946013639322,0.0056449886164500395,-0.017340078053075532,-0.002058372850146741,6.8
0.03868742483215334,0.08631517473071701,9.668816096515151,-0.002538692111132456,-0.015501234896175036,-0.029425867336994146,6.8100000000000005
0.13326101437542442,0.06492055628326955,9.755884692706527,0.0035860009480910737,0.014604925406640606,0.002388720133241361,6.82
-0.03035113232419952,-0.07503169098300429,9.880837922163831,0.0023397793752111544,-0.01648896192195813,0.015541611456910296,6.83
0.014313416423903064,-0.061993354954755414,9.868974514390475,-0.006979965623787543,-0.001676642535770407,-0.012761945904335981,6.84
-0.07569841975996403,0.021386927765273952,9.81729073724471,0.0013234704180333072,-0.00183457036564982,-0.004351775969639606,6.8500000000000005
-0.020850544932426014,-0.004863082816788288,9.807572900270927,-0.010450145500249157,-0.006153896292719289,-0.006682961733937806,6.86
-0.05041128822927285,-0.11159389231977002,9.929978951458374,0.007507515288644966,0.008653113218603903,-0.0058931790496482344,6.87
-0.0160673890741662,0.06406786640778785,9.644827416132404,0.017476032939281357,0.0009288361774943722,-0.0198447821990559,6.88
0.18227901941964114,-0.013134097297390682,9.857115104686597,-0.010243308583762612,0.0012446405579874507,-0.003496413047183153,6.890000000000001
-0.17612135368717075,-0.16302140371257812,9.772671723264754,-0.0017482185646044254,0.0040100443808639835,-0.006556867334621019,6.9
-0.000601171804474496,-0.0009535082985234719,9.844599019123269,0.00900441852567536,-0.00830587317342186,8.194277559234464e-05,6.91
0.013085385821918394,-0.018739470402138414,9.833441727478949,0.018686452550621086,-0.0003121772233622461,0.00548608936073975,6.92
-0.198550033200933,0.09960026229221641,9.6962305401422,-0.022809358340099638,0.00431531417860132,0.004050536373344672,6.93
-0.14833095065402688,-0.15003823991460008,9.69538576518757,0.013133657883783754,-0.007438861949093203,0.009490380062837714,6.94
0.009567561044526237,-0.07944763111534783,9.772603760902442,-0.001467047539519105,-0.013472242110182392,0.007078358428382854,6.95
-0.061679791214736795,0.11434115415231667,9.895325318840543,0.0006628319497659035,-0.014401900933814823,-0.002487688269906173,6.96
-0.05878813352345698,0.02657277641496407,9.778362934289555,0.00607593453300745,-0.0016958458114182669,0.013378109264667115,6.97
0.2397822177421003,-0.04724389909933225,9.792160867074513,-0.0026931427590845035,-0.024616051230437534,0.007974241149425241,6.98
-0.09642981733438843,0.10027002366866332,9.810072005378345,-0.01251089751229046,0.0013765627915694623,0.005891921313700088,6.99
-0.08298116219091181,-0.19983615086940215,9.956509600593286,0.005054001515340236,0.023267067934292136,0.0035428009944677165,7.0
-0.09628776007166577,-0.04389896678819061,9.933512852587976,0.009051407283037055,0.005888615001932138,-0.0012257081041041138,7.01
-0.09546715960239854,-0.04077699340409118,9.672842638974814,0.0007349951654760938,0.008608987093823796,0.01349816597159332,7.0200000000000005
0.056058177423443094,0.20438069388038588,9.878238861338954,-0.0103828438852161,0.023472195392254643,-0.011249151842788286,7.03
-0.025833354027766944,-0.025210794135104443,9.821537929308272,0.00019823817299129067,0.006616520304907082,-0.001441771915774953,7.04
-0.14236318220296185,-0.06590668152508698,9.672727621502487,-0.005977010780833046,-0.0068712747794229595,0.004596413462025044,7.05
-0.17479063836796965,-0.039830739309022443,9.717680790549165,0.018569740840119073,-0.007296267877676277,0.006287460377771012,7.0600000000000005
0.13189969252205583,0.18838582611136678,9.928844519951706,0.00043907565609170314,-0.017473996763655315,0.006485113420071439,7.07
-0.08513443519953796,0.1574738198884058,9.668790024526373,0.003971743023448979,0.004519312726965289,0.00020477281037455244,7.08
-0.12301473614465497,-0.09424316403119733,9.809029401254342,-0.009115292604707585,-0.0005073136035515228,-0.018402305761060812,7.09
0.10658755116606876,-0.11577475526669274,9.828922543039598,0.002858507474977915,-0.021545323618479068,0.012129801330584502,7.1000000000000005
-0.1675563487408337,-0.09632743975131958,9.874902906636839,0.015337596617770231,0.0019094691443118518,-0.0010236710938687705,7.11
-0.06598214162824427,0.19605528301850758,9.781641800237194,-0.0025348159585517746,0.008580046406220142,0.007016615219589921,7.12
-0.034188182461772326,-0.036127785855370693,9.956933684583005,-0.0006165329634874802,-0.013491444182497255,0.004454250134727217,7.13
-0.0706888823143916,-0.03766654765092771,9.662393724657976,0.005914147906317457,0.001491473794591989,0.0029673579691591153,7.140000000000001
0.034342111699629675,-0.1376428522846887,9.681961345963792,-0.005678134283138179,-0.010993269088487254,-0.008616961745629478,7.15
-0.1022504565653236,0.05254507323036385,9.722115910812644,-0.005727584235960308,0.007376553456793008,-0.02051805038832255,7.16
-0.06877930208345968,-0.04010775548003178,9.810078885310466,0.006439731505573548,0.011592743744301519,0.0036020392580980096,7.17
0.04243188205525956,0.08286252443076415,9.773329942794634,-0.0034802989588650786,0.014546070511721774,0.0098290086329627,7.18
0.036330562574516105,-0.0458223387672537,9.69182585282626,-0.004872039478595977,-0.0022577877589991333,-0.006673791803632007,7.19
0.10413044299262975,0.00022949291045617728,9.800644627190358,-0.01523675527899029,0.009953186878012353,-0.004518008252185092,7.2
0.17279366980984645,0.06527925365333162,9.6588904154589,0.013223266884574075,-0.0048207743287926475,-0.001987803283296636,7.21
0.04184836062470891,-0.07746846771315902,9.70904985821014,-0.0017910517946175075,-0.006912958917872696,-0.014672167692895383,7.22
0.0037619887276464288,-0.027591184018082977,9.867076631999517,0.010907803832106723,-0.0009184073220365912,-0.003064758210395326,7.23
0.12843530013302737,0.21190916303364704,9.908922300751358,0.0004451180185708055,-0.010687384709828827,-0.0034289205121806575,7.24
0.023945943288290777,-0.08661950464606337,9.723545164812334,0.001661287303508242,-0.005127313743885958,0.009852596672308594,7.25
-0.0517224238071716,0.01719418958739509,9.7507633693766,-0.0031710588253021123,0.00135186398485714,0.0009548028762978541,7.26
-0.08897523185768062,-0.02281845478252706,9.65624178646691,-0.002316625231235412,-0.009297405527501015,0.0016178512337535543,7.2700000000000005
-0.03743686890545433,0.15579188009619893,9.876599250323885,-0.014255225446860245,0.007395126785832925,-0.01081615158745557,7.28
-0.0007281030547376392,-0.08850251463968506,9.756993660876809,-0.006830501719235366,-0.0111325417131554,0.009518206159551922,7.29
-0.12777895390441282,-0.05916868781631988,9.770832518200567,0.004539691419647804,-0.004572428995644662,-0.006488902781114887,7.3
-0.09341978291263196,0.08087192284265264,9.76966193270641,-0.004310819674936426,-0.013086904095111406,0.0028755934269508333,7.3100000000000005
-0.06826954944488434,0.2589485152760238,9.804019357279847,-0.004587300129131219,0.014838103262487846,0.0048119524973242855,7.32
-0.06450771461974376,0.09043036426395833,9.934376609810064,-0.004244285589792048,-0.003031871923907872,-0.0008304298340703997,7.33
0.07801286383420677,0.06805497417482621,9.8278581797367,0.0019665997087514107,0.018104955566442284,0.0008595783144631348,7.34
0.05961146797466574,-0.12642738574516463,9.775713230613444,-9.95783131820106e-05,0.011142997375831432,-0.0012113554651654408,7.3500000000000005
0.014320635546622171,-0.11005180546998675,9.875064203565678,0.022038241234504832,0.009485433185091699,0.0024297055103794383,7.36
0.12663337058415292,0.06296444167791634,9.705940242511314,-0.0017570442192332782,0.004925419724584901,-0.012846204295033857,7.37
-0.07605593241947434,0.03733913335277737,9.744554242858515,-0.007666697363680626,-0.003972081183945071,0.005274234676112646,7.38
0.03752051395462261,-0.05853212230451391,9.654408522794585,-0.019508260378689617,-0.005605970342557176,-0.007066079529435224,7.390000000000001
0.07435281394679259,0.04117382120747564,9.766940666837417,-0.0023134186820820634,0.018868157230161428,-0.009837589931283353,7.4
-0.07782798124633622,0.15342909448311237,9.861169010220106,-0.02225176857139229,-0.020024368648456883,-0.00307620989684154,7.41
-0.0006300203906093715,-0.1819440189708321,9.892883791273068,0.00928411408164207,-0.00430450737076315,0.021122717831196732,7.42
-0.03915908464147291,-0.07411730207407284,9.823809237941859,0.00555409472283156,0.004214333096214416,0.015358993903775492,7.43
0.041272947538750784,0.09916052227744829,9.864163852495414,0.0024024748204824645,0.00411087777557836,0.012779709787306368,7.44
0.05298286198578254,0.2057252730692222,9.873502371503154,0.008486951089865124,-0.015916021186479855,-0.0020703846526057804,7.45
-0.18934131335335644,-0.1295258039375326,9.721257520282421,-0.01831889012183513,0.007576561671118856,0.003975702064943486,7.46
-0.07427477307793039,-0.05901107314979148,9.860765376162274,-0.01591775629834947,-0.0003263138456925039,-0.00896781762622103,7.47
0.0987284146561211,0.0612341404571482,9.83431813012641,0.008008194934350512,0.015302540830633923,-0.01034040833943834,7.48
0.01954556644361062,-0.17383940588932129,9.833131426410159,-0.0005557541245632408,0.0017791119394854485,0.00942478442954093,7.49
-0.22795205400727944,0.14131203999223127,9.952782596519317,-0.0029138634298634643,0.00986804997036743,0.00312765447049873,7.5
0.10447886604220813,0.029809174467874813,9.740213049201802,0.021640172519646977,0.008846248385521291,0.011687245947790926,7.51
-0.24036589516203155,-0.0484918195432119,10.019778076990525,-0.0009269249216500718,-0.005065388928928053,-0.023983785043329375,7.5200000000000005
0.05570056421038203,0.04642264138166757,9.85440586421764,-0.008360808760832042,0.0013643621511403032,-0.0010613706676106617,7.53
-0.04236272657069989,0.0016588665125934913,9.728778588524523,-0.008297445769022136,-0.0034647485369882006,0.006742078657985004,7.54
0.24412219570030166,-0.07629667336108728,9.85990321579892,0.0032565108926496996,-0.015227662465727555,-0.0020170936368090423,7.55
-0.01820038139846984,-0.06560131708548013,9.733001082748252,-0.004586263157143464,-0.007929521008678312,-0.01805438051357346,7.5600000000000005
-0.11072386297900792,-0.14912515960801465,9.7934705424162,-0.011064861989728265,0.02622225324101585,-0.01205914125400359,7.57
0.06645164107928758,0.17552133118794144,9.948417093285528,0.021219453853384224,-0.00817951595246406,-0.007094482144569548,7.58
-0.11152035194303134,-0.043866558268115856,9.75991243467778,0.0052964692808162815,-0.01643040298191052,-0.0035125278138611682,7.59
0.1566719466449471,0.010901872373230669,9.565367084867537,-0.004501972839881777,0.016221009022227374,-0.005868335547468148,7.6000000000000005
0.12903245708012787,0.13548681159711515,9.813478125177124,-0.0248854374230494,-0.004781986706468034,-0.007238826824067987,7.61
-0.06002795966597849,0.06759587051573474,9.836306553597266,-0.005316197471577453,-0.003069484381808417,-0.0068141697820419435,7.62
0.021358168552823187,-0.0023038662609488774,9.731462647954494,0.004347230226476612,-0.012405071198389031,-0.017563804079916957,7.63
-0.07536767138885393,-0.005536192287195508,9.841558857352904,0.002875075538647108,0.005660823114100302,-0.006367984312998302,7.640000000000001
0.028690889076899567,-0.06302680942827998,9.667842076476708,-0.012057796576171429,-0.014771952576928758,0.0019860351917757773,7.65
0.006773357616135341,0.011743321122220308,9.67953147457919,-0.002864823863305288,0.02529457123431697,0.0011797158724183032,7.66
-0.07648950649093898,-0.08119326198609901,9.867935551502795,-0.01058125694848141,0.013879792664804713,0.008050866937167016,7.67
0.1323205308344839,-0.09764981563605546,10.005994765025108,-0.0016384858467683372,-0.02052451829276334,0.010024992457649227,7.68
-0.1439580406186732,0.19289149375981046,9.745198836010792,-0.002348277393523464,-0.008501372752134228,0.02996577218443579,7.69
-0.01790786426319806,0.012191295512026398,9.826383919236594,0.0003904029125681991,-0.006932357385403647,0.01610761357921549,7.7
0.06708082935911784,0.05259773026699271,9.931718796496174,0.0066669295805041285,0.0010306210939906681,-0.022445950572542596,7.71
0.09100567886746468,0.15957267234412054,9.872718817895484,-0.0001006360038297358,-0.008841277767649708,0.0010733318104948198,7.72
0.06908985407529268,-0.13156148187491004,9.691917351834457,0.007501305640302589,-0.002428186472234388,-0.0113292265137438,7.73
-0.0777837342697934,0.024368586633966474,9.687057179356211,-0.0052759207483181305,0.012607296459124897,-0.0028287147821067244,7.74
-0.02017138200293607,0.001297902105227375,9.848760892610349,-0.002577395144567933,0.012137084924635335,0.004385559888280071,7.75
-0.057107894381599605,-0.15241805771411507,9.85685500808593,-0.0010447890121312068,-0.0002445498947068433,0.001832823238913652,7.76
-0.05583378153712263,0.0308064323128382,10.002203748289846,-0.002198424534434844,0.01369659878590991,0.004642011712628439,7.7700000000000005
0.05709112540249263,-0.16613001017686657,9.610923740183281,-0.0015597233840870639,-0.0013238142840315496,-0.011466113448491574,7.78
0.10224328449403736,0.029200815164078527,9.712954951636506,0.014990473257165089,0.0027923726850166376,-0.011784727061391212,7.79
0.059684782741290944,0.06239156395333273,10.020164452124604,0.01131320258414853,0.005683543688758826,0.012372837025468533,7.8
0.051953921763907035,0.08145708698860425,9.75756593200601,-0.001060549604258916,-0.02367700556390224,0.009431881263463667,7.8100000000000005
-0.13471522640784014,-0.021844397637214175,9.847149025864123,-0.0015555677297468557,0.011976432407392082,-0.011201318397655933,7.82
-0.04800339132047669,-0.20750479956187276,9.919166034144364,0.005064957396542281,0.0005455595473624436,-0.0030498989595253018,7.83
-0.0295262627395233,-0.02410721409041974,9.675504202963529,0.002540875085426434,0.009767658468171497,-0.0016823373307347487,7.84
0.0375157946917529,-0.047830940471772915,9.825376663710928,0.018611358889496284,0.0010841519626796896,0.015517411850743679,7.8500000000000005
-0.07046037774050747,0.13001708447999202,9.879975394883727,0.004858161382076361,0.011908002096821784,-0.012109375971680478,7.86
-0.02591490770867502,-0.017633856230849478,9.787436929180998,-0.007856453275587616,-0.006685558417833677,-0.008357279304163849,7.87
0.05283768725557458,-0.2261066245892915,9.708895265227307,0.005286581288714389,-0.008888198878844211,-0.0017043234015020254,7.88
0.045909959091715094,-0.06260142914775337,9.953815943083612,0.01766306664522566,-0.0017897789236557419,0.008504956182251838,7.890000000000001
0.016975849178304053,-0.03839209228341992,9.739753031142163,0.007288498658444316,0.009742798976612493,-0.0017617065739789107,7.9
0.0020615747366058063,-0.22263294758572783,9.797761660003848,0.0013209956506235374,0.0058514794986354495,0.00818228069312995,7.91
0.0569546454227083,-0.08742787242415355,9.613093679280025,0.0103854109478537,0.012193141320507937,0.017903752280580634,7.92
0.05832733857687538,0.17479144918525363,9.789396228548988,0.012806317341125268,-0.007473688096963944,-0.008643495016885234,7.930000000000001
-0.052270562603858844,0.09649785918866824,9.78664942540866,-0.0027226250311629236,-0.0018193495828833998,-0.009118199506390345,7.94
-0.17719954430484797,0.01852796465094465,9.741049644220036,-0.0036472650018635256,0.01070260986462813,0.0004225579495908027,7.95
-0.024405809302020486,0.027826848860402792,9.674498761101097,-0.0063521192338705105,0.005443342970496793,0.013425434572414604,7.96
-0.023076624248610816,0.01496333901526499,9.836770137999599,-0.0005740791791519569,-0.008761471938839409,-0.007294023636446488,7.97
-0.24268009148930714,0.08364277146187078,9.78417482276929,-0.009974224845842997,-0.005438545794496819,0.0012706056193507406,7.98
-0.038438540209657465,0.00813056514724043,9.785352603094386,-0.0016652623423932442,-0.006445107006055692,0.005628424107437069,7.99
-0.10562658313701126,0.0950077876234189,9.899861673535295,-0.004727128323537176,0.003991623640210353,-0.0025643450016172293,8.0
-0.1001665144728901,-0.04311032819168091,9.785438070702288,0.0038569985625441484,-0.019723006069234102,-0.017183973862837317,8.01
-0.0660672812476004,0.03746804860004863,9.995696009236996,0.006243348477790627,-0.003631430600551804,-0.004568496427669125,8.02
-0.017113825445121324,0.11271293993631502,9.87727018005696,-0.012155125435860907,0.00572070210893633,-0.0026579591491566407,8.03
0.04748556330688515,0.11119056884051187,9.668707830435475,-0.0034372586112003107,0.0018430088658103424,0.029692055129448166,8.040000000000001
0.1631267454688873,-0.09879470508491567,9.882924017842067,0.020024640778001635,-0.00498662429743181,0.009210798000195834,8.05
0.10390708052797454,-0.15840860327535344,9.782357908683677,-0.01230645461303087,0.027180345978805517,0.00529990045349132,8.06
-0.06114284101560783,0.09452862308459933,9.825452375383989,0.004841671898110898,0.007020697232815676,-0.0039357139626113305,8.07
0.0012581240137572063,-0.06010693822170206,9.934976669797125,0.002993427728176595,-0.007121931504631012,-0.007998284218456147,8.08
0.11685731789408699,0.019041477680485443,9.659475626776171,0.007116157974358637,-0.030417573561556503,0.01931023886053707,8.09
0.08699036581331039,0.09896793430935108,9.792348774586749,-0.006939450489709521,-0.0015202995836140817,-0.0009592190283540795,8.1
-0.06622083507653832,0.03610094161549559,9.803643828501206,-0.0006508872978396932,0.0023313875717718975,-0.01483976338358743,8.11
0.04200446539829915,0.1279345459519394,9.79254892137947,-0.01610153066589187,0.010097951189844617,0.00844455747687376,8.120000000000001
-0.2464750215537538,-0.13070809572373646,9.939547689563879,-0.0037565934954204437,-0.014686085650795114,-0.006845224261605405,8.13
0.08458798748420937,-0.13148452794441653,9.785200877262275,-0.0016981891719514777,0.010539740687355706,-0.0012553469646698265,8.14
-0.07449383817785897,0.0435710405795821,9.689494365557936,-0.0024596351879837292,0.014658635873915622,-0.023694726246005528,8.15
0.025597571172590813,-0.06324151202625226,9.832187937955752,0.026617186522054567,-0.011661813780657827,0.0016696265066305155,8.16
-0.05698989379747591,0.17021713889904755,9.89939944593786,9.170880780189175e-05,0.003177771479183363,-0.01635029644987601,8.17
0.03556103883004387,-0.07753951308286117,9.773959522435828,0.010200400774072652,7.558770104711011e-05,0.016519307916386075,8.18
0.1490165879965807,0.042592151896446655,9.681012948656566,0.0005101375365388735,-0.019894150377235437,-0.006461692698629315,8.19
-0.011010687511206985,0.0887875755822533,10.056663418946616,-0.009865916387816389,0.002598997968271245,0.017792908163924905,8.2
-0.05271418030849415,-0.011269320965224948,9.819049691991424,-0.0214486355084343,0.009523010940088398,0.022543556728435325,8.21
-0.026870159135473116,0.06832836256444995,10.081383066397018,0.0075254433992870545,0.0006219351645508864,-0.001725664208480989,8.22
-0.14903836740396628,-0.1101228894334196,9.797315331059012,7.665787242554479e-05,0.008297290172833713,-0.010422472168512349,8.23
-0.027079015512615434,-0.006955037776964521,9.785042728924955,-1.9594387075672244e-05,-0.018842690677671164,0.006301026447926107,8.24
0.08477870978979796,0.00752788514550113,9.727442089926194,0.009985155003245757,0.005299600957122626,0.00834150931745619,8.25
-0.017297222437184883,-0.04680887470738629,9.806099874393805,0.024419552686499153,-0.006646515211668162,0.0017003321906279376,8.26
0.06541820075074804,0.04342029584866872,9.853366027271584,0.006689633425120859,0.009301333556551107,0.005183062750840846,8.27
0.10091265379791564,-0.11334239351590857,9.709820360308886,-0.003840738478089719,0.018562449896582366,-0.0009134235569102621,8.28
0.09244964135765701,0.08316254244025727,9.782625851316556,0.007994227159632673,-0.015274168780983224,-0.012224728174481907,8.290000000000001
0.057232164432168824,-0.05619886074516233,9.831135773924434,-0.003276714314695672,-0.004128412577598718,-0.01867368209931359,8.3
-0.06786365624885991,-0.09295726975810273,9.80869217951833,0.00862888850840472,0.01511693734016057,0.005580206500511953,8.31
0.23775755140791463,0.026184631340098064,9.7961811295933,0.004152996794042957,0.005102326552899011,-0.0033738237150341918,8.32
0.055945919481916365,-0.06830496796916116,9.828509482833768,-0.006338427641498525,-0.02601455970088213,-0.013884300928343566,8.33
-0.01945930023784612,0.016452514847369006,9.560091480969964,0.012065296221673497,0.015277823583519463,-0.002356123149740197,8.34
-0.0032185630921078576,0.09639634806351757,10.029076777184422,-0.002364679827234023,-0.0066706929235704005,-0.003658853101137075,8.35
-0.05581746107067821,0.07355206191968051,9.673990869774977,0.013212771340851288,0.005782871751503703,-0.005730543171308348,8.36
-0.0841996036617436,0.02486007947807146,9.722494413469235,-0.000658824848879971,0.007447612521870038,-0.005487096683059431,8.370000000000001
0.04128728583967008,-0.08387212961711264,9.796410566683235,0.007010015946360922,-0.014095443460805735,-0.01244669849541873,8.38
0.015927748018399704,-0.08205625809465454,9.822610566173399,0.003251265475151032,0.014006921804288289,0.001561287035941433,8.39
-0.16043174819519432,-0.14159358788937013,9.893525600401796,-0.009269848103309128,-0.0009725696964127122,0.023394993207481007,8.4
-0.008910457888480511,-0.13802469766310313,9.826393741397512,0.013751492575801754,-0.010728527858583565,0.01725470078545098,8.41
-0.05199935913414952,0.07248788508463287,9.801701851827337,-0.0013458887426838133,-0.006500141995324094,-0.013915494477998357,8.42
0.01940128131118404,0.015009657799290156,9.8182326712503,-0.0055349984120900125,0.010309038946804216,0.011301508195058657,8.43
0.08546627905056826,0.0677999132552305,9.734312394905444,0.01034203517894192,-0.007295660837995298,-0.0006656214962395264,8.44
0.030149151034575578,0.008782971313166221,9.80590851313558,0.0016530631755223306,0.0128701443879059,0.0005489963642773591,8.45
0.030023319973338316,0.010370616404998135,9.78273695177032,-0.001183864220489578,6.614761420669016e-05,-0.003297771508553862,8.46
0.05331419485407447,0.10689266839980012,9.827796462194996,-0.0010747082587050124,0.024909972529078554,-0.011380740389554705,8.47
0.10844613109259589,0.06394162454295912,9.734574410890989,-0.012316063255562533,0.0005492256961150496,-0.014292269965892137,8.48
0.12892999101702982,0.041855729704536555,9.762713662897832,-0.007163108207226381,-0.013171043299894125,0.011733767344108734,8.49
0.18582498190602537,-0.10910920168016401,9.863182794446349,0.02174677408016071,0.00024366362508673628,0.013727273818363611,8.5
-0.10256663831624108,-0.00788381512747844,9.708901766813067,0.006178736991810029,0.00036794729302500073,0.0010008927202286367,8.51
-0.0818727101862907,-0.042723409814069774,9.704369444423719,-0.004639710480447092,-0.010120602987299237,0.010845675517442897,8.52
-0.09405184616271164,-0.0873357464246789,9.80251894132014,0.0069492692485126515,-0.005001507784861779,0.003617035007620893,8.53
0.10911980430679638,-0.01510341075974924,9.790655924875686,0.000512316331058673,0.007241773894691007,0.002669944303280301,8.540000000000001
-0.0380018469964816,0.14409361826500314,9.834822238447774,-0.0037718805330398102,0.007401213376390817,-0.0018814932524648348,8.55
0.10179870101183526,0.21963992024527684,9.790072001903898,-0.0060971886993893346,-0.004266060504724527,0.019169921173072126,8.56
0.053805598748669886,-0.03990132337880934,9.708601433651204,-0.003400839358215863,0.011292240903693034,-0.018272006993179452,8.57
0.06067191271111985,0.05800237738462499,9.809782077916028,0.01198388371269682,-0.019029728686105373,-0.010752369159654662,8.58
-0.2135495776085184,0.06566390903742429,9.804110715581993,0.00350318940937819,0.015395524570357727,0.004037324941872296,8.59
0.08281845321992481,-0.009033421270789993,9.757007579729864,0.012607578608654446,0.025019027158990192,0.008307953611016982,8.6
0.17414605307348396,-0.18096332753262495,9.915199027396723,0.0012841653941149593,-0.004655565670426975,-0.0012744379709474956,8.61
0.05875114842722021,0.03489671337563176,9.594598354722821,-0.0097435251882217,-0.016503890891521086,-0.019211966680433297,8.620000000000001
0.05160455759989951,-0.19130667895881026,10.001456916114083,-0.01664718636920735,0.013968893079614362,0.01264024968242773,8.63
0.0858968972411713,0.15897695105006726,9.837428985692949,0.015087022841850033,-0.001088374790422553,-0.006098998918007743,8.64
-0.12161938110431113,0.07515113679850675,9.745454412856104,-0.011607377908856749,-0.005319818374784747,-0.009243445067105177,8.65
-0.010914897136687298,-0.020341156426976956,9.899052461640222,-0.012008336520075713,0.002967962397014003,0.0019365581810511538,8.66
0.12398952126279116,-0.024063620393609896,9.729134542479018,-0.014961154341752696,-0.0013009473099798122,0.009435239701868934,8.67
0.026451499368425776,-0.02917504151668564,9.975488000361564,0.007985985712179872,-0.01638647112022653,0.005949534249764803,8.68
0.024155352474826725,0.0473706953949152,9.924555834330508,0.013507671874393985,-0.011554378946121088,0.0087468635146139,8.69
0.1497870060897061,-0.04429703944367378,9.907470478763996,-0.006950953386080523,-0.0068807151275418425,0.014120428953199014,8.700000000000001
0.023205080705807984,-0.03617758345701558,9.811287964021954,0.000507562491191564,0.004977873939338841,-0.006287495061231755,8.71
0.05877544784232045,-0.09395663903854982,9.776758450399972,-0.005864701696987782,-0.011768466258265648,0.0016172443186851277,8.72
-0.12025793399696866,0.018354792584110206,9.761754751785581,0.012905709573927811,0.018535232953389602,-0.011186029474216057,8.73
-0.02670206121957108,-0.017020815344977385,9.620283154115151,0.00478442363779731,0.017813600170170342,0.00458732724774369,8.74
0.18605229688949618,0.0017221390615626449,9.671933849588761,0.005394744616535143,0.021882280836116298,0.0020435513259344567,8.75
-0.0029853224792769435,0.007544719089310856,9.75729997643691,-0.014446223046345519,0.0037829959059768954,0.006556113888074477,8.76
-0.01663015984234689,-0.06044326638450414,9.798637126285348,-0.005943673651898239,-0.007739324816927837,0.013054120696720291,8.77
0.08187528286566462,0.13469344955884835,9.853122879521598,-0.0025004163568434494,0.007208503262896738,-0.004713433869432664,8.78
0.02016621782879778,-0.15467745146358056,9.984931108236491,0.00038323859703086945,-0.005188240614455616,0.008528988691972873,8.790000000000001
-0.04541068722360031,0.035817574709041934,10.054453938337039,-0.012002340859604955,-0.01768158117207122,-0.00481766361818052,8.8
-0.07304979571751499,-0.19556034318716753,9.858816350884508,0.007691772835493308,0.007556992407426475,0.003399822865256051,8.81
-0.014082467565433791,0.1024633480917371,9.740468612206959,-0.004701103320324885,0.007065966833476817,-0.002606161091534714,8.82
-0.03643933388076242,0.0007921828179487875,9.709042105231076,0.00735296774061987,-0.004698582699098591,-0.009897824335062233,8.83
-0.13248216859796932,-0.045692622840845576,9.749636100200346,0.001457486703009655,-0.003500781737017692,-0.014690147730711683,8.84
-0.1058415077924755,0.05263305439955604,9.747460382481528,-0.00436376946713674,-0.006424829064301344,0.022596396226170094,8.85
0.03440761185099527,0.04635248297088829,9.957291498764254,-0.014631718388272966,0.007511086486857004,-0.0012112163333610384,8.86
0.07069033232298766,-0.06640431717038389,9.702798798264368,0.002827289666126416,-0.0007921450845732417,-0.003989718021306099,8.870000000000001
-0.16643552482533,-0.01791554609670278,9.886615490455341,-0.003398591585399693,0.004879077063932063,-0.007346508838917927,8.88
-0.1962761331470372,-0.06225673139297562,9.820379412371409,-0.003082379761789511,0.00711009543605586,-0.004563536378712176,8.89
-0.19373937111184497,-0.0821969087243686,9.877950646067195,-0.0012166324322681736,0.009362365652861976,0.0060277990016644545,8.9
-0.08667770194360803,0.03081050247558699,9.598425787734048,0.004780088764576111,-0.004385007853430936,-0.017219632643815624,8.91
-0.04654994549313079,-0.009283958973733223,9.773107799554595,-0.015956735164062926,0.008447232122983052,-0.015158075987712303,8.92
0.03227738690586198,0.006731692431862649,9.793450902670433,-0.0064753295641428845,0.0020319399126449947,0.004296761839850174,8.93
0.000774432905462996,0.1386366814252456,9.764480921921828,-0.011757936592778255,0.007507203523143466,-0.0019503858790539078,8.94
-0.2365941187879296,0.03883359194896543,9.94175808879385,-0.01606183086946056,-0.002788462379655111,-0.004340627924774133,8.950000000000001
-0.004295495823235525,-0.023872610039189942,9.79360412952071,0.0058222274415132705,-0.011019575630364972,-0.008514677819493303,8.96
0.03976632603007369,0.07034207249696615,9.696896690223278,0.010578311453636819,0.005020418908673029,-0.009260194693294296,8.97
0.06365496849854042,-0.21765129142359158,9.798667362347272,0.006711926916303075,-0.010033458063596758,0.014685468257623917,8.98
0.07737462347548729,0.00461372746519035,10.087045997239251,0.00068963614953015,0.0028821956740123418,-0.007667373939899547,8.99
-0.1976459999525604,0.06907814779641062,10.074413061725357,0.0068917822522794586,0.019047590847273893,0.00917956884708933,9.0
0.1274742012985157,-0.13184373330936208,9.824585448247614,0.0018458341446258297,-0.006784032198620223,9.068986265328606e-05,9.01
0.02674348035833749,0.10450458975120874,9.99775230672963,-0.00875098297937804,-0.027230897474323196,-0.012781620108385195,9.02
-0.022702231520851122,-0.017577216526420143,9.752330922849707,0.008845142261585878,-0.0058735380482664605,0.003405741540876054,9.03
-0.08533986728774284,0.05181746253111722,9.770183402811414,0.01014444821628806,-0.009085759972751045,0.008327750946478162,9.040000000000001
0.1297261603181515,-0.06448828759408519,9.854568407312332,-0.00616512634730097,0.00016769848425042752,0.017974734870420957,9.05
0.037513167302070244,-0.08753114523108865,9.88925945058013,0.008561868246845723,0.0026932970512123346,-0.015149696057265528,9.06
0.06306649418901694,0.0009464089285579971,9.857811628261242,0.009611375528570366,-0.000285248311137303,0.011003652112557018,9.07
-0.04902965189730421,-0.04693443509519775,9.903419580786572,-0.014858027832065896,-0.0159908325902852,-0.01570201420434121,9.08
0.02805469891776662,0.04792437051033682,9.68864220882018,0.00409089068011141,-0.013310319952828066,0.006955407292058173,9.09
-0.12118951840525027,0.1788807626551624,9.868378188878129,0.000140185184009212,0.016985028287734842,0.0061331043255452656,9.1
-0.1713071169122587,0.014955546654868685,9.660915969061707,0.00031921663728059417,0.009526456609976027,0.0002667419205383733,9.11
0.05635209973387935,0.05541964583348433,9.85823842529677,-0.008586473312438126,-0.00042835720193539205,0.006051666903940174,9.120000000000001
-0.03332638364061914,-0.14934298072424143,9.787049378539932,-0.010405152880888897,-0.0004116102348726005,-0.014578098178232739,9.13
-0.15849804168739784,-0.09559505886959804,9.924339150442481,-0.0023908257236179603,-0.008267501275809806,0.03456239611686324,9.14
0.031866896450373126,0.14099324662813162,10.044360075458476,0.019124626767497932,0.00706169959192819,-0.010052213973157736,9.15
-0.11166837304468316,0.02941923796698126,9.884547908580934,-0.00271560842250135,-0.007079376572905214,-0.022713871043263625,9.16
