ax,ay,az,gx,gy,gz,timestamp
0.06607694766616667,-0.06961880959458436,9.644876780160773,-0.01402459757320852,-0.017944321869534405,-0.0042819452744835545,0.0
0.141385963412587,0.152051544229386,9.647798822315616,0.00011828670903079354,0.005971230971994313,-0.0022583150854544936,0.01
-0.2237530455802082,0.05514618274710769,9.894588980789374,-0.009089646130085595,-0.0018125644232524114,0.01522208746089369,0.02
0.1202080642211833,0.09023178299158596,9.929452211212022,0.025707153809288986,-0.012159650042230364,0.0043728485797491865,0.03
0.11401058783422864,0.10789662839093267,9.920915236516805,-0.002329158211340135,-0.010425508872795022,-0.0034531844944177765,0.04
0.12595478813296532,0.0815355649816369,9.785772773587901,0.01319605614687977,-0.00816503050692228,-0.0033840555257090344,0.05
-0.14820911773217432,0.027410228493921635,9.793657943955216,-0.010282304767911796,-0.020540264853863954,-0.01313922579779591,0.06
0.034241713432595904,-0.04495180409460808,9.838754284362762,0.00724046142418864,0.006107078255834306,0.002536029916990949,0.07
-0.02634978705633334,0.047298200563300044,9.728128967291926,0.008112203929251011,-0.003566688559732624,-0.0055238547456835894,0.08
0.03858174822180316,-0.1591996085044243,9.934170100499749,0.0013851678728106147,-0.012643197879852519,0.002971478462164462,0.09
-0.15311307470626964,0.053022171210391635,9.822477093340645,0.00813804470302874,-0.004381627910493679,0.0070722478945294065,0.1
0.13573784998060176,-0.03381749170921582,10.09255419612916,0.011153810202106268,0.0023883946666039923,-0.004575133926643476,0.11
-0.0026945745933852363,-0.10312802579733452,9.602420008886615,-0.002853933796487803,0.008268095888900902,-0.0008564119258182487,0.12
-0.12940145882310358,0.0010304237378151266,9.718338615543406,0.02566020942819908,-0.026223187187747663,-0.0026892735357517527,0.13
-0.08689468306604951,-0.12230347443517953,9.768385316876929,0.011179562228928852,-0.005360109821942784,-0.005386942684905613,0.14
0.010096326455385773,-0.03189753439611042,9.750692628548906,-0.0064925993972138754,-0.012316156891736204,0.004637834243158904,0.15
-0.013716921174277592,-0.0016398674924119852,9.826841961226142,0.0019448216281344366,0.008680429008119413,0.01758912278352326,0.16
-0.034389734370804885,0.005050883328512337,9.716635851069112,0.008363063818330964,-0.005666143370766007,0.0027911306932434693,0.17
0.08623604030997627,0.10673711286278219,9.689450516960733,0.0023812820459991812,0.007194860646302386,0.003045266317229725,0.18
0.061309973419924,-0.1558138553263746,9.775487645723947,-0.0019426692456610381,-0.0053126476278969525,0.0004602363230552609,0.19
0.01011402342904056,0.004851771194493885,9.82964103743789,0.003373419950744263,-0.003596408117107176,0.013886106518312681,0.2
-0.002679542111459204,0.01056875125107718,9.828546714278456,-0.008386992562543341,0.00773668828686177,0.00318405000490167,0.21
-0.045492880356577954,0.11679718826121535,9.810206982943253,0.007741879974378246,0.004580670981217228,-0.011631371566703836,0.22
-0.018365608164996022,-0.0526097982228576,9.893829363969054,-0.00041398438827354103,0.0030534405269559586,0.005880617028293843,0.23
-0.03982314505249565,-0.27953551190795095,9.909162600379299,-0.010935934454069119,0.009122403237977103,0.0033890038879393837,0.24
0.14917326878803985,-0.0028832964336324217,9.724779073061608,0.002547911129515391,0.005291421048052694,-0.003072733401429526,0.25
0.20092937228288477,-0.04392947849572573,9.879856915701723,0.009465630542724117,0.006553453533759336,-0.0012504799869418532,0.26
-0.0057584604861332525,-0.08051673716293539,9.816346974362897,-0.015678717840041427,-0.009920199875243873,0.000983129722451859,0.27
-0.07143081063336791,0.03663904454766031,9.60277766209391,-0.00753778464614592,0.003366549497180459,-0.00604779276142109,0.28
0.004472040339587444,0.07940626890599656,9.758208461954652,-0.002436097235549292,0.01489818487345865,-0.0079276117271229,0.29
-0.12789925639151523,-0.03561216416214754,9.870563249963974,-0.0016647617842091677,0.014008039557165314,0.0031133550392725695,0.3
0.09938150017642014,-0.05484752785677497,9.727783468019956,-0.0023341548419218484,0.004760002515091607,-0.003555721839182976,0.31
0.12012426573190665,-0.08998837927443187,9.927486763261824,-0.010893702455263747,0.009476486955715546,-0.009396355132184555,0.32
0.03128853907570397,0.022797066462867506,9.799856871237454,0.002850984987502679,-0.0001010987631988818,-0.004405325263609373,0.33
0.12362599185021893,0.09577698306196926,9.852902222955992,0.01355569163776603,-0.01830736202609852,0.0062210655874435595,0.34
0.11854473347236492,0.027926381894739283,9.786080902006294,0.014286383539609836,-0.0013290662371232902,0.016309663615069688,0.35000000000000003
0.01452522334916589,0.050683141656431535,9.779041291602098,0.005868504717653611,0.006015914436475086,-0.01467928788588553,0.36
0.006451515549605491,-0.044555240549357285,9.670217478049466,-0.0015774778666432154,0.0019210266508493915,0.002550317875032466,0.37
0.021474736983902697,0.0264490734991508,9.927826191968208,0.0027283385461351695,-0.014303249297361587,-0.006890537695849764,0.38
0.140091579202088,-0.3356271519895755,9.872360815101544,0.024717485461941968,0.0016764783745057965,0.010638173576593775,0.39
-0.03515977195994961,-0.27293918178745374,9.753745741731885,0.0045421884420956335,0.00147869652776422,0.0023287569849939284,0.4
-0.11168813196556902,-0.022050991236887686,9.720008511646828,-0.01130359449065156,0.0015677368080994345,-0.007542670313620202,0.41000000000000003
-0.006834303525570549,0.04411587746675477,9.822790267183812,-0.014542914483944932,0.005937305031810279,0.01411799549602189,0.42
-0.0852346130934147,0.14226255495702073,9.815444949962357,-0.0038821926470244328,-0.005910291663986119,0.012053379539855122,0.43
-0.03838760139451783,0.06097252559725369,9.958699131050867,-0.016044787558413435,-0.009029913674596886,0.004479472191682982,0.44
0.15898699504893388,-0.055470292470045826,9.870785643826236,0.005174148693384497,-0.00028010139732182805,-0.009948117661277685,0.45
0.11240033689913374,-0.1130610182408824,9.980408351693962,-0.009506184318646747,0.0006198113381213127,0.00552873277763189,0.46
-0.08889553685209128,-0.089423702140372,9.87025530084088,-0.0071459513484647685,-0.003717720015162637,0.0028710834830312565,0.47000000000000003
-0.16156049761689795,-0.1523498562124892,9.88296668588181,0.005382708020100712,0.012036037486872668,0.0038473292644946393,0.48
0.08511748961660448,0.011939599262852063,9.670821025854442,-0.006234208495510299,-0.00021576779456894415,0.001975968755609548,0.49
0.019385103099075773,0.012656452412167583,9.70213550861136,0.013968774041685755,-0.01139035721027399,0.0010077731349676265,0.5
0.14363501307939447,-0.13368959987035586,9.773061111740784,-0.0076737513225895865,0.018258733902570795,0.00754726854666816,0.51
0.13565680477980893,-0.13175809832496185,9.755389280802484,-0.026211907216448862,-0.008966471459518417,0.00036295353804091895,0.52
-0.11389391942936106,0.13250034200014488,9.664183938564,0.0011935895055341893,-0.0034200076706114167,0.005939166126995849,0.53
0.08375664897764896,0.17863091625753408,9.780258025397742,-0.012033894851042733,-0.006737495938236926,-0.010511588202205947,0.54
-0.09182473965301227,0.011568330663699609,9.851728097384829,-0.013458191886888363,-0.00540734423571511,-0.007659787815126242,0.55
-0.024159404285956376,-0.1472996915207962,9.820134509436029,0.0034403389210342066,0.0022736048039358322,-0.0018114671837230856,0.56
0.06564574792855604,-0.19859145858927674,9.740986649120638,-0.005802948108368565,0.025488506715636326,-0.014204994920371014,0.5700000000000001
0.013419659460599002,0.008570479038302516,9.840602932644883,0.007895530097310999,0.002943844243714595,-0.002392655587505913,0.58
0.17653291157769796,-0.1624073556662095,9.798422730571165,0.006678842986143894,0.011652829006189958,0.017085144336916453,0.59
0.03856657178721274,0.0343552819942036,9.696998833890472,0.010625276312852433,-0.017345831239441868,-0.021311151741547164,0.6
0.04986863636583864,-0.009242617332799644,9.857964894209132,-0.0241771329920398,-0.00843310449612439,0.0016623119726008539,0.61
0.02886771061140586,-0.14862708552799284,9.719853901244399,-0.020251967278761333,0.008691584448630581,0.003584222716172308,0.62
-0.1139105229624074,-0.12921591901301585,10.012766458047562,-0.014109977182088645,-0.016914710817271115,0.006469407838155674,0.63
-0.03114926766596316,0.03308493941094658,9.86192896315336,0.00817410164561793,0.014516996021268784,-0.0090166353705166,0.64
-0.08672754691823403,0.12883865054371146,9.755285407963001,-0.022581158740165804,0.0015168919648329358,0.013029848400765483,0.65
-0.030242458208694298,-0.05189383301814267,9.802801383082993,0.00195428006234181,0.01213520942624263,0.0005094300303124274,0.66
-0.05267251176985893,0.05803542815717096,9.744170731523615,-0.0018712145686392437,-0.01388747088795089,0.01909669615958446,0.67
0.06760813502102274,0.2615421639712311,9.781304366875508,0.002822420310557823,0.004946475636065535,0.0010611681068097123,0.68
0.011769438755691523,-0.036276942986630374,9.876386498321084,-0.009376850447872087,0.0018609064726322832,0.003661687261827289,0.6900000000000001
-0.004346929108517289,-0.09583863027536348,9.937539103820063,0.0007391853829930828,0.0020807723841339268,-0.0076609740527811415,0.7000000000000001
-0.01622705984105997,-0.08236113317552823,9.744790747885318,-0.0036752145408678384,-0.01114391056987167,0.001833179924349255,0.71
-0.053505708025218306,0.01587539699682541,9.680600818031388,0.008011619762989232,-0.008527438883556485,0.0015711057545257764,0.72
0.0560463390108948,-0.06764398722433608,9.901487721805973,-0.006653555533282918,-0.012026303525387529,0.00747312036128972,0.73
-0.02468866605394297,-0.12268404547701772,9.741980530949498,-0.007577649162738489,-0.02118074542637209,-0.0035448771246928343,0.74
0.10992633859248602,0.04012414844021646,9.753105085229533,-0.02035734137051537,0.022942631124646055,0.009080142824753524,0.75
-0.016546556737647208,-0.09891353918575499,9.779890929820834,-0.010099984808069385,-0.009489458556213448,-0.005688701747450687,0.76
-0.01377341438437115,-0.003961937183858245,9.922091825957443,0.006337429136071849,0.015474214276449095,0.008905077702851988,0.77
-0.036800754950562835,-0.12772200235593018,9.68320177286116,0.007415141349732313,-0.027457142487403285,0.005048297718551986,0.78
0.042129007071416,0.05800254871171893,9.825904226960423,0.006112706340987194,-0.006405020078742955,-0.006333876827813806,0.79
0.11576038533493455,-0.27601668749469516,9.673069176238211,-0.017838589740078414,-0.010222648055730008,-0.014259291407100045,0.8
0.008956813450477106,-0.05078910105466449,9.917905260576035,0.01103440914529034,-0.0054156135979851775,0.006989011032636798,0.81
-0.017940432580296636,-0.005599864780079591,9.97159590854724,0.004553200888082264,-0.013478745500344344,0.018685760208310365,0.8200000000000001
-0.08314101120203601,-0.018012858021728882,9.851127924726054,0.0032211761920778463,-0.0022893016928271183,-0.01003904048212492,0.8300000000000001
0.019385805400441766,-0.05891389217487798,9.702876167461719,0.005727433156703367,-0.006530409019383799,0.0043346632499914875,0.84
0.11928795234525531,0.09062286527143112,9.822378013476506,0.006687876346873772,-0.00568224605734732,-0.0048923271777367725,0.85
-0.19039309070059604,-0.03678783599906605,9.823920440091241,-0.01836777838618118,0.005191934056119048,-0.020999660109895967,0.86
-0.13491329588192533,0.03810868326228091,9.767161987263355,0.0021961044657105903,-0.007714960809211274,-0.0031791045787372962,0.87
-0.05761890671519923,-0.01792787206283852,9.50424021617997,-0.005123801179923342,-0.01273817685170704,0.005487348176885356,0.88
0.07648428228055304,0.038939564783536176,9.758100497864133,-0.01067978569318331,-0.007378037577296812,-0.007599234445980448,0.89
0.14609089281672524,0.13757822778832984,9.80593599685317,0.004504526208888854,-0.006191240267812664,-0.0064134654403338424,0.9
0.12676378628623675,0.008945865921837225,9.746097829216897,0.015071514302187018,0.0038774538656162765,0.0033159341533104104,0.91
0.04890511542066613,-0.12020132215992461,9.841815364616842,-0.008076184797026941,-0.000793934650348965,0.0025893464334067334,0.92
0.04749325117577097,-0.01489257738672972,9.76654796799248,-0.000889695654586142,-0.019997581485609518,0.012602131103425751,0.93
0.07853015508879933,0.21262231099326623,9.812560080538491,0.006891527795013344,-0.006565604645552983,-0.003780278303004738,0.9400000000000001
0.039620118764697974,-0.0323045445217805,9.982317413040239,0.0035967759814055193,0.02233970959371493,-0.020675803114231502,0.9500000000000001
-0.09540935130853584,-0.05933501843687984,9.942753168600106,0.009916331963314089,0.013060488549797451,0.008112574511771463,0.96
-0.12670326927363573,0.046148428333668993,9.745626557485894,0.01016220379649397,0.016141227251421773,0.012084680954140312,0.97
0.13555291704112635,0.03549342701066604,9.73345437312399,-0.005878935236573635,0.007744920293554993,-0.0066399205050843004,0.98
0.1943037968893631,0.12428290606429336,9.704106158273168,0.001588584027998225,-0.003182939129468339,0.012951229533345987,0.99
-0.06217059422138163,0.09076040370711744,10.063616141003939,-0.0027522802373321537,0.0005377103626639936,0.004929505852248836,1.0
0.0444599282422238,-0.09044777886095876,9.786516356004809,-0.007383649455493254,0.006590962140917558,-0.0024413440327828344,1.01
0.02068842336479535,0.0435361643631566,9.881934527281341,-0.004439889295624494,-0.0021508753304527164,-0.01211611853006148,1.02
0.09855650326972488,0.15191774338705857,9.688548972013749,0.016991933283428046,-0.005530791271271841,0.007617296058487083,1.03
-0.04796599985964164,0.1350747757730817,9.721104251574289,-0.015583620916742454,0.0028956892822239217,0.0007693594203898472,1.04
0.005071220720366934,-0.13100603740288294,9.685010952724202,-0.000507016870098438,-0.0006462134779153374,0.0040668460081673945,1.05
-0.27042129100208584,0.02098192926383384,9.836712046864244,0.008770418106621809,0.0152953847768088,-0.010618564090949243,1.06
0.08061432837487764,-0.0763640282111877,9.928133997887127,-0.004063843671055922,0.005476764918356001,-0.0036419102956173513,1.07
-0.00979638395077831,0.18546066893884627,9.778474499441149,-0.014944436383722734,0.02956682280976508,-0.0016152679094636484,1.08
-0.05134681725225562,-0.0009509804914439946,9.791475078965851,-0.0038627664341944357,-0.0024714194445427445,0.004444277787214629,1.09
0.0449719120414199,-0.014390455888842574,10.030419686186347,0.004739413191428995,0.00541530773954753,-0.013529242814826998,1.1
0.17763975435440882,0.0915621632267525,9.777133554613359,0.016853029247346208,0.008950641285593142,-0.004130564392884556,1.11
0.1110492379616275,-0.09851212929171375,9.770827041021503,0.0022517233565079804,0.015669362350646497,0.00011954878248352956,1.12
-0.18228456197655146,-0.053977616419468,9.712172692051237,-0.01565427638732203,0.003714789759824847,-0.005190235826909876,1.1300000000000001
0.024602433009470487,-0.09301313980109799,9.74255323018815,0.01663852991320801,0.0037166940240771764,-0.000848976437254932,1.1400000000000001
-0.014428351761062662,-0.02284174389104998,9.745755871297092,-0.0016728435002279576,-0.005283319455879952,-0.0034592900497085795,1.1500000000000001
0.051120284864422855,0.12404318375685248,9.78119668722679,-0.004365667863874434,-0.009253971398585697,-0.013820338485684513,1.16
0.08372747276522313,-0.024116142624969698,9.799454309275474,-0.0003233986169112653,0.0012915179503589465,0.01085830564908242,1.17
0.012434305113464422,-0.1274357036037111,9.854772139610551,-0.0003964288352296831,-0.009323776037202736,-0.0010610784910327436,1.18
0.0033436537399435876,-0.13389210815361938,9.855875244567828,0.00950899611149079,-0.012238097013592322,0.013083332553185775,1.19
-0.0844557751055004,-0.07532915144716186,9.688268009454788,-0.012426134863101752,-0.00475722094953608,-0.011291268774130099,1.2
-0.07251852210982088,-0.07453650640658603,9.715813235575805,-0.0005066339917463846,0.0039629596633710944,0.010357537643074706,1.21
-0.12919016010987802,0.03392446732270773,9.646856995942565,-0.009098747942866291,0.00484880810235178,0.007032896954774278,1.22
0.10690426918832066,0.020215772490012156,9.830141439821363,-0.010565834075597585,-0.007002493650482935,0.012491479277415571,1.23
0.018873598877585947,0.0018127686467850326,9.746806583157078,-0.0016563517295869281,0.0007541023095949125,0.005011173542407079,1.24
-0.12849267584006588,0.08399491839357066,9.819597835971132,-0.009367757899158297,0.0017841120901145582,-0.004150453223042792,1.25
0.18951688040732495,-0.024093219586064234,9.876184924322255,0.0020090596513369103,-0.005475610052661728,-0.0016482893235551424,1.26
0.059869118852027225,-0.12302767275528322,9.763358626460873,0.01862669628754392,0.02385015025336513,0.00552672513714644,1.27
-0.027704216506261477,0.0351806842333287,9.786835460461607,0.00016548187534565692,-0.012826673287868342,0.017645051643949795,1.28
0.09160219659582744,0.0344634656624676,9.767448748928249,-0.009771160527096189,0.010248651105445528,0.006238825056885107,1.29
-0.027963176815465025,-0.02208595974141957,9.873005962686808,-0.009307191764707172,-0.009676182527772014,-0.009480293379910062,1.3
-0.1000761436940168,-0.08884044072062919,9.787215883076046,0.001580449641675624,0.0038492938766880504,-0.01112990246686186,1.31
-0.13537996382396997,-0.11088656137089939,9.815980584284857,0.008578885551283172,-0.011930127151546432,-0.012519772136406173,1.32
-0.14622368868490185,0.02596570971499523,9.901313945652092,-0.00453638090136679,-0.007148811896812038,-0.016977419578638304,1.33
0.11411071038200377,-0.1584039225327201,9.831335019083866,0.001642747511108107,-0.005028995615225433,-0.01222972813298673,1.34
-0.059875787780219326,-0.06890919866633892,9.69501076551105,-0.0021314667336089855,0.026230368426029733,-0.004668180191597655,1.35
-0.19359452572687422,-0.05627986877677649,9.698105019906384,-0.02874920350087367,-0.0016270333576892584,-0.0021264805978582447,1.36
-0.03686838159889465,-0.004957667338195547,9.851497894406126,-0.003940015411326082,0.015736992534901077,-0.0051986928758671405,1.37
-0.0016247078742368103,0.12619167106904847,9.803608803442359,-0.0173825178796002,-0.02080010701756996,0.005548295672762096,1.3800000000000001
-0.02329937738522249,0.019347724624305382,9.719967329759085,0.000777162814878391,-0.009330330756435594,-0.003908210958987542,1.3900000000000001
0.1926149019135431,-0.07914299555092348,9.836670148467865,-0.0009728157036004789,-0.012187078461293625,0.001556100040648026,1.4000000000000001
0.05860803051561823,-0.10916984743816255,9.903096224780693,-0.008400489502775476,0.004360380713483833,0.0032437055549437814,1.41
0.10976109943219799,0.11367176952340535,9.880304274555991,-0.006637424190989959,0.006695158616765459,0.01046011611038826,1.42
-0.034829843281309295,0.02671561373278951,9.900468355860093,-0.012159832428019195,-0.002170509217933749,-0.003471535306272815,1.43
-0.03783552618707571,0.05814047528039158,9.890068993004716,0.0014077768817077267,0.01758855958859076,0.003505192949820869,1.44
0.0040534072848715155,-0.055498447816953726,9.871397902925102,0.014159046861671104,0.0032456796302361124,0.014365413763116692,1.45
-0.14440179618492469,-0.17359907644998732,9.823903164427373,0.0009158295714414432,0.00863150288101202,0.0019876030493365575,1.46
-0.006432636463209594,0.10480414884358258,9.646068904855337,-0.010610244071157189,0.005556642055920261,0.016823607166075064,1.47
-0.09191093714133253,0.32870182891149957,9.803944920246053,-0.01781335481852248,-0.0363209890611775,-0.0038772692182786183,1.48
-0.08320611172716348,0.010809709442948774,9.60651165533105,0.008003839972892644,-0.0020100520103882003,0.005080228272331325,1.49
0.06198186616604271,0.14727309886292386,9.810378777148244,-0.0021575761246801196,0.006400068779422225,0.001589591607058537,1.5
0.05802756251961414,0.035242417296336585,9.794311401212322,0.0061624145231370855,-0.0013473988082162173,-0.0015236170505199854,1.51
-0.1283543223909722,-0.061174085027120344,9.795112767602669,-0.013679634865728294,-0.014158208704822317,0.008013597144773085,1.52
-0.029939416566683304,-0.13784657313127113,9.850568364081719,-0.004222691013717489,-0.011589547491459781,-0.005383676197670086,1.53
0.05861044090217187,-0.04724172025174653,9.808987121715592,0.0035600430838510057,-0.016895952127392623,0.0026083069177330236,1.54
0.08234822498995897,-0.03625926755303868,9.655975346222053,0.009070651484105739,0.0007936819589399617,-0.01537791916860456,1.55
-0.0272217652787462,0.08517128917317775,9.968606171757827,-0.003927503069604604,0.008042001303557048,-0.0020075835292142573,1.56
0.053253169292469274,-0.04497836694350796,9.950106759504717,-0.02140692423053636,-0.002810354701419255,-0.00432978508380047,1.57
-0.126730936916097,-0.0018585594976959373,9.633871210429609,-0.006690272825594273,-0.00013946778118225492,0.013848863857096065,1.58
-0.08806089813478615,0.23817205863078206,9.839897097944757,0.010879817919672893,0.006668882907349334,-0.0054111066494800155,1.59
-0.0559870234427471,-0.10309149999747212,9.816457868756624,0.00839223135267121,0.011467461370753176,0.016533769362773006,1.6
-0.07453361570013405,-0.04642841569988955,9.995842267057952,-0.010322154307400862,-0.00783168674327447,-0.005469966802360149,1.61
0.006905111893268562,0.19615655845824198,9.85552199151238,0.006651707021265656,-0.00393455596931866,-0.01056645135728881,1.62
0.10191951952025274,-0.021421107167181243,9.882061192374525,-0.013483066345624378,0.008438734985426218,0.00862795470901221,1.6300000000000001
-0.08711492428914587,0.02081959888545891,9.97863033348995,0.00500530683394838,-0.0037641012850605842,-0.011503500728185316,1.6400000000000001
-0.010010704230574489,0.016163319882961234,9.834227854572147,-0.000871948948905155,0.0017134427834043487,0.01561068485543281,1.6500000000000001
-0.07619207177621362,-0.027806536974604668,9.662461536549609,0.007960651268737365,-0.0016498226201434334,-0.0007530213331333498,1.6600000000000001
0.02938212465100164,-0.13548492076230093,9.690357409822436,-0.004645179774937195,0.00634126303473911,-0.008017856844420771,1.67
0.10901212319055689,-0.0642480946126109,9.906924939071319,0.00226546268249321,-0.005308620637534209,-0.005543802377640374,1.68
0.08073392146699476,0.2178395017286322,9.637172795715264,0.0008416762806702857,-0.006311860369662873,-0.0005691318397257184,1.69
-0.07442716864567575,-0.18782419555646074,9.938211956635966,-0.01848169238834601,-0.0035211592068187265,-0.03261485505408718,1.7
0.049568308163836144,0.10020010508614069,9.834358028522953,-0.009402359658027545,0.0005005960036336813,0.013344334394708722,1.71
-0.06482857214609541,0.15434725842671207,9.883062895864809,0.003808981436196334,0.012649343679398435,0.011915834505918294,1.72
0.018088371438745768,0.08287878048171748,9.620227985448855,-0.002727145025313935,-0.0304627764424931,0.00849706987142997,1.73
-0.007010781118798572,0.018937049152312292,9.866647706584835,-0.0010578758577036754,0.011508562818296451,-0.0041220766196915365,1.74
-0.2645347363419637,-0.0690235792156484,9.868182777957013,-0.010028532005651155,0.0006938291672084372,-0.005319175124613305,1.75
-0.19281567182179124,-0.07308083097785459,9.960845001339397,-0.004487841510339745,0.001971673530897639,-0.004965092364414347,1.76
0.025290479496944098,-0.10069596268070535,9.692990914300493,-0.012036191285262381,0.004573970329297755,0.02144031759994177,1.77
0.10472531481391976,0.026793883389041585,9.822586218477044,0.0041935888064504965,-0.023783678985957863,-0.006077420808447313,1.78
0.06336012614748288,0.037069095348268945,9.775387157630933,0.007513587269097815,0.0013921305576349789,0.011531745810567982,1.79
0.07032722499006756,-0.15741314432124695,9.791425306004392,0.012039318521653122,-0.013302365766291076,-0.008675454853136085,1.8
0.01605386859735494,-0.06816322796002676,9.961544112930135,0.015306624441104977,0.008782199731361013,0.007797348470584853,1.81
0.1664512017485137,-0.13330279671768575,9.940082879840707,0.012610551128078032,-0.007432219672989854,-0.02295886067162761,1.82
0.05878127845026859,-0.04852310641098651,9.801300878954224,-0.014611525299823248,0.007567790078409703,-0.012944893021939461,1.83
-0.036813592656726506,0.07503332406365909,9.885784420998405,0.0006466859706056418,0.009427627388407656,0.00528460432285114,1.84
-0.012772711941276242,0.2482289051622983,9.747456577440222,0.0009483087066298526,-0.0019724271667831707,0.007562639489038088,1.85
-0.03249324588383157,0.04527740209763218,9.935202247239294,-0.01142382545210981,-0.004449603513462102,-0.0016610586467380169,1.86
0.02988816854902627,0.08908410069340969,9.996986087845075,0.016449671693501124,0.023243133592121636,0.005417563903177051,1.87
-0.12097481691849038,-0.08267946676391273,9.728438615243027,0.015192939496393254,0.0025761864840613473,-0.009157370608548338,1.8800000000000001
-0.06189414064367652,-0.037131233160176226,9.855277452739998,0.0031515571058793237,-0.000304290978332426,0.004140482066425151,1.8900000000000001
-0.027320857944339184,0.05936098734963661,9.93936832695652,0.0045875427884142575,-0.003498828764072758,-0.009741301831495503,1.9000000000000001
-0.04223776001242596,-0.10777532636028604,9.752420539759276,0.02095697390639419,-0.0031915146185406214,0.0038851341332728218,1.9100000000000001
0.12446858979646576,-0.18652498549475577,9.738450069385577,0.00819017920242553,-0.007344321365765051,0.009875523902664982,1.92
0.05542310055295122,0.025625358588266475,9.791563269192642,-0.0026131471728926526,-0.0065485539034899265,-0.005029158211288023,1.93
0.0736911898084567,-0.031114999920326937,9.908586659682092,-0.0068428052112924544,0.00439773117352438,-0.010690046943512456,1.94
-0.10520795297065764,0.061969627604672874,9.968017427351354,-0.015113477786506527,-0.008412212623134959,-0.000916136034221686,1.95
0.201753380936123,-0.010927408894203051,9.882441166232095,-0.0023276595476585285,-0.01698222860063076,-0.007882070809286448,1.96
0.11018724677655645,0.051177898611108566,10.037697728473272,-0.010667827509761559,0.009033344124000397,0.011484128314305444,1.97
-0.06746205225338041,0.009392433706485756,9.642561506559106,0.008495179590385305,0.012824559034708256,-0.012085819826586571,1.98
0.011094368878138415,0.07115487428966329,9.936724584397378,0.0043007680755502205,-0.0014998983038664532,0.012318874784680028,1.99
-0.06028904153446191,-0.17825473055795807,9.7992710700653,0.004244655232856184,-0.007318455538956758,-0.006272193505847189,2.0
0.024192737600715466,-0.03443009146157915,9.74783084614438,0.0019615897613256125,-0.011887466433468946,0.0004587667117807487,2.0100000000000002
0.08470869796884685,-0.07004897958004516,9.790829245777514,0.003983081888637156,-0.007490300054373617,0.012246525984106908,2.02
-0.10770850250448623,-0.024076108129097048,9.88006611359102,0.006927880285630337,0.006214690297354874,0.012017551276370601,2.0300000000000002
-0.04410722071277857,-0.09403702219668858,9.9932145546801,-0.003163665177662964,-0.006136930619230807,0.006131002022275583,2.04
0.0846065132781135,-0.010722931083690317,9.759553624214172,0.006976977709337555,0.0007430214394342617,0.009128063882652583,2.05
-0.027305327743414994,0.09991451675218865,9.781826589880103,-0.00018071937394078356,-0.009731358982773212,0.004313092167524859,2.06
-0.0282391748161661,-0.051314326804908716,9.980672048989042,-0.013888763517827774,-0.0012036040555820123,0.0018627357034176567,2.07
0.19576075214400482,-0.1012064929517959,9.851641452980685,0.007428587727690679,0.0024555270936969294,0.00990525586041976,2.08
-0.09613848093057989,0.12580153560219645,9.89298968401194,-0.00885042541642097,0.00672060153338969,-0.007034379373249853,2.09
-0.02483116130718195,-0.11757134366273068,9.68732820333922,-0.002493865457556464,-0.0016660503585430103,-0.012243196216847612,2.1
-0.0005024996825999305,-0.0859003259051298,9.677443912554338,-0.0005313020920806905,-0.007873007316194749,-0.006020718161906967,2.11
0.0629116405676392,-0.004675713481302256,9.775767163975111,-0.008844918499384388,0.009234319719838359,0.014178989970811762,2.12
0.1032894901982884,0.036654150361862786,9.79498787389792,-0.0016710362493307484,-0.007197843998065194,0.01891737283264696,2.13
-0.13896171800231913,0.16949884044243935,9.841614674041292,-0.012828185162900036,-0.006596853487773565,-0.013385885332689107,2.14
0.15438855447208472,-0.12440964430622602,9.914531732235984,0.02263482958361031,0.00016027087878835698,0.010233828020592323,2.15
0.21270140608721422,-0.11473300648003576,9.710148023951689,0.021799666080236188,0.002165523179036792,-0.0006406012215247669,2.16
-0.07124847702283997,-0.07577521265932562,9.69497636474682,0.015912862696027673,0.0040951329663174345,0.013710065919464507,2.17
-0.07758755424415921,0.1651448350601999,9.664742090051575,0.013412242003220845,-0.00022573647308426676,0.002314769116661267,2.18
0.015383620814595387,0.13944474386719272,9.929547597596306,0.005025093794890018,-0.009904784999407487,0.010841882041353846,2.19
-0.007645118512491292,0.020942340873455836,9.666961429506781,-0.006107867567620817,0.01632915536744215,0.007961112649694705,2.2
-0.004757090596157016,-0.008282653221780472,9.788638954118067,0.00421270197089987,-0.010091910259686506,-0.006880160225725897,2.21
0.10826907439320013,-0.06164693707622412,9.67898381191464,0.008644317427704048,0.011376786695924375,-0.0004948579602335945,2.22
0.016090305292945112,-0.012690533044983743,9.750516205307466,0.020115358463719837,-0.008225296807235567,-0.008404256817642175,2.23
0.0760875825373777,0.1955284033748992,9.861837533346918,-0.012217346456959915,0.00842745741933834,0.013688916049010727,2.24
-0.1351962665831469,-0.052487314064273,9.806422526848122,0.014920467255339014,0.0010157844463534649,0.0026879858246704105,2.25
0.20271998715489095,-0.019415281044972633,9.91052008699086,0.007100692982031475,-0.005420837623057083,0.011297991814762327,2.2600000000000002
-0.015558723623830241,0.0114437225914464,9.82715871854036,-0.0005442524438253528,-0.015393980142379988,-0.002000005660857484,2.27
-0.03620825870099233,0.1617670538848213,9.71470361539684,0.003156463780734662,-0.002448830295714788,0.013839185494327428,2.2800000000000002
0.05086772995396267,0.14207541650083078,9.69486093950425,-0.007941333861844105,0.00014706019633014977,-0.005929898927839286,2.29
-0.07139785340340961,-0.028178601806470967,9.632170475608772,-0.008868945751430758,-0.011370976715381951,-0.005354907717786983,2.3000000000000003
0.07679617009145971,0.08996261353218818,9.899082330402544,0.00431939770651564,-0.0016336664781181965,-0.001076130259622812,2.31
-0.12213375463633265,-0.0033146802223709797,9.791522921267012,0.012653479365962061,-0.0017552354966370103,0.011577109888581863,2.32
0.011282764246357367,0.17345142327241536,9.869268077575128,7.345238258514825e-06,0.0010407291685340472,-0.016281737317172165,2.33
0.13501487068754078,-0.11032859797963829,9.781801009975526,0.002933845343095147,-0.007423159881875306,0.01500453343240226,2.34
-0.11562326737632588,0.11830745619413628,10.063447849768874,0.010895469135055808,-0.0040612993000451346,-0.015177993577827056,2.35
0.010680117057162583,0.05216942564956341,9.921248028260829,0.01326453073066763,-0.007585562379308071,0.0005752274038787808,2.36
0.07847179819425909,0.03826958307644559,9.740220036705775,0.013904619453098746,-0.0009211607863687108,0.0047169164245191965,2.37
0.0034170469287330956,0.0429152347965285,9.829929989450255,0.018650212811277794,-0.009696544415865175,0.007237253724791883,2.38
0.11433319800119812,0.1800416223966762,9.72838809593224,0.011320817109138084,0.0031734786112872517,-0.0022522539143244487,2.39
-0.04598688843968734,0.020723530462761236,9.705421616882985,-0.0024709190672121523,-0.025787956918391097,0.002667744669790042,2.4
-0.26855110558036943,-0.07621449241661721,9.74951029261856,-0.016236391041661264,0.0027908767728168243,-0.0029032984282604396,2.41
-0.037362829050339934,0.09776892225194757,9.804156520269244,0.01346356950245322,0.0007737242770996809,0.00495257267555011,2.42
0.07242671035575592,-0.14351280736122582,9.747070546764695,0.013450964259307585,0.010799498942307383,0.014341546751033225,2.43
-0.09827320968765492,-0.1447283030673988,9.655595511578383,0.016951195710233073,0.01696598847899707,-0.005162773226045654,2.44
-0.08737711599023561,0.06443627240026657,9.680804233518574,-0.001957131547263537,0.017164813606805406,-0.011630881083678253,2.45
-0.009244084467440461,0.015780517562651666,9.575570913771369,-0.007440148335237508,-0.0052642524500656155,0.009298776854034452,2.46
0.10429674142905734,0.13094758886010407,9.872373700749534,0.0043089059344557845,-0.011714767798653143,0.004250973151511749,2.47
0.03823136180185578,0.06931527323185807,9.781699356282349,0.0015350568293571187,-0.017201989950050567,0.016024465766569955,2.48
0.06012437034372919,0.004876363629341542,9.846087852654628,0.013635868754037916,-0.0027669223587599577,-0.010205169360624194,2.49
0.11943164744134394,-0.09709535818011607,9.89548945626417,0.007885250648811825,-0.01007378115643418,-0.00821416844610198,2.5
0.02122023382365994,-0.23441374617225064,9.75371110028428,0.021735308694077686,-0.010704821148897967,-0.007380254240002608,2.5100000000000002
0.05760192846046717,-0.07377271731114565,9.668386414158107,0.011502684289165779,-0.020145341426370734,-0.003575630502351849,2.52
-0.10663827528105346,0.008181188340050244,9.847793543310393,0.015383696433792001,0.005785339218535329,-0.016591209235148455,2.5300000000000002
0.01429126499937259,0.0782206948464651,9.710190338205768,0.019030242879145808,-0.0026906057030363635,-0.006460206969257338,2.54
-0.09538593479584301,0.10586011772671078,9.821381444012715,0.004253614072927904,-0.002445586007659146,0.002610355935062857,2.5500000000000003
0.016171120960945216,0.0823022953284433,9.816544130221851,0.01384222734716669,-0.011268581171159245,0.013301817282521302,2.56
-0.078569883454339,0.1247980672044812,9.767133657153108,0.0019770097989038147,0.006411336885178567,-0.002394865094942002,2.57
0.15608803852136316,0.009940856522836725,9.786946490872564,0.005431771059436244,-0.02849425566994101,0.016880521710045046,2.58
0.08574897988928508,-0.1396852645559299,9.699327966912769,0.0031025933854476463,0.030124285022874734,-0.00014497491361234487,2.59
-0.04680299168212803,0.032500734121596465,9.798913635666834,0.02661983433116772,0.01560360630261355,-0.013158714254322544,2.6
-0.10533334887788844,-0.13548065442913118,9.812480006867025,-0.011512619188600234,0.005083235717423429,-0.010055210442417941,2.61
-0.00987799684091683,-0.038401458475616684,9.68665442363088,-0.0035912437991872078,0.014719148963591696,-0.005675703641543009,2.62
-0.13982622616104598,0.015473674094611672,9.882083502034837,0.013946034221259314,0.003973241685289303,0.000740045540504662,2.63
-0.02414853025912446,-0.013500819370983698,9.66122596505328,0.0045625683449436885,0.014169930131258328,0.0019324416118595082,2.64
0.0004816549586728765,0.06093314721386476,9.635730608318209,-0.01687747569603888,-0.014185750861549416,0.025141869878511316,2.65
-0.016660856615082553,-0.08379578823438624,9.779839282075809,-0.001672938263355932,0.0004629444520176415,-0.003958371739827322,2.66
-0.03296846679833342,0.07464647404682723,9.789506187514993,0.0021849098076580586,0.01724822997470813,-0.006072188071941086,2.67
-0.09976854966603498,0.14354200931411754,9.633326042175606,0.018557108624490344,-0.0064723233213581964,0.019738862052850994,2.68
0.15905736568999396,0.0718474368382163,9.624032452312141,0.015338532912893612,0.007064157887737568,0.005701488393183291,2.69
0.24285063367164358,0.00026308014904125466,9.776271734272635,0.006566468347437804,0.002139371734288088,-0.007804105255209691,2.7
-0.043447910418586394,0.40506805887610736,9.793700138842889,-0.017034990913319607,7.86531067076404e-05,0.008062042985354742,2.71
0.0653604238943762,0.11300179130881619,9.853556769953787,0.005021960339366389,-0.008136192956645177,-0.009313419860282,2.72
-0.07574154373161168,0.09721755952639888,9.853843480860341,0.00597834288943656,0.008542342032354001,0.002016568231069088,2.73
0.09854887718705417,0.09734654160204603,9.914891432356454,-0.012948747054471486,-0.000746323747416183,0.002034667755336375,2.74
0.05455294178401311,-0.12951918198650123,9.893152020737958,0.0015453084230173306,0.020092293013073307,-0.030739122700368233,2.75
0.09973097759144434,-0.04842894819793242,9.86322588656276,-0.014365963813529012,0.011297948231332566,0.002588205933017354,2.7600000000000002
-0.016715354686060918,-0.12168925446179753,9.722215924993844,0.0076568465898562005,0.011503922187461024,-0.005649731350920555,2.77
0.012955438707410512,0.17259727689892992,9.774880389235793,-0.008382115084865822,0.0028289285054503015,0.010009238511129646,2.7800000000000002
-0.07250191875490666,-0.034939354300069586,9.673384235459572,0.005682295929798781,0.014212882873292726,-0.002600091097395479,2.79
-0.2206554079573885,-0.05526659176115169,9.631555334965942,-0.008501563871421034,-0.016230602476259168,0.005780038734730847,2.8000000000000003
-0.002907909688770075,-0.06485481395834494,9.769703324999218,4.290820717259286e-05,0.002780737093358719,-0.007499207706391572,2.81
0.15567015484944663,0.04391565408487605,9.710230305263282,0.0007584701597825453,0.015369348054400425,-0.0020004081053046894,2.82
-0.03815800211223941,0.1133102672752383,9.791632358442866,0.007998310960473836,-0.008372584559596094,-0.013785048344577567,2.83
0.043821929686667316,-0.07095912362098414,9.667417905373991,0.006435824867646156,0.013908845493644873,0.007935062267790685,2.84
-0.12117352577348045,0.1829412781329079,9.93851392474347,-0.005829679039301711,0.0098985697736746,0.0008445645700816648,2.85
0.02364483968314153,-0.013973974383239458,9.709383680024285,-0.0017365698240963577,0.0010946397702731284,-0.026087985330724563,2.86
0.10072692008847582,-0.052551220011244716,9.90737789722137,-0.007203534925373141,-0.0027172484254191,-0.00316339464567607,2.87
0.05485454987345262,-0.1908272503962715,9.850261089617035,0.005787940783986484,-0.0066036981245740705,-0.012211214771077644,2.88
-0.14947861098952248,-0.030993156818392993,9.856102353142175,-0.011051769026144085,-0.005091669926462268,0.0007411283604526901,2.89
-0.19309243979613375,0.09726883093161783,9.864814800156212,-0.0064332400162605856,-0.00033329718826922294,0.007388381889636751,2.9
0.08044816853483712,-0.05541977358984734,9.608676505944576,-0.003746835752116538,-0.005050450887491694,-0.005880990637277053,2.91
-0.04440215384565918,-0.1155666076925827,9.845355475722478,-0.01615176050545039,0.008669995301930212,-0.006356658383049401,2.92
-0.10869137588632855,0.023097163995596415,9.923495459112603,-0.01376099378889667,0.015421170967583433,0.021324837536342182,2.93
0.04807316475381506,-0.053802631161490644,9.846823267004268,0.003988220651050693,0.005480923568481753,-0.016689260906467735,2.94
-0.08452406287951227,-0.08518336231385322,9.860206466925726,-0.007645585499832701,0.024597228050784094,0.005337761890525515,2.95
0.08453320224622496,-0.040895699431061444,9.915462762986245,-0.010802432965555282,0.009109495611841108,0.0070940912150273365,2.96
-0.06415780248705279,0.11045817205312453,9.922247362467395,0.00961729311448849,-0.011014702884647922,0.012712384935976692,2.97
-0.10188511863549775,-0.09290016881498256,9.99793497444584,0.007525171198691801,0.008048655014015976,0.01488921053203084,2.98
0.0720949696832815,-0.04376161931902829,9.817075796036937,0.028820050369470183,0.00036015453735026987,0.005361825478803417,2.99
-0.0643860201913687,-0.14712428972024172,9.838591670732207,-0.0017041944465779053,-0.0002993083715287131,-0.0004177696940328447,3.0
-0.007916297789615757,0.20664898119023467,9.676528246779817,0.0039750022371539215,-0.0004300290749718962,0.010960926011296286,3.0100000000000002
0.04429584346310485,0.31110710649853063,10.027544034039641,0.013053009574895911,-0.0031447012909507953,-0.002173117428811667,3.02
0.04307104553653276,0.012670578968097548,9.572469459688731,-0.005193964297604221,0.0031301259821225193,-0.010067541932554259,3.0300000000000002
0.11196921290947036,-0.09835812975538838,9.870695992927242,-0.003096996865358079,0.002749100052429147,-0.0065612049270979255,3.04
-0.02785572730022476,-0.0022362382158352847,9.721432429866137,-0.013713877139084847,-0.009118612596355316,-0.018060402098553693,3.0500000000000003
-0.011610063790553163,0.13129725916386747,9.894544872790334,0.014664229279599313,-0.014345837160194379,-0.013861193770007893,3.06
-0.00573067365752533,0.17432977820144055,9.63306447263317,0.0010914508684833919,-0.011921474962485665,0.008823726652922026,3.0700000000000003
-0.029798362912879284,-0.012240771797593863,9.858456188256879,0.002891167776137059,-0.012483649298267412,-0.010746400314246448,3.08
-0.06209112454914378,0.03669038025813798,9.827404909410863,0.024636742742733708,0.0007511800304691598,0.01068534037671175,3.09
0.049007846302246735,-0.15040395666599035,9.94427120852925,-0.0015106168261782458,-0.01319674567179734,0.004672780305202201,3.1
-0.10232503836235043,-0.06767481250838538,9.855886808073855,-0.01673842605283266,0.004888961819050609,0.008919784366678781,3.11
-0.016419948695377943,-0.03553534696889196,9.653050039866494,0.00778216754543434,0.01034833888063786,-0.0031521710336209034,3.12
0.003518138232058138,-0.2422579534723769,9.83810794510266,0.009943834470082291,-0.006460617944335179,0.00886938367018071,3.13
-0.04287512273458444,0.0731785589736999,10.006206979084846,-0.016968044205094786,0.00561410706251446,-0.009131909895197252,3.14
-0.09580745786501642,0.09691581184600823,9.740130232981418,0.00908500788461191,0.01782570592638435,0.0061697710728310755,3.15
-0.10488250284898211,-0.059230594986416786,9.707855600184725,0.009045005570201705,-0.00013435805313269733,0.007217837353367899,3.16
0.1380089051109233,-0.19237414617909743,9.719921073160348,0.008581021651268873,-0.006867473110510363,-0.0012574298103995036,3.17
0.035282071810085,-0.051579461886342895,9.7068688228541,-0.007031901690957111,-0.000782074599365575,-0.014325305488827007,3.18
0.09900130585096086,0.03203127588004451,9.844098204977096,-0.006079759432900495,0.00011793097124562715,0.006799796910772963,3.19
-0.1247165824048721,0.11437087724260991,9.7379614495212,-0.004173368561003909,-0.004731873524228915,-0.000494467692745144,3.2
0.04549655386484666,-0.08594381379337905,9.7616755661501,-0.004074071897874036,0.014255895909469816,0.006033833082200472,3.21
0.04639485808242078,0.13730407608533285,9.957220153529015,-0.014356867404278906,0.009046409039642484,-0.005444055649696114,3.22
0.11166626114718443,0.013533864864413546,9.849278833770777,0.0005371888040412669,0.009329457259548205,-0.00037640648973272673,3.23
0.08834231542412196,-0.12686810658903416,9.774748742523881,0.011137088931861215,-0.0010106459242940073,-0.005643529171877122,3.24
-0.08498239085009171,-0.063009725903423,9.766053313636656,0.0084677481887213,0.004400596257558096,-0.0072007024480630535,3.25
0.17174968943060845,0.08248740883390032,9.640260505611431,-0.008432893702336288,-0.007247666296045043,-0.0046373067987579885,3.2600000000000002
-0.09852583135553976,0.007172295735171539,9.737208711993276,-0.003587950058789979,0.004405076827217768,-0.0008607031844657469,3.27
-0.06024861543550734,0.15900113344355782,9.685753094222537,-0.01058958183695424,-0.009357171207120539,-0.0019709038917160335,3.2800000000000002
-0.019016754147027956,-0.0019089927124562468,9.80848109832465,0.0014033440247258478,-0.002479293263790564,0.0028405261574155627,3.29
0.04112590443597007,0.14075677252706353,9.68495327345686,0.012581528641305989,-0.009166962599668678,-0.0038029383373243564,3.3000000000000003
-0.04067200234793414,-0.015551101412133643,9.841285939287541,0.0007309618539276693,-0.006124460859703646,0.00461857915139016,3.31
0.08538129360055277,0.006709074310778092,9.685079978395615,0.006463894646520276,0.0055127000135248416,-0.0014795430872586376,3.3200000000000003
-0.16814529918308774,0.0830804155507831,9.921693323510818,0.004756932318098924,-0.012188431303114445,-0.01343327800717511,3.33
0.1396340404921583,-0.09687493227080068,9.96882599672489,0.027462522867096925,-0.006708952443778879,-0.009448812258018708,3.34
0.11239675852964517,-0.03824792907661539,9.920534649949449,0.00402335759899787,0.007660917364503864,-0.012740978539402734,3.35
0.0035110394552201013,0.17799207580900983,9.772711175039014,-0.00917029567909226,-0.015257776602287415,-5.327876523819266e-05,3.36
0.0038803684175217584,-0.014751042258347561,9.565018212375467,0.0013179907138796687,0.007565128119626965,0.01618491820740851,3.37
-0.005627964465110146,-0.05222717848181846,9.853103959275519,0.004599071162986675,0.01658457639703705,0.002384236392579168,3.38
0.12277459910027094,0.06688358218441338,9.873927051311657,-0.011168110411331039,0.00351638359200176,-0.008373002941646989,3.39
0.10239488981666259,-0.21452845992767133,9.825152527144619,0.008391415109262145,0.009634706505500343,0.004470654602365436,3.4
0.006708045925501608,0.11688984577703708,9.840253105518984,0.0023296983739871133,0.014611213840429946,-0.0018345432775475534,3.41
-0.17735292457217133,0.15302616858640156,9.953067244870233,0.0017900581331199523,-0.02149139776941354,-0.0026843647396275457,3.42
0.010677606666453225,-0.01627170797010588,9.684306528458697,-0.010422909265001553,0.006722286902724091,-0.007579872543673715,3.43
-0.15533789559650069,0.01931763121918237,9.591934348917363,0.008856889811645221,-0.0013580971512656545,0.012199728165896363,3.44
0.046255711366805174,-0.01032664063094369,9.828494640702848,-0.003022399471307759,-0.0049941731462314,-0.00048137102898324443,3.45
-0.04147923951407447,-0.005896063643238029,9.831902024578344,-0.005089652223992627,0.022661661977449434,-0.002820249547840343,3.46
-0.07541319325805323,0.17701512560192523,9.796666190083952,-0.0025623704827983,-0.0025633350820847447,-0.006417568362030839,3.47
-0.04886057547168195,-0.02130545572987438,9.783966856811512,0.0026826183042068107,-0.0030370495800993587,0.016493347738972722,3.48
0.09517785130044434,0.018944634719858786,9.853789655601396,0.012476931295314074,0.007284212416940931,-0.0040166545057023105,3.49
0.14391899368875727,-0.15734497474456757,9.694027981908485,0.015807081315160416,0.0027761253449349837,0.004089966138066495,3.5
0.12243300780885019,-0.12449047237195188,9.718168444973177,-0.004754157402432126,-0.004339645173105276,0.006055820185412678,3.5100000000000002
-0.1565781171384479,0.005801481105259398,9.827803001557594,0.002750152960131668,0.00623021275185843,0.008192054768562588,3.52
-0.02953865058067097,-0.07627913058478918,9.750978867298118,0.0075073919614859356,0.016880075798280544,0.0010289727376239194,3.5300000000000002
-0.02155032968029933,-0.08688928016594574,9.806228178908604,-0.00931337917989994,-0.000607047556161512,0.0017070108514477495,3.54
-0.02985339529334551,-0.058717335269882036,9.876789282120487,-0.009071931649519235,0.0009019263373009949,0.004843454655300702,3.5500000000000003
0.006853882131359572,-0.04940980706737189,9.973000946360056,0.010630186902719094,0.0023426560926198543,-0.01861083638981317,3.56
-0.00330107897625176,-0.016888474943311887,9.818123294111714,0.002110684051143084,-0.0013135714213717495,-0.003991065743662548,3.5700000000000003
0.07359620832225043,-0.06148401439314606,9.677925220293716,0.0023314530699385235,0.007163949436727844,-0.0012663176083120352,3.58
0.11908382345311266,-0.10378770635266775,9.717300403645066,0.011927780368754375,-0.010313684560051455,-0.005396732033738265,3.59
0.066841362896202,-0.18603630889194148,9.854263599035894,-0.004918469960370342,-0.011864708531176929,0.0008083690960382063,3.6
-0.08571577835708305,-0.0424102427252711,10.032668911040775,-0.0009541190003909245,0.016643821024354476,-0.015322753544141397,3.61
-0.035788595858696474,-0.05327630133150259,9.672362094188811,-0.002070301558246755,0.008717222326451304,-0.008523871065850737,3.62
-0.02856196397666797,-0.04545365044121903,9.884293160454572,0.0026291504542006816,0.006015379860357642,0.009833845415469595,3.63
0.11968015993072477,-0.16032146098231403,9.717041849728174,0.012514127101859021,-5.8868680430772035e-05,0.0006908635213433207,3.64
-0.04134594674341139,0.16352407585562767,9.828455561919364,0.002196809583306347,0.008093154008175769,-0.002350578342940239,3.65
0.1645759775464346,-0.1554710870627889,9.939747829392434,-0.00024143395761648114,-0.004093939945874286,-0.0038943792064043523,3.66
0.14987160448718656,0.083859297103547,9.941550781975687,-0.0032357049991506444,0.01254746305845602,-0.008313864972562278,3.67
0.019309416691984934,0.017529163121479733,9.984863535876507,-0.006137802452776745,0.0005008607528569703,0.0025525710738884696,3.68
0.14513888410523326,0.25420793210278375,9.923191435741856,-0.004196958196438122,0.021066581231811307,-0.00968161801612683,3.69
0.002316364932707584,-0.06268460419294135,9.591134775325886,-0.0037210773092807878,0.003221389254706711,-0.003699987264601876,3.7
-0.15158758581888607,-0.07414538532754014,9.921553470833988,-0.009645203291554444,-0.02915841272554116,-0.003777544269359498,3.71
-0.14446825084743536,-0.03575761368620007,9.740848724605298,-0.014338277926758122,0.00994043499922538,0.0025697310582233597,3.72
0.24688674306921468,-0.06294454437751998,9.805060309141364,-0.014938005526246753,0.007469775182782731,-0.004672976892361111,3.73
0.19097772475486638,-0.06680744453679476,9.894603847655885,-0.024385306135827824,-0.00909487853960029,-0.029957108680229275,3.74
-0.13594491783995807,-0.025132057006817726,9.729997604923518,0.0038063129858118133,0.005008898764103207,0.008722723253134468,3.75
0.007024284924394088,-0.008629650753251233,9.865607312740552,-0.013814420768336597,-0.004183481323891738,0.0023949704259155235,3.7600000000000002
0.23359440397246162,-0.12153831369234872,9.924212753796992,0.0030865303592287475,-0.0037697385305916487,0.010478241540972464,3.77
0.06633272535378953,-0.009825393732966118,9.85365427947631,-0.004486445043791433,-0.010098953905698944,-0.008451274183559513,3.7800000000000002
0.02130909537704429,-0.009898509433470143,9.636871722929117,-0.006991813752649669,-0.010403599302877748,0.010034762294705003,3.79
0.004689396058576661,-0.06659053224102573,9.617119677137227,0.02045610897448993,0.003920797230410255,-0.010796951491983788,3.8000000000000003
-0.018632022297509803,-0.05865601525260327,9.851750830500515,-0.007262019658474325,0.012998697923057306,-0.005638398526321701,3.81
-0.10401086055242499,-0.11738693366264362,9.820633324120243,0.00881169985502299,-0.004212319400836458,0.004925124019291148,3.8200000000000003
-0.06926463185873437,-0.20681342096481592,9.71139386888024,-0.01492504872948642,0.005695326840373752,0.00767008264439734,3.83
-0.027636101323960063,0.09845893592190333,9.87793645520912,-0.003320147095249458,0.0166948449463774,0.003165383746045958,3.84
0.09050978734977375,0.055779169960057697,9.881231972981864,-0.010562340263720809,-0.006770593545499382,-0.006630543035217703,3.85
0.04084472461312194,0.055060096568802445,9.79261957856873,0.001336789363183065,-0.003669273098405492,0.007406353851274888,3.86
0.0012510608148708158,0.030391825173697887,9.703388456602159,0.010443411235229412,-0.008179677510399181,0.013406596641751752,3.87
0.06834664892139057,-0.052484864998183924,9.720833875720263,0.005814464544441086,0.004705118887925246,-0.0012927027304345114,3.88
-0.04034904293698091,0.13745583753034585,9.753413827041843,-0.010892531770965582,-0.004328908173138798,-0.008825353100104958,3.89
-0.16149121118348286,-0.11862392014634203,9.916569162450983,0.002136238568514887,-0.013689686018167445,-0.005737949741603813,3.9
0.19135300208566755,0.00673323937592844,9.895540328175164,-0.011965522962567435,-0.006322086138492809,0.006250827306917403,3.91
-0.044512608410730355,0.09903858009771666,9.974435328749411,-0.006369937768487383,-0.004886422486830751,-0.016171702156797176,3.92
-0.043439647597608336,-0.06302322977900301,9.8250067789132,-0.014445618311744814,0.0023491109911494175,-0.02219958790372291,3.93
-0.023114839604014184,-0.1384095313988959,9.800477012947493,0.002586081149060115,0.005786665433236827,-0.00462152800850621,3.94
-0.09047163612638404,0.011265834395011345,9.754980712326953,0.001150209760213256,-0.0036084235037793146,-0.004053247734246559,3.95
-0.11648915428948772,-0.24176432787092958,10.095063593181376,0.007665332299052849,0.004306173804764748,-0.0007286150753701199,3.96
-0.2320494927347977,-0.05644532019733681,9.760431366847305,-0.009604175472349532,0.017108734826311214,0.01313650372361487,3.97
0.11030662941368935,-0.10150859921066178,9.878293469261425,0.0059199471431158526,-0.005131749362090015,-0.006084296430350312,3.98
0.03742050560052469,-0.0837312893140945,9.927577899369362,-0.00033150919349617006,-0.0052579335007530105,-0.007388318495503311,3.99
0.02633051071390662,-0.022936750155422972,9.94648689122494,-0.018528873919212804,-0.00937215560719595,-0.006986409689377119,4.0
0.014253793467841128,-0.1368162005566198,9.82133028558345,-0.004382926880991496,-0.007381755990247153,0.010029045979030402,4.01
-0.15202298075917225,0.04584149505086444,9.778663017437431,0.004876164922989919,-0.003005486019050605,0.013023071044153789,4.0200000000000005
-0.17077496795980746,-0.23491681068240308,9.60874514354732,-0.020837151707503537,-0.0024206308150008164,0.007263654610963186,4.03
0.2080434293924831,-0.09248258143927701,10.010543034904051,0.004225335735896298,0.011587421671706288,0.004184505003502959,4.04
-0.0007243692755105039,-0.07049929670951043,9.950507501252092,-0.0071123302318526005,-0.006406838118168118,-0.009395965456438712,4.05
0.18742156936753304,0.1526506909375106,9.888002804321935,-0.023784024834952282,0.0188022627903062,-0.008377527467965828,4.0600000000000005
0.12793248194138862,0.007314803427249917,9.80760867011551,-0.006707342071972371,0.005759470372435518,-0.01936107318104646,4.07
0.15919013192478923,-0.07248375326906104,9.729030209569828,-0.003287111228373601,-0.009008054128400134,0.019395204851715777,4.08
0.06910586266199288,0.0749872864893832,9.855946425133505,-0.011619303511727241,-0.013168215735515845,-0.02087412715141528,4.09
-0.009734731618394112,0.09531453733013041,9.97794500584964,0.0026873965686150868,-0.010848173718978114,-0.01854895137583315,4.1
0.048615003937638936,0.17006828450899983,9.7545171271135,0.021732960837510938,-0.013627012215932684,0.0010223817502069902,4.11
-0.10266798653251477,0.023269982503140982,9.888286761707487,-0.0076014007596520725,-0.0031845101397079147,-0.0034369839791258787,4.12
-0.0523543323063844,0.017684569305740416,9.916334533792583,-0.0004114880261308557,-0.00645675530022469,-0.004900017250939319,4.13
-0.14512650849457145,-0.02599632715717016,9.851773247654622,-0.005108768763628774,-0.0031865766548178623,0.009386542044571343,4.14
-0.07515140626152188,0.06674764719460884,9.797550243959074,-0.008112339930830017,0.004307643003496777,0.0024777107345857925,4.15
-0.18658419954220518,0.010108123817337252,9.564705512374088,0.011787402646441097,-0.007028165257543036,-0.011957427239302376,4.16
0.10729172167172783,0.14922570267451968,9.956516673630649,-0.0038219827335120556,0.0027659582026142745,0.0042744645761199065,4.17
-0.018965061590759273,0.05348222413430065,9.739488659841477,-0.007537789227615606,0.0020654794055717258,-0.001094818955005994,4.18
-0.1457932865234106,-0.1215411013266815,9.710999677305706,0.002824534442184288,-0.01942736366314938,-0.0014313168831198866,4.19
-0.06095610558967891,-0.20274242117754104,9.778244293026782,0.009232474793999475,0.011477626871510284,0.010122831597543777,4.2
-0.08292141516111955,-0.03570781225190401,9.733906431391098,-0.010705479965146156,-0.010012303567157434,0.0031347278076010393,4.21
0.15046381695802008,-0.006807083359093313,9.766026178831805,-0.00025550483299639017,0.010686079804317922,0.011559161269124507,4.22
0.07590617938362931,0.05217518297531553,9.898504022621728,0.00906379442883952,0.002081962000447486,-0.0025056342542346356,4.23
-0.10917733317677188,0.05077103499883511,9.841028332489751,-0.01509106334199428,0.0001775224187037228,-0.005784134448925631,4.24
-0.08905047570526829,-0.07222958231763535,9.879977383337959,0.0018011805723101221,0.008247237734656186,-0.0007442450530682267,4.25
0.05495489891316643,-0.08944222841421932,9.817451099673074,0.010341468908924184,0.009338772652724125,0.005941235024334504,4.26
-0.03045430531932801,-0.07605150122652343,9.840586739109678,0.001032743370658719,0.00702458406551049,0.0049833558736981495,4.2700000000000005
-0.05230888508467743,0.004047486523523128,9.792390288484098,0.007027674516996575,-0.004460683081835579,0.012924280765673701,4.28
0.1492070762889067,-0.12994873007693805,9.798650492030552,-0.00459465198598666,-0.016498961993641374,-0.01014482682088764,4.29
0.03483299967076084,0.23086502225518268,9.744895339558111,0.011358002827224174,-0.013400267002857725,-0.006736453114763233,4.3
-0.01979900831077781,-0.01934022525412941,9.618152765999103,-0.004401199374480971,0.009529006364599584,0.0017400254155071277,4.3100000000000005
-0.06931204851419102,0.128977192036313,9.85562500816079,0.012263882258211099,0.0190932794697844,0.0006241118000801822,4.32
-0.021770121274791485,-0.05236827533807906,9.822952888398966,0.010401638742502627,-0.005086866966779929,-9.425311580561825e-05,4.33
0.057644291753249345,-0.16273666848833435,10.075551118844288,0.013099893223435735,-0.004483030293304364,0.001500851379224165,4.34
0.04497106792651815,-0.010536248510616068,9.673786088728558,-0.002060928805973126,-0.0012721562942679663,0.006105477641838321,4.3500000000000005
-0.07085166900940157,-0.013711892872859087,9.788346736852858,-0.010687799753058367,-0.004302596307552358,0.008854151681001614,4.36
0.09679370989881442,-0.12614151716717975,9.8748288568623,-0.0015728926544374552,0.007743890925657803,0.012330257118104494,4.37
-0.04693882096924751,-0.09237455388694425,9.750577699377109,0.008782925555860957,0.004832758942904083,0.0098444925630686,4.38
0.11402197989429491,-0.017631145813790636,9.706610813120713,0.0034811405264735295,-0.00495929785620391,-0.010690036721726977,4.39
-0.07701750714759822,0.0021010512450671077,9.87365640210465,0.00635678189423029,0.008236553526683527,-0.017648522505692314,4.4
0.09364181322248707,0.056036848666774344,9.942505505820879,-0.0019340833483025676,0.01328802817201036,0.0008231706483824207,4.41
0.06009258311081325,-0.2919229017548933,9.862158431127066,0.015944942233356834,0.0029575199129676104,0.0005847034921399994,4.42
0.007762034165181385,0.07693924986959985,9.80901820690375,0.01224101687747537,-0.006429786535731812,-0.006561988928359668,4.43
-0.14945125375338683,0.06657778555427656,9.855305663069416,-0.009007832635470357,-0.003203994914123935,0.005793622869019974,4.44
0.022482481723230297,-0.004621896138695498,9.681000881424758,0.003967840912248546,-0.011307326882231912,-0.004602964972430136,4.45
0.0783290970514985,-0.0890719453700407,9.874619433917541,0.006908597815088645,-0.012992723229199967,0.0005824614414402461,4.46
0.008074210797398836,-0.04746815920848407,9.680795259704247,0.009015260005511103,0.004360806674715802,-0.011645846424858974,4.47
-0.10395000478564194,-0.06698096505116431,9.794840617523459,-0.0034635260368742087,0.00016550353386756534,0.012383244002572244,4.48
0.14649217303674586,-0.17814498170311935,9.917398005240312,-0.011354525120971884,0.01206796130127843,-0.0011198206273302382,4.49
0.15533883109189597,0.0015818673655364716,9.744357728352432,0.005664984800576112,0.007167019051215515,-0.011275549742391991,4.5
-0.04063005609072638,-0.011010294904347606,9.866422567081276,-0.011322856727663115,-0.013383718929267152,0.0021072982579189445,4.51
-0.021493686721399553,0.09885748856753984,9.70587161951649,0.013176570985895933,0.014294016947178077,-0.013008506404236094,4.5200000000000005
0.06227977071062926,0.057951236510866005,9.825634974707109,-0.006214677840791514,-0.009918126815001769,-0.01781175959150721,4.53
0.11821445828147217,-0.030804890435982765,10.02386424136186,0.0034102882777552797,-0.006464652801107254,-0.001787481616486066,4.54
-0.021869620209722315,-0.03348355737985479,9.636515897710403,0.002706138440730264,0.005128310428318249,-0.0032868974621149596,4.55
-0.06658878576375471,-0.14857095515084282,9.571492908268848,-0.012066245920918723,-0.014086858029324266,-0.014815525764367668,4.5600000000000005
-0.08017463461548759,-0.052341770656789466,9.786989472337856,0.006393460578322473,-0.001445759734416195,-0.002494670735452764,4.57
0.042542911426930494,-0.16114868739380786,9.716362582949424,0.010120857666535896,0.013679597229100905,0.00309976101955112,4.58
-0.22128752396406723,-0.10779183868520986,9.714009556456922,-0.0021550689813612436,0.004323716782199062,0.010269414550768652,4.59
-0.04928263518244267,-0.04453795596855076,9.774160352141056,0.0005411177642511533,0.00025978253774685086,-0.0017657993848603077,4.6000000000000005
-0.0069170683152058685,-0.026478638978936472,9.75446973089497,-0.0015475599992229106,-0.013797308508538761,0.0001171741841029475,4.61
0.012174195406678419,-0.08418842128820112,9.720971256991485,0.003592677641098365,0.011615228137465523,0.013663379985526304,4.62
-0.024253040276029255,0.07448390323998073,9.82125306291864,-0.00809804152576707,-0.011689705632782536,0.00015928844997486604,4.63
-0.1999441629615849,0.17889557262506298,9.744534278602499,-0.006479693600443928,-0.0044911484440474944,-0.005817480880854099,4.64
-0.014635495923171482,0.30212464703882463,9.95133784494872,0.015894161187539353,-0.015255083237815688,-0.00595715013182055,4.65
0.17996243882667917,0.0060056880096430315,9.925723907736364,0.010881983333385229,-7.631165285531714e-05,0.020388193537843796,4.66
-0.023934919395495934,0.032256285254968875,9.774505319667163,0.017089549829571886,0.016955028237735755,-0.003220779589682883,4.67
-0.14315371194862783,0.03988110603181893,9.826869421811898,-0.004844951510371028,0.016883721541081604,0.007075981577822313,4.68
0.019477779188157657,0.12884943778802865,9.865728528587953,-0.0033206130419583834,0.00976735192976819,0.011575856623728693,4.69
0.11512028014441318,-0.06676914442024755,9.847344884375982,-0.007779140319773156,-0.012527073933556527,-0.00016124494726010556,4.7
-0.061545838402547216,-0.1750732875846075,9.799236095808613,-0.00212891981309917,-0.004859184242540164,-0.019275889255730653,4.71
0.02302702459476734,0.038142408104328555,9.648498749092813,0.004651871220542355,-0.009792158079313091,0.0006311841962531488,4.72
-0.08837920586293867,-0.04177666160580207,9.958923606105191,0.002278666622650699,0.012011474829632805,-0.000757455741485037,4.73
0.13691704115346903,0.10882694502075366,9.806860421021746,-0.011492083775539896,0.0005367866313354708,0.011443489567502279,4.74
0.217336150137248,0.16154436052635873,9.817824040619241,-0.008042870446328928,-0.006098001179905268,-0.0036636043148500093,4.75
0.08432054559065986,0.0929170088806515,9.77230413175055,0.0092326661612061,0.009057322123061113,0.005344703047857522,4.76
-0.1526861302251513,0.089478902860689,9.807128571532983,0.0006138592682343773,-0.012935799452973467,0.012149484699620183,4.7700000000000005
-0.03832517114482542,-0.0632930635633657,9.95936785955724,-0.026214265230793305,-0.0036179625604323825,-0.009325563619757074,4.78
0.06302326674862628,-0.06669995479399837,9.689741862405278,0.03016325499708399,-0.007274020464537018,-0.007990010871203327,4.79
-0.1685187301690379,0.05237044618318957,9.916836089176185,-0.004842166232785013,0.009521768982869428,0.010475134451508888,4.8
-0.04196858372306716,0.06262919954888821,9.774711265275736,0.005026403267715639,0.012817787861778649,-0.005279229551069959,4.8100000000000005
-0.1265128000159483,-0.026780178514952752,9.693946885446012,-0.009040303681836325,-0.011172009837964,0.0069679753077554,4.82
-0.20954307094162072,-0.15073710482061808,9.730715430205867,0.011417522151218565,0.00902893400745314,-0.005125862672360972,4.83
0.15760205414324246,-0.18122578573433076,9.694489128381765,-0.005465277861838239,-0.006737493968469787,0.01332221024256379,4.84
0.0613281110891816,0.017460748685118942,9.844547151437386,-0.002480996525268189,-0.008010382013534849,0.0022893861797459456,4.8500000000000005
-0.18449831414956733,-0.19002388540100099,9.824059456519779,-0.0035164855857792838,-0.00018972714669354484,-0.00963791314226296,4.86
-0.07073246716393808,0.009187898599804392,9.869403875490589,-0.012365990995913033,-0.007684634425022186,-0.012176070228873244,4.87
-0.08487694870158172,-0.1609096305902343,9.856756913657128,-0.00016144346710363398,-0.004267323005917488,-0.000693230237872788,4.88
0.0997864079211237,-0.049164811879331805,9.88463196623579,0.006099115345688578,0.012332481085501251,0.008698729055059282,4.89
-0.0566675249149744,0.16072190248581542,9.904048091007228,0.0036096459287749266,-0.00211042391693015,-0.01509217543485316,4.9
-0.12792274868351625,0.08930253381084673,9.753298362910103,0.0029892706440231556,0.0010307368429209199,-0.015969447111927368,4.91
-0.007855231855971073,0.044233894256596004,9.716258276982868,0.0008682319424261856,0.026039207648266116,0.017588184513353505,4.92
-0.0686215705633411,-0.03396483187881901,9.831792310062932,0.014903759531619857,0.0013252795309392144,0.008901637455040998,4.93
-0.11546049389377769,0.0176478850494111,9.88925945175412,0.001444287058535835,-5.8807045604229575e-05,-0.007214175464529383,4.94
-0.02239124812224058,0.0656450846178091,9.828737036695738,-0.0013465101490368722,-0.012304802551709657,0.008426192784528035,4.95
0.013936381658781721,0.004393107443771308,9.721914596227359,0.004511868992446443,0.015129140437662923,-0.00205666926498112,4.96
0.02547559502742639,-0.017305617132316237,9.6358724074305,-0.011795656856515268,-0.0009868510319663982,0.014901529795326152,4.97
0.20031313380796392,0.020966462344225625,9.928559201490222,0.020825810074240735,0.003993985902321813,0.010850034226562203,4.98
-0.060841074071419914,0.1967295132763297,9.930684979232067,0.010946057197634383,-0.011505755275884462,0.005709856319066306,4.99
-0.012346091787370325,-0.0793457132378598,9.654430030919235,-0.004655168949257545,-0.00543882669930865,-0.006339700014057492,5.0
0.18478216516742396,-0.03551198849148839,9.963800149233812,0.010932047067084361,-0.007069850725674992,-0.008659045650783532,5.01
-0.16783777462892988,-0.006527890391590892,9.832374095388001,0.0011498876615034434,0.0020648777523236124,0.01403071739762586,5.0200000000000005
0.00783845564159683,0.03220215787757061,9.951831427980515,0.01016659625251242,-0.006158084467983163,-0.016686198814719416,5.03
0.08279396017099289,0.10826757350775656,9.829285724832223,-0.010876750172638885,-0.0011096603985389821,0.0013464788598561762,5.04
0.08175651175253063,-0.029762611010930674,9.707085810038922,0.009385309458928563,0.011102961861324796,0.006714903467349001,5.05
0.006874389868983713,0.08896379403614087,9.726243177398162,0.0029252959516785767,-0.015368124472071044,-0.005525510923476207,5.0600000000000005
-0.15553174445066728,0.10853221062305328,9.767703734513816,0.002359278736172771,-0.004659097665270816,-0.012816718750164062,5.07
-0.07982035827867281,-0.1386175735019953,9.865967035281624,-0.00886642163914737,-0.002927451275427987,-0.0013157560795693368,5.08
-0.09067277108335732,0.11784323743933059,9.765885473298043,-0.013972901179078775,-0.010123017746374646,0.00732176685148864,5.09
0.12086797549533153,0.0699088403962979,9.901824087129954,-0.028322153340702042,0.009687899831556967,-0.00754304520418963,5.1000000000000005
0.062399837036287265,0.0723905966983596,9.69358353925194,-0.00655125700434891,0.015060441715893916,-0.011257782056828725,5.11
-0.05836577937660752,0.12082102494694982,9.765156415383446,-0.0018349628098244869,0.0015445195229965884,-0.01621245214609794,5.12
0.024083094474230984,0.022404518324847272,9.837502365665312,-0.014211492464444551,-0.0028613416148082107,0.006487165268259282,5.13
0.07925361162894713,-0.07500515133527852,9.831254230553224,0.009905158676941403,0.01663013758657301,0.008478906998349108,5.14
-0.03422189095286681,-0.10450254328816876,9.84083536541615,0.0059915210886630635,-0.017006883907560756,-0.01189737559428665,5.15
0.03609487272308667,-0.01866823961349341,9.7832569772654,0.0008250608289308802,0.004351488654916407,-0.0004174000315379583,5.16
-0.00029915086211699247,-0.042663061251724456,9.662325361826879,-0.004407966830454451,-0.004747247048959189,-0.004118523898503064,5.17
-0.17531477307857268,0.07081544535096422,9.874157297901277,-0.006457563587385681,0.013121829766878274,0.013383699862296863,5.18
0.07759148117694575,-0.04222290999991987,9.712159806140072,0.015802840533656673,-0.0010352881389817073,-0.0030483687838160885,5.19
0.03820443458344019,-0.025919339880380966,9.849298116086576,-0.0008352959836434938,-0.007975754111143443,0.0005901970878094424,5.2
0.056873244094503284,0.09550481586615667,9.897138689265773,-0.005289113697387799,-0.008482111826768439,-0.0014157456041339284,5.21
0.0541139123720448,-0.020268001860438985,9.63522139652264,0.018045086923457656,-0.007547499994229021,-0.0113433201871301,5.22
-0.05964712199005249,0.10608957323753863,9.906658666960709,-0.005281202816394243,0.007381995140224901,-0.01044804987252908,5.23
-0.04450511535287488,-0.06956978395921605,9.653567146866976,0.005756322899594312,-0.006975473475515401,0.0046738462829347925,5.24
0.14640471352830134,-0.17394126052741576,9.67529968627903,-0.003199881963570957,-0.0019308625919698828,-0.004473174784797982,5.25
-0.024116902476888233,-0.009041137284595945,9.659005606323655,0.006821044018621066,0.0005697010600523237,-0.0026525347626167517,5.26
0.009109273281513905,0.057216082764384,9.714372964091824,0.007887127811479573,-0.015585208229555739,-0.013628620149831292,5.2700000000000005
0.19277079605632705,-0.07087162680541502,9.776148350771521,0.004519720839974445,0.006747693902877903,0.006956195771625737,5.28
-0.055015847096302944,-0.07799428758524123,9.821077902478624,0.016211885356237764,-0.018935529667560135,-0.0045446972875836655,5.29
-0.20475942233930589,0.023316160857046977,9.75206669138979,0.012848277702379682,0.004345029282318351,-0.007668754624881322,5.3
0.0008310477317034249,-0.10159727040744854,9.965065115320558,-0.009782838988687011,0.0045937246088188265,-0.005033583737480941,5.3100000000000005
0.010589762469431274,0.02982001576585539,9.750290160975137,0.008903682076882564,0.009489702145880144,0.008867603109897036,5.32
0.15650142962708216,-0.07296610970523962,9.66747062094487,0.013279726382772385,-0.014729529242993844,-0.00132369819027677,5.33
0.0746944928926155,0.029590178084911614,9.887325614768166,-0.008921481226401927,0.00016419773750457457,0.004050152576266786,5.34
0.00427372113951043,-0.08729124027381921,10.010365100779493,-0.00961283476976931,-0.00812145284440014,0.0024569542544367056,5.3500000000000005
-0.14452006226660621,0.1934813380399265,9.940189952267543,-0.001257935371168678,0.005015758943322688,-0.01800630766094046,5.36
-0.031293735395935884,-0.09083078650930887,9.770850127709444,0.0025490318902849983,0.011586607096829212,-0.002560960112495827,5.37
-0.01970455646439577,0.005429049209455786,9.900124702718529,-0.004587327232815254,-0.0012664222224633892,0.0007603991443667104,5.38
0.08406162559128968,-0.024047779520008482,9.821260859975649,0.015816612633728556,-0.007169593226495249,-0.001374774294922996,5.39
-0.061698095852141546,-0.04035894600398577,9.786328127179896,-0.014029673072756613,-0.009740282146121102,0.010453404461118521,5.4
0.025050375969200886,-0.011378306229883162,9.696494028791701,-0.00015373998533110616,-0.026928774364240193,0.0047069863914821295,5.41
-0.08721604145991169,0.06958221523041276,9.811577206826435,-0.0009203538417382052,-0.0004567889539105689,-0.007191588200393035,5.42
-0.021774184910414104,0.16787944545586514,9.7747455191788,0.006176792794436168,-0.00026749497903042575,-0.013445286593441184,5.43
0.008567849964750088,0.05890641937943587,9.718487994897835,0.011850273368930827,0.009470119682120862,-0.00136415109942444,5.44
-0.014590375522455547,0.054561345833066925,9.809484907660389,-0.007662608388308705,-0.005600246660205707,-0.021412553384214012,5.45
-0.043491584950447734,-0.036554162550154215,9.631470573283552,-0.012405344136235686,0.014542131853891766,0.010846509117502312,5.46
0.22318223332795226,0.023572388615256512,9.76921472535501,-0.0010795150867800908,-0.02001485346500143,-0.011337718857042645,5.47
0.10740415358396925,0.025720151257118292,9.769607167924175,-0.0005051149448289103,0.0025724571703196956,0.007360130758125134,5.48
-0.10290573860168271,-0.011075099081890086,9.821544898866614,0.007774186057554307,-0.010337373005273699,0.01738772447800706,5.49
0.10743954796597295,0.11926685478864417,9.815592328710435,-0.021177168367799037,0.017652976046122624,-0.0038323662828086405,5.5
-0.07377568467148374,-0.06652603126862691,9.729948215110992,-0.01563981141473656,-0.005261319852681162,0.0014966244227099326,5.51
0.14701862622300294,0.14852497723911212,9.713250323810257,-0.0048192001763010155,0.0026467748543281683,-0.0007468682956914208,5.5200000000000005
-0.07510539101537739,-0.0952358191389912,9.78592830567061,-0.01152200553362306,0.0068853206943911525,0.015136427014319182,5.53
-0.006954975919578265,-0.0321596523364092,9.561359367321758,0.003924041193369647,-0.0021859504517708866,0.002149681590639782,5.54
0.05640271838159299,-0.004046215015270547,9.707441943484415,0.0048905831411943995,0.004646199435565023,0.008943570828498237,5.55
-0.150279887485824,-0.023216952650397627,9.691245893374616,0.0038020827427682094,0.0017305733768130764,0.003781680092301103,5.5600000000000005
-0.04079035817195536,-0.26660244629999647,9.928988782614086,-0.017690474372841047,0.012448164215822526,0.0004851825313435191,5.57
0.05018048349858391,-0.08054862585274597,9.84357574377547,0.003492830569886275,0.0027908925491180302,-0.029551004106465398,5.58
0.06094216067561621,0.029834640703909912,9.763396445074706,0.0015352014212624912,0.012526276717483797,0.009004790712130548,5.59
-0.028771082858029474,0.0725653374356252,9.5989391574897,0.004564814427666619,0.0011091585985598868,0.017857874673165765,5.6000000000000005
0.007690860884345022,-0.14846009178620787,9.820332903611542,0.020958178886484245,0.012746194221254106,0.002952547868462189,5.61
0.19124282401540163,-0.24014666880669067,9.862495730071192,0.005611434135029481,-0.016637979527541584,0.007156507743997629,5.62
0.14523714997725934,0.0020948119718862735,9.590808037840912,0.006046127025726765,0.016842818530199515,0.002927567281400943,5.63
0.05778303144323907,-0.17527747782552985,9.813312495309056,0.006588975721751493,-0.003102161652413171,0.015658174953903002,5.64
-0.03177381488012701,0.00010546442971130493,9.900956383619713,0.008007531342567388,-0.014107195834710103,0.007518770914324203,5.65
-0.003745531976626349,0.13380916948214083,9.72647989002443,0.012885257122580849,0.009227228626789685,0.0074556416811309935,5.66
0.0208113246838149,0.04092800489628093,9.721453624049687,-0.0008212883705239327,0.0015327404995110817,-0.009463633725061687,5.67
-0.0775038757772404,-0.05838404775499351,9.766756886927858,-0.011147997268810066,0.009130034704941838,-0.003414073638098491,5.68
0.021123560308355632,-0.10797788107617196,9.849306813588356,-0.016227885055616037,0.0010689863783562516,-0.011305928803946694,5.69
0.1856998510435233,-0.01351317632400321,9.903936251799275,0.0036029198535105817,0.00026193435612048517,-0.005755400429029879,5.7
-0.04886447965090337,0.13307492383736047,9.835281552019387,7.204881632840834e-05,-0.0022635519042728206,-0.015366347205456904,5.71
-0.07154747447344484,0.006556682868336068,9.669697076583727,0.0007904845613182786,0.0064850297114574,0.0005629492948097197,5.72
0.12893033806439436,0.11491156638942257,9.98168266766069,-0.008540821571219269,-0.012701810066313282,0.021665320422503655,5.73
0.04889039914312387,-0.15686920751806804,9.935568221646717,-0.00520601604010854,0.006811840685703791,-0.002663951683198796,5.74
-0.1424420289907665,0.001797466921687081,9.8715581890125,-0.004603155839410787,-0.0007576774640925785,0.005395422386783343,5.75
-0.058925082960469936,-0.06693111573492613,9.940286451993597,0.00581028644191354,0.0022177457984811394,0.01148951302105767,5.76
0.16638156116474265,0.12083958542825415,9.888895935467682,0.004716361837043503,0.011376491446231755,0.01468755972774016,5.7700000000000005
-0.003125598994167194,0.051747039226761875,9.664835966199663,-0.010909395822604395,-6.797274308933482e-05,0.0033535905183591287,5.78
0.12582422098431387,-0.13050202175188233,9.76640013039676,-0.003830352474283757,-0.007323535614205748,-0.009636860508280111,5.79
0.017337879870076595,-0.06800774849003015,9.918945449351584,0.0056379514257607274,-0.0016451952710748543,0.0007782550398046212,5.8
-0.1592949624251806,0.09908502443747115,9.765948415906793,0.013517605288252443,0.010500447427985818,0.0017771742540833874,5.8100000000000005
-0.1819168972260377,0.0071695865089491774,9.97027715571487,-0.007000924682074998,0.00264954790313233,-0.006462018356037126,5.82
-0.011747942888864982,-0.04271994552933493,9.848504435148923,0.004261702928406836,-0.007851613448282575,-0.008951305063952737,5.83
0.041503940754287934,0.1010448236646792,9.868529095434472,-0.006225012254736252,-0.015014739685891676,-0.0051713643971149645,5.84
0.027127559290421682,0.11979041218106533,9.890993937001934,-0.0027058804136255573,-0.007011646038402128,0.0015486038044752288,5.8500000000000005
0.04760078776317975,-0.001355433190182578,9.988175758804715,-0.006917439713797138,-0.001747098279321951,-0.00935363785142305,5.86
0.013571807496563693,0.1463712288058928,9.722858563594588,0.0069385990648015506,-0.01875923134442352,-0.01309957120000107,5.87
-0.03960973553535685,0.1634648416136919,9.913954857491884,-0.013303165367312556,0.01275739014523262,0.015783544843402934,5.88
-0.018086395947734486,-0.0125134885068941,9.768740288103285,0.005073276112753587,0.005522084989032605,0.01121913970388286,5.89
0.205948308794464,-0.04906436899245916,9.878761657844866,-0.020316944531147314,0.015030845093939243,0.004788080377758471,5.9
-0.04001017959937525,0.15642581156511476,9.7001920835061,-0.003808844759337008,-0.009403609198426073,0.009355280046809756,5.91
0.0374991196023765,-0.0892917228488099,9.730138708262665,-0.00010139296259336315,-0.015157447361406761,-0.001586025431742297,5.92
-0.04233006358334475,0.0013542658255890174,9.953274698272114,-0.0007328311557528162,0.024846653201622573,-0.0031924483348101836,5.93
0.007648232775395042,0.02179994529680565,9.95521541973064,0.009445050089987373,0.005206692282048404,-0.004754973204052123,5.94
-0.04429507300246025,0.06797137555336867,9.886339790570105,-0.015242012134705314,0.0011102994589990318,0.002478851298512961,5.95
-0.11034349204864646,0.05363309346123349,9.727989977079403,-0.004876322070429522,-0.014872039871399758,0.005693346926269086,5.96
-0.06876573183949124,0.03508850876223509,9.802835747226794,0.013669045933662567,0.01603682963385614,-0.0028409866124864793,5.97
0.11265314660872623,0.17525225018558377,9.742421841967737,0.004842183137253516,0.008338742243928795,-0.005756363866738565,5.98
0.03670327875429268,0.21972291874361957,9.85896530380017,-0.001218831092849057,0.00020974881970486838,-0.012967428782694992,5.99
-0.08064642001670115,-0.015410969383195361,9.851896142965897,-0.013693933726813863,0.01508929809185993,-0.0067181771343060425,6.0
0.06459314618584756,-0.04510795741721463,9.666689517002887,0.0035459987726764457,-0.014850412116271706,-0.006786641775457322,6.01
-0.10256694443410236,0.030832472703066507,9.536781748444378,0.007794956993110806,-0.0062614368402885735,-0.00303604181286806,6.0200000000000005
-0.05468438941333036,0.023016821674450315,9.97470983790465,-0.005199113062309491,-0.003931481746878791,-0.01335303304545827,6.03
0.09427576903501236,0.09478800697225831,9.827851600513581,0.006429573390595102,0.0013015852272731726,-0.0036983532635153694,6.04
0.026411397187159097,-0.16138405994509814,9.952380699086982,0.009024643983132406,-0.007033201948780963,-0.01950582822146984,6.05
-0.10681082709824892,0.04213026460149149,9.997589578256388,-0.01425324018936113,-0.0005280819568033578,-0.002511112373507865,6.0600000000000005
-0.017629481014122806,0.0458164093214023,9.802791607576625,0.004836523579237874,0.015553617380285115,0.008254639261263757,6.07
-0.0008844379391654233,0.08914105253716413,10.143454211872767,0.0008768729483922621,0.00594860412982257,-0.011730846002468175,6.08
0.23062667549111168,-0.1204904506065421,9.70880991144733,-0.0036319428056194166,0.014346688928676606,-0.014751552855969558,6.09
-0.091114921621328,0.1950712547742177,9.79290003699736,-0.003094745367513086,-0.010455362231689452,-0.006155465122303376,6.1000000000000005
0.065500774796072,-0.17136507139987567,9.918454376309311,-0.0006223348876209546,0.000776335867101496,0.008999135020609852,6.11
-0.04371932108453226,0.04123148952857753,9.892768294451084,0.012066976107127422,0.003333378543020781,-0.01264375597950631,6.12
0.028598286412332426,-0.012567113378869328,9.87553398793059,-0.010292243300411072,0.0028010074155886923,-0.009059430475886655,6.13
-0.04886677761721463,-0.07751434720277564,9.837670336366743,-0.018292436488992498,0.022460186910291727,0.004841641902230817,6.140000000000001
0.020227717794984612,-0.16683017322082908,10.017649167773678,0.012919321550112644,-0.004502529112346806,-0.012828881922049172,6.15
0.161298825145608,0.013830570282362974,9.805485055469042,-0.017865424767501532,0.006972839025985893,0.000904105015627881,6.16
-0.07339891370317592,-0.044205871161233395,9.907329196631439,-0.02649928211503144,-0.00986470842188395,-0.005901829893927501,6.17
-0.09049910267528258,0.11544460144375308,9.898666600002796,-0.02792994074690761,0.004640857616925321,-0.005330906160660918,6.18
0.11477406067516527,0.15195804075459032,9.701465159945455,0.022762841035057692,2.550314381136469e-05,-0.0032749791313726995,6.19
0.15459601334575312,-0.08203252099722134,9.787933139609025,-0.008817524804798716,0.003343127711924867,-0.013487667915917063,6.2
-0.13008808520900253,-0.07582101628210787,9.749295338275108,-0.012116275312256791,-0.023731507652721372,0.0016454670844450732,6.21
-0.06751045569412331,0.055520535974119795,9.747641434006187,0.00047728718608445444,-0.012992267902462941,-0.004684848653299297,6.22
-0.12042735939675331,-0.06707126467124062,9.867654151554945,-0.016400998508093092,-0.0010252155693157696,-0.002484116747490917,6.23
-0.06829692737706348,0.01740218822892145,9.877525607641038,-0.007361064419701679,-0.0005517949937790151,0.015330386632884233,6.24
0.15994110268656372,0.09488843419946787,9.915969858499627,-0.0025608211593474857,0.014767147332053985,-0.006596782372599358,6.25
0.045409125626320636,0.0995522343691978,9.853044298414154,0.0022558135914267333,-0.015661870658014252,0.001266469101503292,6.26
0.04488555287145353,-0.06079837933790808,9.720257927851424,-0.0018750298279758446,-0.0133511013569251,-0.0029754947594096003,6.2700000000000005
0.06964367716848954,-0.030213376403345444,9.672946047868125,0.0067079275820846294,-0.013527790178038004,0.007689711211102546,6.28
-0.0023577946496157864,0.00026445042551476264,9.940031948363728,-0.007494758851766872,0.01155217148839657,0.010875017512643931,6.29
0.008157905697612364,-0.026129447930439354,9.867307798660365,-0.006754580252522105,0.012888979807055976,0.011174325072133165,6.3
0.021711171941150468,-0.02825683202523607,9.716611898421297,0.005962624849997955,0.008925431742621236,-0.016664446189855076,6.3100000000000005
-0.05216647203241625,0.08665889810237888,9.680838253788288,-0.005234435751942208,-0.014595693001693793,-0.009683409304359002,6.32
-0.02470548334665934,0.11117398036944043,9.783195803501856,0.017978835843851525,0.0032745683787506643,0.0014338456329085528,6.33
0.020492760084201922,0.06749663384213013,9.943535345540486,0.008972347290230182,-0.015106957915126496,-0.001961536204369107,6.34
0.029224877609123137,-0.03887699025762207,9.724670655753055,0.015695094131798867,0.0012823377776669132,0.010138936515660025,6.3500000000000005
-0.08232874626078074,-0.03910661248941895,10.007244157656881,-0.004176421255903442,-0.004130629187067793,-0.0020017401277185464,6.36
-0.013124867783456158,0.011970889911499713,9.696133207739072,-0.001694807062239137,0.01275317591303107,-0.010333455747507195,6.37
-0.015732545999207797,-0.14990600711509172,9.73592218070899,0.013195925442856155,0.010663369188504065,-0.006219566591031837,6.38
-0.037727096349251504,0.011656133681829417,9.760688213322645,-0.007809474132938086,-0.0023551720939735,-0.0030957185585086928,6.390000000000001
-0.13187248851040817,0.04304165593141129,9.747481842778335,0.002352606379067971,0.006440893542199137,-0.0022041842998037037,6.4
-0.21925595328468528,0.05280239208519556,9.909293179418116,-0.000912687167373875,0.0069326254214674985,-0.013660338162013588,6.41
0.18366838246245848,-0.2087109094756127,9.917265189665423,0.013543828827692513,-0.010914478389390874,-0.007713352266319341,6.42
-0.04229595856659171,0.11232262345711974,9.834110414643513,-0.0005435495895653831,0.005227702911735228,0.0039227380777292755,6.43
0.13660755229858612,0.22103708419430063,9.657395777817648,-0.0034909299312031565,0.008177729710163882,-0.011364614816010896,6.44
-0.18365302309315415,0.060549147112189186,9.907992106673566,-0.011187907311042978,-0.004160608104242498,-0.0007504343672464517,6.45
0.1746916531202055,0.028412387718336332,9.701186060145888,0.02160013986309487,-0.011734724973370842,-0.018703783154529415,6.46
0.1057466159078663,-0.026932363475542773,9.776117868974195,-0.004998551306089282,0.0015491770963826784,-0.011242246488492013,6.47
0.01058267361950882,0.016780377481223598,9.859187103134165,-0.005691216313268416,-0.0023812816163632,0.01549492359873424,6.48
-0.0024295059800821446,-0.04903993245499761,9.837058360075511,0.010165969511556922,0.018332912159530947,0.008750261049501462,6.49
0.08065550398809301,0.08639539626419167,9.933129800383867,-0.01989429084837231,-0.008675916351780373,0.01017509251328412,6.5
-0.01413547754704321,0.03888761192772544,9.81225990686182,0.014642751509440655,-0.007002657937089604,0.009811789666495763,6.51
0.2692854501232101,-0.13589214005667588,9.602506219514934,0.028910321901686825,0.013267880949494866,0.021579576116604656,6.5200000000000005
0.02048145021669867,-0.09514193292769574,9.794083088212638,0.014321602266402165,-0.01722200463937882,0.019722816168474794,6.53
0.006721102314056826,0.040476717364917675,9.894451885995178,0.008851077604729817,0.005633224464300749,0.001361529081950221,6.54
-0.032961826335182284,0.07018736577062433,9.573096234031281,-0.005329104050271009,0.006687225081581494,-0.003760487981002286,6.55
-0.2506092980746077,-0.0025180070832638325,9.613028108380584,-0.015042119043475584,0.009656491787683463,-0.00784481597677884,6.5600000000000005
0.04607333081467601,-0.12883377223685796,9.723006409650553,-0.0019636965511753055,0.00347878892703003,0.006316644661380645,6.57
-0.060000167687413244,-0.09395015742417231,9.856927877606507,0.014377071962860201,-0.007642775502812507,0.006445230703640316,6.58
-0.05426138223080384,-0.021384853240384333,9.825092801527967,0.005542107923857069,-0.004262657293236284,-0.007199242171366389,6.59
-0.06253588441280976,-0.08920388608389143,9.874372961431222,0.00809244012123867,0.006369938412133235,-0.001356025329927905,6.6000000000000005
-0.006693083220264429,-0.059676004845335154,9.804864648867756,-0.005558834656552107,3.0344587446524194e-05,0.002903590982919472,6.61
0.05943809897369487,0.14917904028476944,9.802288187656778,-0.008837992164153959,0.005441030408150113,-0.014440902524891998,6.62
0.21512625561141965,-0.011312428774420414,9.743783067798383,0.012727129205240627,0.013266054640456994,-0.015092884843248028,6.63
0.041445230849851786,-0.15963205158904867,9.810775922065867,-0.008425978596107336,0.01981859557032458,-0.011512683962549843,6.640000000000001
-0.12217657341117256,0.0009619506671429967,9.768551199146575,0.001416909405568438,-0.013856650401821706,0.022465107494802978,6.65
-0.18335080774525084,-0.11131437681237151,9.989243312693679,0.00047778206381588666,0.007677264977902961,-0.010129329121103927,6.66
0.05202963635265359,-0.035966533670539515,9.777841960376577,0.009554011964964837,-0.002608419793834116,0.004259361846325916,6.67
-0.0500346903121351,-0.03168271894321908,9.78625593296152,0.004344901609469861,-0.0018675752841097635,0.004339486684852028,6.68
-0.20519008183253848,0.09691356555496822,9.951855070204237,0.0007595439522709227,-0.006189126213059129,-0.004841965724336996,6.69
-0.14775598955873256,0.03486430158495895,9.75066669558258,0.003354811707256291,0.02910239070087736,-0.01269058862910773,6.7
0.07589899886358964,-0.009935727693491556,9.892126294713348,-0.004853323652236143,-0.0016912647148597023,0.018815951805594013,6.71
-0.007567988950413722,-0.023256374920770685,9.805059041384217,-0.006526084962253272,0.004408537458690337,0.01080638558520075,6.72
0.14339883812603127,-0.034044037879035066,9.748586268116748,0.01275831129364155,-0.015631042845545805,0.008393883263159695,6.73
-0.09441089639858402,0.027168803665218667,9.799510878873487,-0.014835495724476611,0.01091643479896858,-0.025659654552401698,6.74
0.004867865977442531,-0.024458756691309574,9.927933978152916,0.006346799107100077,0.004619012986644645,-0.014939404500233226,6.75
-0.064606717728509,0.025118702348076172,9.701389637136868,-0.014561152382335477,-0.0015407844554758113,-0.006289989494321261,6.76
0.0512241914074304,0.20120996520783907,9.812281565166153,-0.005646403506965201,0.011909842261396741,0.0029045904506845217,6.7700000000000005
0.06251761676943411,0.06966494920631769,9.877450150908006,-0.004119541561453382,0.019617485088080644,-0.0015541769318155449,6.78
-0.07701716317310409,0.012275230017850731,9.822896965034865,0.004616216510088603,-0.0052147238959579555,0.006767875500846981,6.79
0.03881152483871836,-0.008102821246047769,9.608419375880459,-0.008637700959918844,-0.0038525836007206626,-0.0020663091451342606,6.8
-0.13792389005800001,-0.12100897103765954,9.965350935372014,-0.0005518240627583418,-0.002127459387713793,-0.023055520873509396,6.8100000000000005
0.04742320136784044,0.07256537362202907,9.894249016739426,0.009100896644843965,0.003214209852073388,-0.007012308987806545,6.82
-0.058762811230322676,-0.053380907282755345,9.724647196704913,-0.013619921421354328,0.002338557203952101,-0.004469446398518251,6.83
0.025786537131572786,0.08994912671617748,9.874123879214979,0.02467242521132739,0.009696927888469174,0.018111654241820565,6.84
-0.05239511962812075,-0.13446612627269683,9.833519225617689,0.018610043268693307,0.015549238746926469,0.002770488778199339,6.8500000000000005
0.054234724753488686,-0.02369506874762948,9.864816973645105,0.006981970473334327,0.011198249543939083,0.002585858000884796,6.86
-0.03179167983688618,0.001340945129277794,9.734379943646308,0.013280218092942853,-0.0029106680050294278,-0.002912746532430914,6.87
-0.11161853318273096,0.05393686659946361,9.743372303561728,0.0030981191875785086,-0.014224535195096519,-0.017754222836958766,6.88
0.06075513490545708,-0.06077496322603693,9.788218995015294,0.012308201833979017,-0.0008633257695520143,-0.018360362527596562,6.890000000000001
-0.031421349198692876,0.16514791068585052,9.945489753916256,-0.0016568093829574687,0.00205821313176129,-0.005844010299302357,6.9
-0.029579274803254264,-0.20669685323688924,9.671826139875359,0.00031264139417323637,0.004838432789171619,-0.0018966172545197416,6.91
-0.15903168360961853,-0.022938798124154943,9.899105020714648,0.003045347218944499,-0.005462286997345463,-0.00039889376012143904,6.92
-0.07377355451007993,0.12318244386032198,9.797882277377052,-0.004222679083056438,-0.011668548576642481,0.016646955593765653,6.93
0.04996805840153262,0.05742011321279172,9.766380677955128,0.01631355374805422,0.005054241008448709,-0.015132520953462208,6.94
0.07231548890569241,-0.1283124330920414,9.81561780468623,0.006074909316511683,-0.004425272431017539,0.0273630771113262,6.95
0.14138564379598909,0.09419200732866234,9.956913851107114,0.004781782973721265,-0.010451327534075603,0.004031664804098333,6.96
0.04929679162256003,0.1559719506099962,9.736005450329042,-0.002573648213598631,-0.0059607096676439495,0.027298700323464327,6.97
0.19523072663086036,-0.1420339118965037,9.977888432453074,0.011732006981666961,-0.01626298349736765,0.001255058150557612,6.98
-0.031070682866950628,-0.06576166543296717,9.851804972249809,0.002661621581935712,-0.0015524800308993683,0.006651272296580903,6.99
-0.03619376753566347,-0.03762675391730246,9.930563645425051,0.00260528811761545,0.01419472554174707,-0.004903169347815707,7.0
-0.00919561959333036,0.02070696552133962,10.05231070037082,0.010652347947855356,-0.003322256985457525,0.013548408877202418,7.01
0.07179696028320519,0.07568822718488957,9.709902057814382,-0.002880698188325327,0.002602902480506291,0.020078533339369705,7.0200000000000005
0.10614150088972048,-0.03415410706651018,9.717519958585862,0.01423238722080885,0.002633338453789885,0.0013205315285273601,7.03
0.07817887334060276,-0.10899843589389198,9.865034429373056,0.016710722216062505,0.012499032758654587,0.0012570798122629682,7.04
-0.030411475136478395,-0.10541794088138637,9.874693076447484,0.0020888644800517945,-0.006594621330593881,0.005291575193242013,7.05
0.00897891514164816,-0.07306518413066747,9.93640490512711,0.003019363134363121,-0.010238004677627071,0.00415670975574459,7.0600000000000005
-0.004069163468293751,0.015088431457409174,9.742439100062379,0.004286996093608101,-0.026971429959053647,-0.009406649603760227,7.07
-0.06430535777085047,0.0032397984724237684,9.749852992559312,0.0049164018686585435,-0.0034669987932701074,0.0011234587176932084,7.08
0.02463470320267272,-0.09859135377346992,9.822869560654931,0.00028234996953641983,-0.001072262578178715,-0.0014437828447699537,7.09
-0.2352167669128481,0.15296094742073796,10.08009584356659,0.00034564887333107813,-0.007668456764120027,0.006500615546535705,7.1000000000000005
0.021533112741720577,0.2682049233066054,9.766400180465636,-0.017626486077386292,-0.009629334922137267,0.0009780438904074629,7.11
0.0886989152493887,0.030970951760353967,9.82653057805395,-0.011791514898229657,-0.015506457961494132,-0.01901921729798299,7.12
-0.09191106635959512,0.17326734655582612,9.973451637488902,-0.003486570452291944,-0.01592649103001134,-0.002774731393148346,7.13
0.07365380974059885,0.0435261125469502,9.835176539788995,-0.008377208739944152,0.013175446061400864,0.015349056770034885,7.140000000000001
0.1711051330222279,0.12282334918239268,10.00260031184494,-0.013166698255451966,-0.0025586515997654334,-0.026235693708255906,7.15
-0.1123749111082145,-0.1449706425264392,9.827377661297099,-0.0019362416125983553,0.00012232866610153965,0.004324487636286533,7.16
0.11346216560917,-0.11810831922732799,9.739833339606637,0.0010859919385996168,0.017284789654805094,0.006395754182364804,7.17
0.030556930412029188,0.04095312126549436,9.887337778414416,0.0026047127704084795,-0.008686243792495213,0.0033441984336000626,7.18
-0.07685676527649564,0.17691938478601782,9.71474921936512,-0.007040088999794666,0.004819126436133813,0.0040610139656003155,7.19
-0.016632183386772453,0.028931917785039243,9.79869305709505,0.0016365805444562853,0.0008957094189885814,0.0016513479571381281,7.2
0.0016637549894673977,0.04579834439418535,9.842469903955344,-0.015790366220755577,-0.012571559352573645,-0.004565840463523204,7.21
-0.12547608882450087,-0.0369552996177596,9.836822924193562,0.015398712212551102,0.010106687090309164,-0.014655046310910629,7.22
-0.11390569304390137,-0.07551370935891533,9.836674627886824,0.0013875008600842276,-0.0019848245914142115,-0.007397605745311207,7.23
-0.2415497045390494,-0.08050779143713402,9.721107114817011,-0.007215115653872742,-0.017475715559619454,-0.012111030448681394,7.24
0.08174396733587452,-0.08085582114285106,9.858783814988467,0.007325355448821209,-0.0049721773616624235,-0.007367113946290127,7.25
-0.11968071356180204,-0.021669677999372305,9.736216201606458,-0.0021208913884155707,-0.002681930598849025,0.002523246495540819,7.26
-0.06168768662371678,0.1849530075602883,9.899001020325787,0.0024937629779277584,0.004563139896991857,0.013721182415760319,7.2700000000000005
-0.13773281429120957,0.14543830787463827,9.738943603270812,-0.0010019114557986875,-0.022679014849229184,-0.0009997496235956244,7.28
-0.035764623835582696,0.10276082328683733,9.769866314100305,-0.010906056086548625,-0.0003595855354814432,0.0005971964780656121,7.29
0.0773275549567824,0.02726215165795868,9.57729537166611,0.0022393684087598097,-0.002679550271897124,0.005112493617992866,7.3
-0.016789290540456605,-0.1396106639931138,9.83867848339506,-0.002562420338914907,-0.003684893316685723,-0.0009502377018132543,7.3100000000000005
0.03654750485511636,0.038738467870737835,9.852482749162299,-0.012243552976995727,-0.0045630535763906376,-0.002674948449081414,7.32
0.023401196114657158,-0.26590351157931397,9.840275905420611,0.006783121651407087,0.014795637725415952,-0.0032426467668538704,7.33
0.06823184471231442,-0.08499897967506753,9.855389666315002,-0.012719121625947873,0.009094281915698168,0.006485447427587533,7.34
0.11304050254547282,-0.02487586279248269,9.925278170480725,-0.008715411485336118,0.020141342818561555,0.002881795804732983,7.3500000000000005
-0.040364726469238305,-0.03493724463777701,9.865165581677132,-0.002021551326156974,-0.007121724148576012,0.008211433442399767,7.36
0.05299670538419035,-0.08225501512761985,10.058325054519143,-0.005819258783905499,-0.0005500109241782349,-0.01735039489711669,7.37
0.025977915365667438,-0.09457756037868927,9.717564336695366,-0.0030050393845538043,0.018940730917481555,0.01945367774764523,7.38
-0.3557798882384344,0.07564795295345172,9.683966123391663,-0.010846718595293497,0.0046175728753079966,0.012584128780640663,7.390000000000001
0.13675561852957827,-0.05676939450959391,9.732996727507043,0.014810697514141744,-0.005571589269534926,0.0006400907972741086,7.4
0.08291949749421401,-0.03207382540547919,9.830042636366352,0.021582083074826425,0.0032610519983195846,-0.0017993967201794673,7.41
-0.042815191809281304,-0.08215018717463853,9.72810271423095,-0.0018655172859900304,0.0026008862273803565,-0.006919946968388245,7.42
-0.042858504731770365,0.11506054402744743,9.738922097017161,0.009953844984808564,-0.009620920105156031,-0.0023271338123618053,7.43
0.06583058883501165,-0.0662099436696809,9.780013847359479,0.012828178422554449,-0.008025835595701617,-0.015826588052376675,7.44
-0.0583531096006909,0.1747644977533849,9.81626265987192,0.006927438439326014,0.0013220709206850894,0.0028107484525960185,7.45
0.07350160950326164,0.012518836510763852,9.996759297314377,0.0027493978902579366,-0.0011003391056984384,-0.00601873349907208,7.46
0.04695873101342464,-0.07508033184369216,9.782760042336594,0.0012349495286412234,0.009892664825319789,0.013126964151289973,7.47
0.1330741713449352,-0.15498766438816214,10.040829357461664,0.005278814540157649,0.014061697131094666,-0.006096055768422424,7.48
0.050049191527262005,-0.1459337525529666,9.77806640303672,-0.004860016703859373,0.011053611662751445,0.0069231710867871665,7.49
0.04931401318607409,-0.02681226288451607,9.70058470523641,0.006736981723339641,0.009569156495367883,-0.014742883363925471,7.5
-0.0793452756728647,0.016544452853726806,9.890588172834883,-0.0023758863580325288,0.010349764761574055,-0.00296628304603151,7.51
0.025269384054849388,-0.013109202093787584,9.886575741927604,0.010351218887705063,0.004274293276593042,-0.01406897549209994,7.5200000000000005
-0.010719950649713837,-0.12691381205181598,9.777586934556075,0.002513958482049023,-0.00032533377969439506,1.1801772866696535e-05,7.53
0.1723740266177708,-0.11649041050139602,9.757764783841985,0.0003869279494438508,-0.006872864738124888,-0.0038666317570865386,7.54
-0.11563613671351972,0.04920538532062313,9.80238168484666,-0.0038678214187316106,-0.005158873288976851,-0.016081307752310387,7.55
-0.06957011139328396,-0.03862301615844634,9.841359315683077,-0.009053612696748795,0.0060085820423055,0.009517375970628296,7.5600000000000005
-0.04928658612450232,0.022474935237599216,9.732003639573897,-0.00012853517023746018,-0.006398410479656326,0.013338718779541688,7.57
-0.04964958800874092,-0.20294904177588596,9.777867272448676,0.0010993405528053478,0.022283535919071108,0.010114375131797063,7.58
-0.030936282572368384,-0.03905376255192666,9.983706180903173,0.004300680709024791,-0.0021102907817464552,0.004958244068496682,7.59
0.06617634876692671,0.07130039000092998,9.90418501307708,0.008772507634251745,0.011440738315126217,0.004120156784004794,7.6000000000000005
-0.08314160836021234,-0.08493279737831039,9.731614913633463,0.00975643216916325,-0.004481820427310494,0.010467324969772089,7.61
0.06574036513491194,0.010741006957390432,9.866436642460744,-0.009319887934742555,0.01054307212458211,0.0005358848541434062,7.62
0.050497500699824054,0.05758553218337196,9.795660755824455,0.009381690576816835,-0.004535143763037403,0.003219789557586658,7.63
-0.055526582322082164,0.05926146617723891,9.93274902946762,0.004158389927883676,0.003260668712356087,0.010131070967475309,7.640000000000001
0.10926360223363694,-0.1784018117285838,9.83809584231678,0.0013042995389656632,-0.00029073994755629,-0.01851517944188576,7.65
-0.005850481047324967,0.13324699627485134,9.792986531513787,0.0017433967501464854,0.014288177439215408,-0.0060267306317480385,7.66
-0.16168136602398497,-0.000634646967888155,9.768231847069355,0.00877931651914677,-0.004360879311606102,-0.013810273788677838,7.67
-0.042071852582398435,-0.15425381262330348,9.806725171322743,-0.003455876384594947,0.006180377730811778,0.005063592900244855,7.68
-0.03777485296425622,0.0028281419645905526,9.847716720576482,-0.01035099000519556,-0.0008260528134060367,-0.0029187930445526544,7.69
0.10816691716795274,0.042555714309161226,9.927788941926517,0.0016260819970562908,0.006285080838325288,0.0067546860255406575,7.7
-0.0019025503878583054,0.04425339603954742,9.531571237778678,-0.010914055512344865,0.01815654469342732,0.013174854153182947,7.71
0.057661160562615804,0.03384635301196529,9.834260750658407,-0.011505240592175656,0.006368035355129823,-0.006617298011562875,7.72
-0.02434119046077696,-0.17344155924627153,10.000223870859521,-0.01426762117745187,0.00016042866287214783,0.002979304040344722,7.73
-0.18051677674707992,0.09064448326567354,9.733054760693408,0.00668512408174218,-0.012787700389414182,-0.013155325710923222,7.74
0.03400416628237385,-0.20628407296187623,9.824791624111382,-0.0012323138979370013,-0.0012873871766781314,0.0025494881992507773,7.75
-0.05965221004855831,0.08217989581690795,9.78685997906269,0.007638531680634541,-0.005854109362784751,0.015235787661045155,7.76
-0.059480556852914396,0.016723102733535576,9.974078838186086,0.001718298741175166,-0.00504059219119139,-0.0060119721339608025,7.7700000000000005
0.07993283817292172,0.047551592541905746,9.925908499463057,-0.01572693075301615,-0.0009552130032606355,0.0019077283973732082,7.78
0.03864244057503027,0.05761792972892369,9.713890977945717,-0.018937604368141566,0.009941897239917431,0.008303687221108429,7.79
-0.15358011004728825,0.02845384023947896,9.871342267151917,-0.01328137719364355,0.007616804978331348,-0.004153386035881914,7.8
0.14135447208281698,-0.09257076667024358,9.761176205461645,-0.0018987205640998435,0.014892827384659425,0.0013292327694687412,7.8100000000000005
0.04189614420603473,-0.023518836072668373,9.760209566306958,0.007959274518958651,0.014635509035684682,-0.0013741057205646095,7.82
-0.06839374450454679,0.0030250116567977566,9.912413563025982,0.014310574819394448,0.0031145023597228096,0.016298944615433703,7.83
-0.03372848357354389,0.008408953349398058,9.756662114242836,0.008179981768718692,-0.0002363108220843563,-0.0007572716258798588,7.84
-0.031545014728180394,0.004984719007262429,9.902738202127413,0.01494672815725652,0.00017171035054519256,0.004749583131148676,7.8500000000000005
0.14312167352897148,-0.11721793896131433,9.731701309819872,-0.005064490565753414,0.003991193796007941,0.003385270721332345,7.86
0.049393889752747076,-0.03358914036007705,9.766458153641203,0.0040127111691893695,0.00791903287556649,-0.00916004881075104,7.87
-0.11257689974986984,-0.0949545105506673,9.96132565280401,-0.0039126226883705005,-0.01765354565626683,0.014439054690842414,7.88
-0.09927128601476151,-0.06858472432909368,9.833504753659657,-0.005468334157670397,0.007734289703562542,-0.008889657592747669,7.890000000000001
-0.05989454190967434,0.02420163067961294,9.702759259817958,-0.007316411994115982,0.011424350434040635,-0.004007817341393982,7.9
0.05486413869090037,-0.07050576016750014,9.893419072549905,-0.00023267152714922482,-0.005839673393417239,0.013961165351054336,7.91
0.031301707655023915,-0.021512630864339376,9.896642019968017,-0.00798669860386371,0.005312023175203538,0.015605888763952618,7.92
-0.1083649463350926,-0.0037566125957093294,9.564235117888451,-0.011990101879585841,0.014248861887734545,0.006682425953602967,7.930000000000001
0.014468247748111538,0.08897058999627998,9.825673112306019,0.0179242392599049,0.004190459698971884,0.0005616843755954296,7.94
0.20002297915165201,0.05204848884603114,9.734306012883353,-0.002782192288997739,-0.018318240259111877,-0.004868462912156919,7.95
-0.1298806133845425,0.09711589152916236,9.785398934981476,-0.0024429367931289763,0.00844418469858352,-0.00866520430938812,7.96
0.03800519568407119,0.04762573241923733,9.928009664508554,-0.004633845575246063,-0.008821629765424516,0.006753379639791337,7.97
-0.08019574535374097,0.19714644475151566,9.876420126294596,-0.022739358666198858,-0.006147891028570809,-0.0006320143903673076,7.98
-0.0792811035064587,0.013658433900446361,9.602242923405754,0.007371469737836889,-0.0188282871527303,0.010080892592066128,7.99
-0.06505363307611219,0.15697700383293112,9.996644354382777,0.002908116775323288,-0.007419661385141781,0.008824958714688162,8.0
-0.05739257201692917,0.1608617439655679,9.795120226723824,-0.005771682211456487,-0.0035232036904875347,-0.003650594140321386,8.01
0.1304373795138487,-0.04952562706923774,9.791055945839345,-0.017763203704040987,0.012104143073316467,0.007751953593312119,8.02
-0.250634616717466,-0.024565958774652962,9.803398966815486,0.012637949826400327,0.0029710983953848335,-0.008102984317245533,8.03
-0.054591410333716554,-0.017662380753348157,9.851229336989192,-0.0007591928126990119,0.014138835973907516,0.008003749917945615,8.040000000000001
-0.029005382327396564,-0.1437584464253904,9.768394762246993,-0.00040763006715515185,-0.0016702085695516574,-0.009242771219291263,8.05
0.03055151708635518,0.10264936104390948,9.780079869800614,0.007872300993923527,0.019326344957709775,-0.015739255116437194,8.06
-0.06017174287447086,0.06624743718327814,9.898373147705483,0.005963137188889778,0.011815869060780035,-0.015105587255252677,8.07
-0.0021402404321271542,-0.07579804001344015,9.783421989758695,-0.002694688487926144,0.018817197582350655,-0.004783610335156449,8.08
0.03565114597533999,0.025777143594348115,9.755159663834363,0.011115503159897516,-0.007592913656746026,-0.016376912198060707,8.09
0.10597773368908132,0.05006950810980392,9.802846972250604,0.012058966451949725,-0.015523999830755865,-0.007988327569352735,8.1
0.1877003252629511,-0.05634886018527261,9.913124485360461,-0.012774400831661654,0.011187283248605795,0.0023798136229464784,8.11
0.007829599509619705,0.1660199307944916,9.880725718488415,-0.02279111636033262,-3.6177990905896203e-06,-0.004124015476186292,8.120000000000001
0.1505286567371336,0.05968232355312797,9.776714803852506,-0.009382338528676856,-0.0024775914907806547,-0.005379951530773541,8.13
-0.10710126717030083,-0.05373488266613228,9.85179329779606,-0.021198398698697503,-0.0134940760745788,-0.0004596933592430104,8.14
-0.03599953890650977,0.04885787632506778,9.793027568595216,0.02509273070478105,0.002350890667173376,-0.013927232155081426,8.15
-0.14564939168121863,-0.04252176852512962,9.678848427172197,-0.006667784135014584,0.012407310936669224,-0.015407358903857218,8.16
-0.16597083673542148,-0.06781948868522292,9.697394392446382,-0.0012555405782578891,0.016414708643652753,0.004189612254036245,8.17
0.007353635443300032,-0.11815426994093131,9.764759424803895,0.0028514693491213604,0.019260747259940366,-0.0026727773282026104,8.18
0.08124992527303443,0.0661628132946743,9.924376320395702,-0.0031300140705123884,0.003997836641795336,-0.011327765743854173,8.19
0.1907277999949345,-0.04697436480873133,9.811240584489768,0.016848445987142337,-0.012252897560429361,0.0006751364856355002,8.2
0.038776089872055663,-0.22700129039682554,9.763146095244014,-0.0011574282643945248,0.01299747699122412,0.0012233182784676078,8.21
-0.27030637682696956,-0.0057616476243735025,9.771508783012044,0.009095180610937236,0.005259892587077035,-0.0040172637781155105,8.22
-0.20540943177402365,-0.09456567102212252,9.771077076960037,0.007870903606702864,0.013098504923171128,-0.016704743978863134,8.23
-0.0044617836579125165,-0.009147554384047282,9.951333318594966,-0.014590152279632524,0.0028775054788662408,0.010221363392286704,8.24
0.07790667302308456,0.034272883745614734,10.046822542606924,-0.004054895505721655,-0.0022245648266395945,-0.00042505694734576525,8.25
0.04736736178569086,-0.01960622275118967,9.615679129616785,-0.0138038927657432,0.00999786308170734,-0.006693138482569503,8.26
-0.045640820601718396,-0.060631053933844985,9.943098961377757,-0.0005965659881645076,-0.01170531212108178,-0.00023822297451331839,8.27
-0.0640929795413131,0.01795712854936411,9.830588129031206,-0.0023105486266720887,0.002628788621243543,-0.0014053674930247517,8.28
0.04917609401788849,-0.05939249402089528,9.909968008208187,-0.006831578676368901,-0.0038155132433130407,0.007091349939221316,8.290000000000001
-0.08459892216054155,0.06497875930660017,9.626909833096912,-0.011139434736488176,-5.3497419978261965e-05,-0.0011675492040142173,8.3
-0.06297657214625078,-0.05471073448068064,9.839408353670795,0.01610668686231833,0.009153305035095014,0.005682007885577871,8.31
-0.008231629766013972,-0.07323334549605777,9.693163726522561,0.018155525083178557,-0.00661601142219044,-0.0006910062894652544,8.32
0.12775200152392138,-0.12413758782876612,9.824741948400126,-0.0018559890557015497,-0.00029906288571207145,-0.02220846464978587,8.33
-0.10287119635590905,0.13067310817703384,9.752992422531982,0.0006701080126208247,-0.001569786475544023,-0.007101841040974475,8.34
-0.023402620743358842,0.11057775848756653,9.69415806972163,0.002636874898911553,0.02572814119241175,-0.018844900256328984,8.35
0.04000252006848731,-0.0111700376166763,9.917262169036452,0.007423482766727138,0.007341256016346379,0.016566656297816364,8.36
0.05861931329568393,0.12855395214660448,9.798647389578083,-0.003557406495792975,0.005906125791631392,-0.0030131996550890956,8.370000000000001
-0.19525925654971935,0.1225962870274609,9.760027970921195,0.0057198183670652825,-0.002552646078195473,-0.0033320175636273597,8.38
-0.08264289795832026,-0.1257757703299222,9.770253612170338,-0.003021667217216116,-0.011210688771577526,-0.0023352277673508955,8.39
0.02328619160874376,-0.27448469172165385,9.882912172555812,0.0036306860093754403,-0.01127590732215138,-0.0030612290869892166,8.4
0.0014692361514701876,-0.05585148432470514,9.733055269540733,0.008548993886831734,-0.0016010655222639695,0.002277829699970566,8.41
-0.08605359670665769,-0.008759224425303282,9.689695982788491,0.0074866772929749375,0.0036919280089495825,-0.013479266679592658,8.42
0.01099952514766863,0.08411307233141245,9.833827773106504,-0.004268710815105305,-0.008446998572401545,-0.010585467865309704,8.43
-0.08242903517399625,-0.026929526378188153,9.786570992361103,-0.007793000213286327,-0.0011186190932143284,0.000618442627683795,8.44
-0.10163328726624972,-0.10050240344977085,9.79475753860775,0.002260721078661362,-0.006275245446029098,-0.003464508502450497,8.45
-0.06604907751960286,-0.1031702034898512,9.84172064773983,-0.0055068048881882084,0.007318321564156996,0.0017699201049045058,8.46
0.0666173052938999,-0.02863748212941667,9.843602531458298,-0.0018529249283251899,0.00924275052080245,-0.011297442782925651,8.47
0.08026171031828555,0.03153105697837318,9.85512724971413,0.0013777589395096792,0.006310365402702261,0.009207643844904155,8.48
-0.08074671376750836,0.1349166619959807,9.763982781006307,-0.003396825621420889,-0.004220866123423986,0.004487602952406503,8.49
0.06233951443904421,0.00579215675291425,9.774150717024307,-0.0025202293110152484,-0.010739216518211865,0.008542333983303983,8.5
0.014181611919434548,0.027393694900123833,9.836919326947783,-0.007187443917347816,0.01192117357636394,0.0030100062186993516,8.51
-0.0924009704295581,0.018098206761813045,9.783445824780838,0.0032522047400635004,0.006669016712200198,-0.033282359275550476,8.52
-0.042826758999535586,0.0402212507633897,9.853484093798626,-0.00029945881748658055,0.008406209058002814,0.007652119291719487,8.53
-0.020088643836827937,0.011670906820158942,9.712358238446923,0.012854798048291472,-0.009662242512463587,0.021132561356739944,8.540000000000001
-0.07153737095263148,-0.10670793621579461,9.840020293224741,0.004870492340137787,0.005779837441428541,0.010301973812843817,8.55
0.214268570856855,-0.11342555573193476,9.78784924201418,0.0008649026546296055,-0.002651746215476899,0.0072887730575911525,8.56
0.12120524437726357,-0.03959979097570679,9.807886067401702,-0.00759342290353752,-0.009886209661377722,0.004450876810549547,8.57
0.030394534381370627,-0.20010108880256447,9.64695411737334,-0.008204963243859643,0.00856516244637702,0.0037892408904411125,8.58
0.10679316170945241,-0.02807909563773496,9.782713765311726,0.008492049742399633,0.0014487876254876844,0.005423365754587747,8.59
-0.0976942698007478,-0.0030494159345622177,9.712630835986518,0.010580224499963493,-0.018015594457667813,0.03147213771292016,8.6
0.0031207554842606123,0.14553183713819837,9.845003824018972,-0.005791153152687297,0.002055788950417161,0.014528994904556197,8.61
0.04183141036764361,-0.037817555886394565,9.788959723496362,-0.002582979437703941,-0.005553210810088986,0.005003372882022101,8.620000000000001
0.07168229650440777,-0.13139375355403463,9.80650409242285,0.005495963050040314,-0.009971466024526804,0.005801173648845304,8.63
0.014294494218916607,0.14194279283471953,9.841091748459627,0.005255323067768454,-0.01264636896748079,-0.0023001530412956814,8.64
0.00011084653009550215,0.03877263568544438,9.83722762509626,-0.02930331671230316,-0.01701210118036411,0.0034225876811179714,8.65
0.00964709280582997,0.08478192459373612,9.799797627930827,0.004443413073482393,-0.0007008422177820708,0.0008537256983561182,8.66
-0.16310623239320968,-0.14854640500316785,9.74520456729896,-0.002421163103758717,-0.0018941409519087722,-0.005622701735766605,8.67
-0.10546002720224149,0.06923241746465061,9.906509454502029,0.005115141532773013,-0.0138173020330323,-0.011359913176931203,8.68
0.03145829768600096,-0.027635169564937875,9.80642576047817,0.013046538861304422,0.009959020971147663,0.0015247740095714701,8.69
-0.051650939459574025,0.08477209594442103,9.762299245224796,0.005881017620188937,-0.012344370537361003,0.012665701870624109,8.700000000000001
-0.06874151644834775,-0.020534255031930924,9.898117803736755,-0.01918515695406511,-0.014333435193254187,-0.0027117305639338496,8.71
0.18895382062110636,0.08018432134470692,9.827488684965564,-0.012324183247376164,-0.0004874454963513025,0.007974936085197787,8.72
-0.06379017166189038,-0.07060123039204032,9.732760895213842,-0.012798488868816266,0.0002189327291636081,0.004060371586756895,8.73
0.07962295221869548,0.02363634895607042,9.648404588458998,-0.030064706243580003,0.00853555181790326,-0.00920667590385518,8.74
0.08084125518270237,-0.004672405044267722,9.727803650757725,-0.017664349928879514,0.01142462259987999,0.009081056067554228,8.75
0.08177844492565042,0.152040446540788,9.810630052565687,0.02936222370660879,-0.015071148879634962,-0.019039694332974477,8.76
0.009668293600096203,0.09031864528869937,9.69531149961094,0.005625142379383988,0.0010881699538231406,0.0028559146691740146,8.77
0.0779725868861768,-0.13128761166138272,9.754827661698362,0.002181481753765677,0.006705637640805881,-0.007932119225937298,8.78
0.09452315641969294,-0.022406437846136235,9.823884303690901,-0.0035876517407121534,-0.007671250362205592,-0.002651452329008274,8.790000000000001
0.03510376462843604,0.08870155232161864,9.685872421512357,0.004080279575472151,0.006583176768594579,-0.00405717028619643,8.8
-0.05880890510462908,0.09245559340693392,9.832443573452252,0.01371106068342777,0.012000613802153648,0.002704806537105433,8.81
-0.0016657132329137446,-0.019640455022770002,9.824439894836896,-0.008441511489907568,-0.005767037489195258,-0.016472799093423748,8.82
0.07298167027505675,0.16884783302749767,9.84555898077,-0.0018289655476253057,-0.014300576032591746,-0.0005773979545000185,8.83
0.10879918536051819,-0.03555672759554039,9.950982530739521,-0.004915908938209534,0.010563546365886356,-0.0009165729745467925,8.84
0.008401365106056881,-0.10808595319558044,9.896525505724291,-0.0018984151360858176,0.0018989350044456537,-0.005298104384455841,8.85
-0.08119868505449696,0.08853302692221213,9.869204605798776,-0.01678303965343845,1.883723292724134e-05,-0.0006540511414684726,8.86
-0.03690622792245934,-0.009064634742481106,10.053845560698761,0.010283456534404482,0.006254794548446483,-0.014680998909653242,8.870000000000001
0.050039131446901676,0.17051605993314778,9.905757681565442,-0.0006449889221250569,0.01933960082290975,-0.0034549706088076353,8.88
-0.012427545316422787,-0.10665669350740932,9.969258412005685,-0.008804879793210079,0.01343600479015215,-0.0073188416963203785,8.89
0.10832575979350728,0.09414109175231541,10.006278787389864,0.002673216459452532,0.012116557523113127,0.0056758192970555055,8.9
-0.06661039124582006,0.017275941375936906,9.866932908958308,0.01484520241068795,0.014388824551497694,0.009149581455551007,8.91
-0.026935422025936823,0.1447730665929171,9.832480404786834,0.009806753986284228,0.006933611043129253,-0.006664075967303772,8.92
-0.07926493043179789,0.007803641053988277,9.793371202055997,0.0023927909822121763,0.0006651599571679138,0.00708312203878793,8.93
-0.041479822702007715,-0.12904626718697318,9.910133950082944,0.012108462134539637,0.005912544419699171,0.0035680975043587983,8.94
0.002327711791896754,0.16714266243998613,9.78804586336263,-0.008254207162657037,-0.003856629184828315,-0.010122786225764582,8.950000000000001
0.14167161579567975,0.09900690637757263,9.753622745783485,0.0014251685008402645,0.01662795359439003,-0.0014271967876931298,8.96
-0.0038353703766068068,-0.02670513780338987,9.84338328969672,0.020978571958523193,0.0014629951915431055,0.01362351939045758,8.97
-0.08136229083320133,0.014579424910044145,9.932099623660047,-0.0048780379567676755,-0.017575237258204403,0.0009697780249640318,8.98
-0.16520539278492818,0.09943092295771463,9.751274493522041,0.005155685002768761,-0.005818402582956472,-0.0011354654725442184,8.99
-0.12365076404347375,-0.09066024380714288,9.751576519050287,-0.01568487800400548,-0.002388796765705327,-0.01037499294045337,9.0
0.06917633640416136,0.049127036794979095,9.866947443777587,-0.0003996599817045825,-0.00342822193801401,-0.018643739473768055,9.01
0.007356211357481134,-0.02244743356724213,9.839970381915307,0.005551414032541605,-0.0015901679471010033,-0.0025344641309886485,9.02
0.12932591385340442,0.07783278079598017,9.816692487573945,-0.006177205494628515,0.007854386894098474,-0.0042288672543498345,9.03
0.09773944026746852,-0.11983892669412904,9.850179250571545,-0.009308677912713711,0.004302933830504259,0.015979318772517563,9.040000000000001
0.09401423743213846,0.22007970843416494,9.642673683121458,-0.006883329253920575,0.011406396889059178,-0.00094603200400285,9.05
-0.06145301021448627,0.07131107821053727,9.703272852783893,-0.0038166082284850915,0.007664822810501717,-0.005877860588070473,9.06
0.04617777447236365,-0.07843540121137586,9.734627230195025,-0.019181341713681514,0.0133150455556259,-9.882634593592271e-05,9.07
0.11390726426350317,0.0013623454558558332,9.762137155128496,-0.018149911064292364,0.01483177429983479,-0.00437043135874932,9.08
-0.12261165010569877,0.05443739772710685,9.786974933298689,0.0005159220648132597,-0.014990866428281091,0.00012910234556746096,9.09
0.027216422390396195,-0.1388096206182177,9.818232842775176,0.005670736393717123,-0.009093088441103613,-0.0028920166281681528,9.1
-0.02410581964524828,0.06294182712819485,9.851045339523731,-0.011868573053514258,0.0008322864809270406,0.0012638450575877833,9.11
0.08389069113715496,-0.06635737919691076,9.770783538435806,-0.005203068618149619,0.002716798027833774,-0.003291227578049116,9.120000000000001
0.0908727478166945,0.11336770796728178,9.909578368910413,0.00016849888713533774,0.0042811553512609145,0.02133983641927937,9.13
0.09022506283462117,0.1339359704010409,9.836195739499189,-0.0033078665172744464,-0.009284904300376203,0.009446110023494707,9.14
0.04027522473523936,0.020898197752877247,9.769089054550252,-0.016992285958195404,0.015315673496699324,0.008967381636364876,9.15
-0.12491399226072974,0.2353249128825311,9.817866108618635,0.006852457534548584,-0.0043223221275429605,-0.00011860616262774587,9.16
