ax,ay,az,gx,gy,gz,timestamp
0.001791692862088797,-0.054905670889125915,9.869511438930461,0.0007590089153439017,-0.006073539443868521,0.0010934063139763635,0.0
-0.028995026899911066,-0.09546378511020669,9.766935310464264,-0.00038278946309671855,-0.006622828543881455,-0.013838407570430368,0.01
-0.09380098640637519,-0.07347264604623872,9.670231569114977,-0.009700537801854044,-0.0033500926523058073,-0.0015909303932932516,0.02
-0.07940673422632212,0.13430801618125338,9.71520022639858,0.014385316072038218,0.0023935799570756226,0.0004981618077534431,0.03
-0.06211296329949926,-0.11144222830208261,9.899772981604585,-0.008438834166900043,0.027518665142475692,-0.0048900000477449974,0.04
-0.13127957415595104,-0.08361038194050614,9.72655133846921,0.0015252243409890095,0.004828996412839121,0.007291668785352945,0.05
-0.03855090417780798,-0.012397267228461096,9.665928971290867,-0.0034584728784334763,0.0043808335526227355,-0.00809473391518562,0.06
-0.07527588881153627,-0.017617211641048427,9.713294696153113,-0.0016107193428864792,-0.00431372946424026,-0.010591303735600617,0.07
-0.1267387713022277,-0.016002144258598083,9.755559411659368,-0.011245235921468201,-0.01148326740867074,0.004304793887493035,0.08
0.26557587833563967,0.06424385685380628,9.904447985438374,-0.0009285354854586897,0.004336262153589302,-0.0047008932373334,0.09
-0.0883306472805263,-0.0019866407669059147,9.802924075930047,0.006195834839798091,-0.01322126710601639,-0.0012290776504207998,0.1
0.01793501731083487,-0.07471105409660535,9.677835349688669,-0.015882580425826853,-0.0022506053100033387,-0.0020656000407335098,0.11
-0.1143343628574972,0.07138745499625981,9.731185980778283,-0.010899740602811313,0.006919283279492764,-0.006877874025830613,0.12
-0.08209173176575241,0.04455806293324782,9.667680415122993,-0.0010515583324373023,0.012742804656869347,-0.007258146659585097,0.13
-0.02493479572877094,0.08826925692402704,9.789628156505506,0.0017423526660512614,-0.005248520135099407,-0.00022605031817477916,0.14
0.10747481640238726,-0.0803606938548768,9.96557666642204,-0.010183594070093336,-0.019884543262263476,0.009760971390354983,0.15
-0.0365744825638784,-0.05345261114390685,9.74765184751734,-0.007291465591879035,-0.009069312671308385,0.0022900478049326244,0.16
-0.05313970760532406,-0.09647618816194128,9.808862614627042,-0.004776570257045405,-1.5074242552955634e-05,-0.0036983499671382285,0.17
0.12762372673692027,0.06346311951269923,9.651811567791649,0.019821719675974184,0.005903438998361278,-0.006884366245819876,0.18
-0.008555575219375089,-0.13230201165267774,9.758040820495467,-0.014974674063121814,-0.004858023042614475,0.014186308822311174,0.19
0.025269792628477606,0.16720266724823174,9.93254331487136,-0.0018643657351727246,-0.010268284176833675,0.00781646031527785,0.2
-0.023938109304328173,0.03598683211050289,9.834739767974666,-0.015069080690900715,-0.009648896973223171,-0.0027891245644576495,0.21
-0.0007183657082172458,0.13085287783576086,9.825047310269076,0.0008309689633947702,0.015989327717608158,0.007316587146032042,0.22
0.01409936617542221,-0.07725240521808885,9.850479974489083,-0.00012191641163727058,0.00025924539579809917,-0.003213833618170753,0.23
0.10544820596887655,-0.047465709210593225,9.83032132204758,0.02083716247440784,-0.002123937013672095,0.013372236573174805,0.24
-0.03635278010573599,0.23333577310644002,9.71107496722099,0.009641492917902233,-0.004998218829719472,-0.010896575987232942,0.25
0.07847506948013057,0.06643936039431202,9.726816158800656,0.006173026004205367,-0.000315367197943741,0.0024129154992116155,0.26
0.07966184892854725,0.1146523651494093,9.774114506358536,0.0041053967125859545,0.011108004953332343,0.012874060197714173,0.27
-0.054138936073182375,-0.021330562318138332,9.751540493503542,-0.006603764609196523,0.007189916961941965,-0.00505737761671484,0.28
-0.05743482157613509,-0.1433164681663858,9.655759738846713,0.005050911310754228,0.00743270116549173,0.009617061421186077,0.29
0.16146956927229686,-0.05827890048556318,9.825313580497113,0.015161045393264136,0.0026262609493409345,-0.008775532673279792,0.3
-0.011175150210935302,-0.042960488309694955,9.810590195900936,-0.005878666151044089,0.008044863646901422,-0.010062665193080045,0.31
-0.15484999500693838,0.040475324828607565,9.689766775184008,0.0002849966960681634,0.00821150331743706,0.0027714554739015347,0.32
0.048100811161550044,-0.034846090489727914,9.682453209981482,0.005877222832937973,0.012484537108022482,0.00939803039539486,0.33
-0.05763756559607709,-0.11275819927052784,9.898488330347499,-0.005020988705508917,0.006004707216762828,0.010030835265922966,0.34
0.06557793472615502,-0.12793062086866477,9.72476878607207,0.000714390555294849,-0.0030627962985241694,0.018176253662081684,0.35000000000000003
-0.14160531095176557,0.02530660690680976,9.783380694546153,-0.010988265076878685,0.006142596783484444,0.008962977813042478,0.36
-0.04597198248298044,-0.3144008916020443,9.816092704973657,-0.010252011072810511,0.011076597642243977,-0.008716623701223445,0.37
0.11205241268371915,0.0912052636243607,9.623710033654632,0.004845966846333296,0.01202024149773429,0.0020437690186697775,0.38
-0.1048410283210268,-0.0720034976781446,9.974036925127509,0.021045102981968742,-0.0001677562708792971,-0.007255443106828276,0.39
0.010791530809477125,-0.21272356789874533,9.865191831262315,-0.005586813999179628,-0.004125962062572238,0.009451868783418655,0.4
0.1564609544045314,-0.1322198284417688,9.702106844813699,0.007381767218002342,-0.01145193957430824,0.002993722361429091,0.41000000000000003
0.11690395815913246,-0.04232075884563272,9.91866297732779,-0.007990402032272127,-0.004031122194074522,0.004498932482905384,0.42
-0.0725066945517932,-0.11477550526705292,9.764643532168654,-0.007083775659764665,-0.0031166586877519765,0.004257692031409771,0.43
-0.004528340772395732,-0.09229969055080822,9.847473909552471,-0.006551489242433008,-0.005243620172314114,-0.010210511290158226,0.44
-0.0038645270418940906,-0.04234722373613612,9.757440271149113,-0.0002244921200744862,-0.023402627761680287,0.012981054776539134,0.45
-0.1047311413587852,0.04866921506867085,9.812343033188442,-0.007626114989205333,-0.004416417884895045,-0.002683754336854325,0.46
-0.08045088841127918,-0.11093757573413066,9.688413353050834,-0.006292391104319869,0.003771178479505397,-0.005499337300545227,0.47000000000000003
-0.05400518967117799,-0.0564666931048656,9.794070395338768,-0.002531706523659925,0.005789879695980831,-0.014455124243323434,0.48
0.20830914649302518,-0.06786520049882837,9.87617706538793,0.021825221538889623,-0.005202901784000485,-0.009206983436652667,0.49
-0.141078023637864,-0.05680595469802659,9.652448003943194,0.005625658737407529,-0.005690400936794118,0.00047922333938878344,0.5
0.0086837456146938,-0.048329778243643054,9.940328091349546,-0.00921185224403493,0.010538870234636382,-0.011350635518038618,0.51
0.07189791344507075,-0.0037977634900941506,9.803882227552826,0.0077972944415039686,-0.0035318230112579064,-0.00744396485518293,0.52
0.03984859997072004,-0.09360185817309911,9.95387787116746,-0.013248450768347176,0.007048351618928519,-0.007921069729134126,0.53
-0.2378382119060985,-0.019858140859583734,9.798867459589866,-0.007518242476195655,0.0023108845965435386,0.008949719133605826,0.54
0.10480659984368293,-0.0961916412406486,9.87878139029921,0.0040279991217061425,-0.002820454971273325,0.010838036344088944,0.55
0.16474473445051652,0.12827952013570454,9.874690677721821,0.009057018737708183,0.003998647880258352,0.012309296561279838,0.56
0.1355143066033761,-0.016303490622957547,9.763468740871142,0.024530455326825473,-0.018165319783852992,-0.016089467964483094,0.5700000000000001
-0.09036486752994422,0.19945875123456366,9.829415407100035,-0.014035669081746869,-0.005175511119584272,-0.013378670563410053,0.58
-0.06817082481874022,-0.014618819214907167,9.767066649251431,-0.0031925351378923723,-0.0016601838672862929,0.000777799117160939,0.59
0.03435162661291509,0.005369083810962842,9.943745575473287,0.0011820448163737686,-0.025482573386304348,-0.00188329753371857,0.6
0.10601424134769295,-0.1603086593604091,9.679787479636733,0.0011635891993223416,0.00697034264427978,0.008909583055508149,0.61
-0.11200536527822569,-0.12395870568096286,9.651222396715891,-0.006050133332805376,0.01611420928165035,0.0007398337798661609,0.62
0.01554139629679808,0.10425423459293687,9.93181894493472,0.008033961216343359,-0.02406319467515345,0.004019073905828838,0.63
-0.18957115485196127,0.015877202455845566,9.782130290189441,-0.009148595825238524,0.006814880720531933,-0.011166687596985962,0.64
0.2279985727531674,0.04201157665066563,9.71547062209797,-0.004727689416408536,0.00893971220840508,0.0006886488975118935,0.65
-0.0906422238586951,0.03243550498407273,9.566480147218892,-0.003488803867421925,-0.005219643796121186,0.002737857763253114,0.66
-0.015248163696044509,0.10871590802921326,10.03687327638656,-0.005703796408628974,-0.004035641645031476,-0.005256599273229474,0.67
0.05381349457306533,-0.20875754791007428,9.658911696278324,0.0028374759426065366,0.004446900973238227,-0.00033843419621804163,0.68
0.014078107635066638,-0.18163922446606254,9.775544874732258,0.0045087548070554635,-0.0009146419515478407,0.0028073263001076767,0.6900000000000001
-0.058549694860978545,-0.11576207319951431,9.83076270275426,0.0017135155285108495,0.016427485428496594,-0.011815762181752936,0.7000000000000001
0.039172005288468564,-0.0006997231968625022,9.936616977377978,-0.00033905053810107957,-0.015350150962622898,-0.012283003510435625,0.71
0.08681558824676729,-0.05977363669674284,9.954187297239681,0.014277101435078505,0.0026244713730645525,-0.016332584115785007,0.72
-0.06132705626224723,-0.01620531291201631,9.760177835970962,0.0032641397493281127,-0.004042958418401119,-0.0068355706725654886,0.73
0.06848174522119556,0.0035333122478156728,9.928104380991483,-0.005154335765296216,0.0031511950640051357,0.0011021080721665788,0.74
-0.054755228309616315,-0.061851283496153424,9.7337126007896,0.012736098748412639,0.01115438715276019,0.009993221668962347,0.75
0.2616574013111904,0.1690819052098365,9.615254386546134,-0.004449145610792447,0.012049318334297163,-0.014162743729356757,0.76
0.06180521001142282,0.08235753034220647,9.595083494882848,-0.02861255201045083,0.0010610138433983722,-0.006430753062034234,0.77
-0.11191550992137358,-0.03738776598672982,9.856805850107024,-0.0035486076698411795,0.0014478129942907566,0.003878778606854807,0.78
0.06178667538329961,0.10162627770783275,9.792952094165317,0.009264183627080976,0.0008603647931217374,-0.008703050076549897,0.79
-0.047777710520769595,0.044447453776432895,9.785720878770533,-0.0013736666020799442,-0.000587591726248319,-0.006073972710726373,0.8
0.14631219948423055,-0.011539939735926853,9.775646950500695,-0.0065011332660124665,-0.010106758185808385,-0.0006551496245133986,0.81
-0.2337927528126548,0.030004599895184465,9.815497776131851,-0.008324724267780985,0.013425062328986588,0.00858832169874157,0.8200000000000001
0.13708064714672993,0.18652487857223213,9.855814080733872,-0.011205129081413672,0.003868317168418041,0.016447094054185044,0.8300000000000001
0.08699739592065793,-0.06257157088674857,9.73568931368227,0.005405483812473629,-0.014632612217710603,-0.008738719660524417,0.84
0.028804288154810277,-0.0998506602332675,9.779808533425882,0.005956603522024109,-0.010128335164513655,0.0030853226415802726,0.85
-0.05119727941751782,-0.09853123619247267,9.668836323373176,-0.006761584556921899,0.01755346784829686,0.009888316463281963,0.86
0.10718908664653529,-0.056270465674308184,9.792739668179085,0.003002980128874532,-0.005230030556863856,0.010982534209311426,0.87
0.0636363790703871,-0.07555489789204856,9.865605709047687,-0.0018064225381985927,0.009969186171341678,-0.004490772228118887,0.88
0.013642328372079938,-0.05125217017546674,10.052177381344281,-0.011064064851680312,0.006995478027051071,0.02303139864869983,0.89
0.09606025052219122,-0.09325836173453263,9.644765478243677,0.014017116133517887,0.007710775799753654,0.008644055203477302,0.9
-0.11282548879151158,-0.16010103280751453,10.013953195954604,0.0018046457593412489,-0.014980345294535116,0.023891305711907562,0.91
-0.09181100000621684,-0.09323222234493972,10.026924307282439,0.015454300702359957,0.014313305153580917,0.008880524248882613,0.92
0.10317028155729069,-0.02532532538072891,9.962618200033031,0.008345627901999197,-0.0011988529149529745,0.02127073746909732,0.93
-0.013300942576620907,0.07457792008207358,9.893116048950771,-0.005899683543092544,0.0003398233494073503,-0.008434518754095207,0.9400000000000001
0.08578111146941977,0.13895549196409193,9.684475272869166,-0.01154411415417814,0.0073147151808413795,-0.0023978440827538716,0.9500000000000001
-0.11226972912177023,-0.08992631212360339,9.908965200502294,-0.006804753252029222,-0.025027604607063693,0.0056084610991159935,0.96
-0.06694017732261134,-0.01251890454700789,9.74286814725115,0.003372722796116136,-0.019803603998710454,-0.009408756381962455,0.97
0.07509835779632013,-0.08984675401777176,9.715318637407112,-0.008145575321487474,-0.0050919373623023855,-0.006412085646870661,0.98
-0.11809045392826747,-0.064703998772836,9.862183883236955,-0.022219097566421386,0.002121065116623048,-0.0007065548192517787,0.99
-0.015269008745798144,0.14927007407262957,9.790093312520119,-0.01811544535415304,-0.010784448870423203,0.0022552535683132728,1.0
-0.07418878168616104,0.08153012951962466,10.053619059639297,0.002836260209449507,0.002982570582380029,-0.008955621952505552,1.01
0.09241440924542266,0.1035684571281077,9.75328925011918,-0.0033826896000631523,0.014527721941373379,-0.004370779424044968,1.02
0.07139114076423624,-0.11006076041065325,9.778613964672443,0.006872983283666055,-0.0024413713395086073,-0.003110143521664422,1.03
0.22495617084024466,-0.012012029155771495,9.94370361605657,-0.006072655859309419,-0.020450052939736812,-0.013684422470082095,1.04
-0.011124670759522936,-0.04653082755501209,9.840109336388313,-0.01066422103585101,-0.0005650444043064943,-0.00046568909076801196,1.05
-0.033825215773916444,-0.04216087326853054,9.829935364274322,-0.00021315405431357728,-0.01334499652062626,0.007588214214639814,1.06
-0.09240691214336372,-0.08774840989222193,9.85501720703211,0.002050721164327294,0.00240219836054872,-0.009950165257362118,1.07
0.03843945542680016,-0.1385562447520563,9.894490943660202,0.008405932115291821,0.001255965782423166,0.01184328489761918,1.08
0.1045588823426718,-0.004370537128734136,9.90265518504855,-0.012206076023622224,0.01585499492640122,-0.006730308969959103,1.09
-0.11395549957028245,0.2487520760853575,9.907887443580433,0.007706711359191093,0.0036141974997466624,-0.013051081951772745,1.1
0.11758568695942895,0.07290903856206264,9.859951172653862,0.008269176230537892,0.006314982381018076,-0.01894731846517264,1.11
0.06163219966940808,-0.1773763936161382,9.843111889709691,-0.011267374820685657,-0.0025943961753526878,-0.005426348223142483,1.12
0.04868346836837037,-0.14900584033848344,9.731367224292914,0.0076066860896874845,-0.011320765748210537,0.005343420973448896,1.1300000000000001
-0.16421963285345176,-0.07751648563431407,9.913835849845283,-0.008356202430017777,-0.0012293697893812048,-0.00029245313278693854,1.1400000000000001
0.06878721004144203,0.12159552357153146,9.878934269734353,-0.004822240331821096,-0.0013593232732618658,0.0032783340911763242,1.1500000000000001
0.1228889835207706,-0.015938043168093084,9.854633370336265,-0.006786354647505512,0.01394639625690857,-0.005321829680446227,1.16
-0.0547485244956329,-0.011250441996745755,9.648786655463374,-0.0003319996702684908,0.0041444508311259225,0.011155682617061473,1.17
0.008892886170207307,0.05961909658725283,9.88712220771625,0.00033337326649428555,-0.00036769799875553346,0.006546708139831103,1.18
0.011917037378462378,0.07593233899594408,9.832833226793,-0.011533616664186445,0.003751266033804671,-0.021558176250128094,1.19
-0.14024662751823508,-0.0996769982111436,10.029437601629134,-0.008524487437359495,0.0044893059717492885,0.004872452764647842,1.2
-0.1592403091678968,-0.11521228746034187,9.633649003825449,0.015981999779531776,-0.005409315894553742,0.009036779794211872,1.21
-0.02114361485901112,-0.03570578963001938,10.001491077117084,0.0006632501382702101,-0.012596120171378613,-0.011527957402040606,1.22
-0.14113560569046843,0.04990390835065998,9.827886324275331,-0.007116577826780715,-0.014097888027017834,0.011921860128766656,1.23
0.019319482872308995,0.07209818247464016,9.859476161150585,-0.008978172507784382,0.0033608672783212376,0.008665572606041559,1.24
0.017119699511240583,0.010973719313162829,9.769788670729726,-0.00025267206539304835,-0.011697736286110205,-0.01408235405717318,1.25
-0.04211518137915602,0.03100145427409043,9.663501073938663,-0.004222031259659733,-0.0012075466620608678,0.010531055781628041,1.26
0.05096116199081601,0.08602919794226241,9.701803929487955,0.00829815670344453,0.018201313989009586,0.010698511651882887,1.27
0.14260218181692072,0.10631980789272732,9.755373593142911,-0.0027028188868909865,-0.002334874749677805,0.011119582308611398,1.28
0.05905237299319874,-0.06042360619559296,9.835725639186942,-0.012384954108136493,0.010209014297234465,-0.0017430759638795458,1.29
-0.04428461313928838,-0.06349674061514579,9.76692257121247,-0.002461129136465975,-0.004184325867748456,-0.011324062372817176,1.3
0.036147562783008326,-0.08133547229833887,9.889634539483584,0.014412045906237647,-0.005241448924386148,0.003342691594751757,1.31
0.061645848019340234,-0.0629112868332391,9.67282082601857,-0.0036244237575008987,0.02316464350285912,0.006366892214717489,1.32
-0.047832271320821386,-0.03979733148943142,9.870439422924816,-0.007890937349439528,-0.0018194633135372824,0.018307579062116212,1.33
0.18931919669901062,-0.17368333421458265,9.8718739961177,-0.0013907344028067945,0.0031018917599946677,-0.0078034702192708765,1.34
-0.1419367152243277,-0.10435293536982955,9.956093494490426,0.002253998649231086,0.0024351227586840215,0.007930954170155078,1.35
-0.007148481089317371,0.09419266718866783,9.944338865039127,0.01420440239068838,0.008738041086436341,-0.013178256605773151,1.36
0.09442550922189574,0.005257649112260002,9.772744736224377,-0.0040480488734113895,0.013571125997100262,0.005866128176343282,1.37
0.004938768613931298,0.0832672172097448,9.772284106359747,-0.011019944920579847,0.005343584148781935,-0.013550937092352113,1.3800000000000001
0.10808590686796798,0.1350662257133286,9.693319747059167,-0.0005406483402636346,-0.001263141021115898,-0.008208536074781307,1.3900000000000001
0.13706487861857003,-0.015334395072887079,9.872566898885154,-0.012363227657826034,-0.0036778206213797767,-0.008808676097723378,1.4000000000000001
0.1768736359724236,-0.08016628930288383,9.78918800348534,-0.006508836309044021,-0.005166375515938706,-0.004469618061149182,1.41
0.09912725194175644,-0.03276764017530918,9.85329340666942,0.002562687276665077,0.010676252018136543,-0.01038367637383276,1.42
-0.1110231831325687,-0.14740722100240478,9.974968359813852,-0.008574277037913376,-0.008185279976492236,0.006849444448598505,1.43
-0.02942464595067201,0.17540875312869225,9.6302770859501,0.016053737171086945,0.0028545694250662655,0.00434301801424975,1.44
0.027350325128882552,0.06027546079480757,9.892740953070252,0.0027352839081540097,0.01657282236780781,0.007543511010963261,1.45
-0.006820818828427658,0.0293681108674017,9.797827418366063,0.023473454327649218,-0.0017628297189571313,-0.011094117852645476,1.46
-0.2723321555753819,0.14553791875697217,9.76143008704777,-0.0015948964749277462,0.007005836724760186,-0.003154155440939454,1.47
0.021621000453013118,0.04827515281721187,9.74093103845765,-0.01519561476101587,-0.008809616813375831,0.004453505816675195,1.48
0.15145955456770674,0.10633585229428968,9.805395036231635,0.0004241667722753411,0.0028452348713873424,0.012079872949235446,1.49
-0.04807335641784649,0.11907881432407728,9.619932365925164,0.012914652910637066,-0.016859408578029502,-0.01111603439516266,1.5
-0.041891850309228595,-0.10610922143423873,9.914927584694091,-0.009058805004770156,-7.930126178079552e-05,0.0013317984910880085,1.51
0.1487007167479046,-0.060063219077543854,9.756923084965322,0.010235820591255797,0.007070917938329789,-0.00610397788480819,1.52
0.018565439562571114,0.032884931694467094,9.588836781437836,0.002909298721180864,0.011455416602440075,-0.0026983747293909495,1.53
-0.013845807697464817,0.14162129613642407,9.94755434697197,0.0032446612063020855,0.01311644862685912,0.014874994527738144,1.54
-0.18797395360555344,-0.06815798920684366,9.865550452771158,-0.004412102871142247,-0.007458569536407806,-0.0077417934082821185,1.55
-0.07400672016161257,0.09395391878695841,9.765012923062487,-0.0013206872034621465,0.005941190360786708,0.00028288922966817525,1.56
-0.056378806147238995,-0.1168225695275857,9.697272866456252,-0.01693897815906604,0.0010700703209445114,0.009493150968648858,1.57
-0.026022155100513172,-0.0033929654947348845,9.864374322050534,-0.003280886907063016,0.011780063166931306,0.00581063490206729,1.58
-0.2304456980448124,0.04430885919006096,9.95225620639364,0.01821887576707144,-0.02361453227032458,-0.0048804889771631174,1.59
0.04457444952240272,-0.1114723731639427,9.674972096241842,-0.015560794249218147,-0.0033095410979017115,0.007730652212448051,1.6
0.028301973907256247,-0.11186996382273032,9.8472733880008,0.01167585956896995,0.015724475059732377,-0.020740284433357674,1.61
0.1225091492726357,0.09706288953079231,9.91211363382143,0.0005974945409880242,-0.0018959112716732105,-0.0024716423426590856,1.62
-0.19503981880683674,0.0801848144467433,9.758776884958005,-0.014060402361652225,-0.011135457185839253,0.004928034509801978,1.6300000000000001
0.10251097760487476,-0.03510545424516706,9.930639445222669,-0.009144443093819812,-0.00718533752894878,0.008642154921741082,1.6400000000000001
-0.051362769979588045,0.019425821399182534,9.740108439511756,-0.008708566140025416,0.012423212242075295,-0.022742177399951498,1.6500000000000001
0.04928204715644713,-0.10179226627103438,10.026528838788384,0.02024109581132965,0.011746378033186067,0.003568418178297722,1.6600000000000001
0.055486972372923285,0.13976501172813505,9.831752668717524,0.020981933715558378,-0.005087908622692206,-0.005658885146966886,1.67
-0.12318444005922494,0.18369023302922263,9.727695582523856,-0.012799493013780716,0.007331769598390998,0.016869274095020412,1.68
-0.07314021424753492,0.00026831516555113366,9.82199854804941,-0.0020034700100350295,-0.007650862551042248,-0.006634884968496505,1.69
0.008160703472699149,0.03862523910460655,9.899610430171256,0.00694772618821041,0.0023015481552151108,0.013081827158755215,1.7
-0.13499861259431348,-0.10800781013489952,9.994123757088559,0.007384141310485851,0.0042677261907383985,0.011575912962543511,1.71
-0.1140229225417696,-0.010093530952733588,9.769588680330113,-0.005794769419164275,-0.00591323564440974,0.008647444419854919,1.72
-0.056706803086479296,-0.09558401460272445,9.74435658767047,0.0009589177682798434,0.0027189058072583745,0.015011986600299688,1.73
-0.02583691131687964,-0.1654139016246489,9.80836314772415,0.0049874092960887455,0.007587011259568783,-0.008498750739702444,1.74
-0.2827692092834582,0.0728270208059844,9.787380124606544,-0.0008634962868201125,0.023552328645204648,-0.008147724225508078,1.75
0.15114010116178817,0.010306962279889016,9.970458555321388,-0.014496253766083886,0.0057903551180207855,0.020524490248230366,1.76
-0.020366443455219905,0.019652204023896586,9.764342156087478,-2.4598001853139374e-05,-0.018502172465898956,-0.008144829177289691,1.77
-0.012286765361879793,-0.2982488879660719,9.825976407921958,-0.01905315144486089,0.013961020206611672,-0.0004508658267417194,1.78
0.16822580619678396,-0.01777749938597861,9.700492581897384,-0.01991663384637069,0.0022200548098720665,0.0006481177618155777,1.79
0.12202389729425248,-0.1478117258941484,9.774940758857854,-0.006917016633789455,0.008712772833392226,-0.003726897852166564,1.8
-0.10415904517348983,0.08736529907488075,9.723196104171652,-0.003808965587544472,0.005606297031360181,0.0025304140730531216,1.81
-0.0734245395476421,-0.08893888979552121,9.858240509409015,-0.002855813973566759,-0.0034197206563425877,-0.0005349938431919867,1.82
-0.06356709418135839,-0.08854282334553584,9.964433068588063,0.001119926712551836,0.003205677035672334,-0.0026524471617407146,1.83
-0.21770441887687808,0.06289765098251143,9.764570012021682,0.013953180813472181,0.00974481089782518,-0.0042206847053851285,1.84
-0.12618539379397561,-0.0583483455791895,9.829827208975509,-0.003706565964460845,0.011682118722168008,0.009102630157937731,1.85
0.1519578595192826,0.10915642481322381,9.822906338800122,0.0187670282241833,0.023808946165332582,0.0003880403785129867,1.86
0.103761255560465,-0.06996009106260002,9.812471561247715,0.013094301935914928,0.00218897971184874,0.00031441590072341276,1.87
-0.03186713945233246,-0.021269099308968184,9.855455889669502,-0.011133143206005693,0.00445286901485811,-0.008558332495206707,1.8800000000000001
0.1943795803906593,0.06424338005260431,9.843012780512694,0.007447845253247919,-0.005137069936843398,0.02444267282823036,1.8900000000000001
-0.1348435402002199,0.17488743491148462,9.66557898133659,-0.0032685635783302413,-0.01269089340249512,0.027514393906001206,1.9000000000000001
-0.05919031106864895,0.015455207772152584,9.830746236869803,-0.004292722477995926,0.005976421097061666,0.010815255958386925,1.9100000000000001
0.01480158316433173,-0.21888849496994345,9.602607394604174,0.014462909724302218,0.0019475573730592618,-0.0031614274816100796,1.92
-0.066355722441429,0.15116700967413224,9.83663312285395,-4.338311994614427e-06,-0.00966152348725463,0.009534359869109773,1.93
-0.13664353104647994,0.17249046248994568,9.831528792101327,-0.015932220973517076,0.009284260753175193,0.0062282880294125195,1.94
0.18375002979138266,0.07326501671754752,10.095690739693127,-0.012263014445145997,-0.006593595790855274,0.0012669166921102858,1.95
-0.09017324617049516,-0.05535049673703262,9.760437008989472,-0.011247131091579501,-0.011568750535815272,0.011054347882644288,1.96
-0.12355159254940812,0.022290326495630598,9.824425675988794,-0.0006824223730515706,0.011669091312919863,0.01203117657371564,1.97
-0.08324729483322829,-0.11966850737576062,9.805068135858386,-0.01437771752855407,0.010797291628539651,0.009613866862501666,1.98
-0.022972039431413585,-0.1715212826544697,9.84931067776051,-0.015722415598132443,-0.003474113009788562,-0.011988913967086215,1.99
-0.10094914067857015,0.0679008462154784,9.831190384975804,-0.0068726975973527026,-0.0045293477838629,-0.009693900856926283,2.0
-0.12296212353587069,0.025861018406651306,9.908885615988526,0.018267185227320137,0.011611341245101,0.0013767994628354997,2.0100000000000002
-0.07588121462676364,0.0680583305065667,9.729237589481533,0.0034650993270554237,-0.008898640903795952,-0.007131731886563752,2.02
0.0077298707432199775,0.0921565260307024,9.737624322742512,0.003478962418744606,0.010215268129327751,0.02246691374089385,2.0300000000000002
-0.10867175609597268,-0.019271527621265435,9.73410478775124,-0.004499238102771224,0.007998829053114238,-0.015950669230400713,2.04
0.09296634137408138,-0.094829593339982,9.537647371600677,0.004534389638915417,0.014256757867796059,0.0011483330700474408,2.05
0.053766097222943315,0.051316502024056736,9.648067534556812,0.004120819179603673,0.003503690826704343,-0.0014035817503321693,2.06
-0.04841996594457063,0.16440866809465807,9.806624720834652,-0.013296657557919199,0.00442785828924852,0.011625986611304557,2.07
-0.03277979200672753,0.023353157800212722,9.671889619230864,-0.014937748398283799,0.00021843673050682164,0.0003243566750346703,2.08
0.05792195979569793,-0.09455674314184777,9.759662035829702,-0.0001522549090976094,-0.006136074824648389,-0.005352256750022235,2.09
-0.008329155663353549,0.016951486752926143,9.780759617153592,0.005494265388942339,-0.01539317376891568,-0.005540462287147665,2.1
0.1991966958145833,-0.0659745828823865,9.772613895767682,-0.0021032642687927516,-0.001302189482532887,0.013502339310242688,2.11
-0.005689654235347376,-0.008888585409457583,9.751377120111188,-0.0016689619344531625,0.002045303847841854,-0.0078081262673363695,2.12
0.015204067415769632,0.13059040034039998,9.833309716164779,-0.005643724468502191,0.004481599382323387,0.017554351574146528,2.13
-0.04864461090019888,-0.15976568620346465,9.802822238969698,0.0008382365075664455,-0.0004187656398036203,-0.0012125486139815623,2.14
0.014090571181073451,-0.00918512243404883,9.645913530340632,0.007877439125545279,-0.0009188241347473843,0.005456017594689194,2.15
-0.04917288321700635,0.11949761485338468,9.811819370606635,0.010905776631090203,-0.014943378335504416,0.0035778952544629227,2.16
0.03064648752663503,-0.02511140797657224,9.846941827017806,0.023373664704735113,-0.010995726713881873,-0.0021398885274114556,2.17
0.12411252890849928,-0.03828844586361997,9.831566767814017,0.005556006188018925,-0.007020518547737625,0.013404816383096199,2.18
-0.021038009648747146,-0.11537438119187085,9.908601054770587,-0.006151082645089551,0.007689559427739555,0.008003791684833618,2.19
-0.01949124027479916,-0.07825515977656122,9.646234271313059,0.007916104943507132,0.00996692393900715,-0.0010667329867194788,2.2
0.16872716418183942,-0.05779210051189021,9.74500040397254,-0.004860636451773463,-0.0004317038137510932,0.01763724676456234,2.21
0.16253579951170782,0.15725105559035174,9.662440916400401,0.013838905646878983,0.01619744240449355,-0.02508607981896476,2.22
0.10623431848215151,-0.10016994150974384,9.695703504930636,0.015824868961316046,-0.005271779723070076,0.0006462571537148949,2.23
-0.044745814072463835,0.029398094885623494,9.812932526280946,0.019094225272610645,0.0048518723614618346,0.004146226195448266,2.24
0.17866757084219684,-0.022824830419004308,9.771995571463973,-0.004411280793697273,0.009444719884385446,0.001476281277416166,2.25
-0.0499137350974812,0.011455116574173715,9.80499397345261,0.024801126619153534,0.0008121621243188468,-0.0026276522573493943,2.2600000000000002
0.04548122072844052,0.010060864587342839,9.847785842238695,0.0031136114666822784,0.0051674520226005615,-0.008293148640359236,2.27
-0.06502296318204034,-0.03881930269898131,9.987521278344238,0.0014168306982473631,0.0018988185769917396,0.017132513026564752,2.2800000000000002
-0.0826759292939055,0.0847501143544564,9.949428828517396,0.0071896214306699695,-0.011221098117811168,-0.0034914283128395698,2.29
0.1058971751106356,-0.020829988095700473,9.727216684499432,0.007858962353187697,0.02133868102690994,-0.0064764051673495,2.3000000000000003
-0.029229337430573724,0.10621542926047262,9.59534764919401,0.0037864505264266707,-0.001578851463470771,-0.023916092475419874,2.31
-0.03377911151412665,0.20796724589397725,9.925080645495186,0.004694149279138369,0.002259234176864764,0.0030938419051474053,2.32
0.12037598723131804,-0.09507003071081943,9.938233574570736,-0.00838031987562098,0.0076602262153437515,0.005296477630879467,2.33
-0.04100059621198984,-0.1113289148862286,9.735214167551346,-0.00024290889658555107,-0.013153767381354844,0.0023177661411923943,2.34
0.03607330030672043,0.10867034552898702,9.73441194236156,-0.011792397557092375,-0.003277400736132653,-0.00196498209099311,2.35
0.08418850389934224,-0.004675085497977229,9.899491863843982,-0.007850198068883483,9.51509470787525e-05,-0.0072337722869995616,2.36
0.13250923283377078,0.005922367899111776,9.698658485929759,0.01321752752618372,-0.005989732067121606,0.022100796375484632,2.37
0.06220641211355358,-0.05958697148438046,9.88735125704413,0.004656916118819648,0.009736689943517968,-0.002392178264903655,2.38
-0.16286742991159378,-0.0395438976896387,9.855685121338164,0.010690194856369998,-0.013078835295595878,0.0011348908365141801,2.39
-0.05148117602978422,-0.06619943117652088,9.844290438492404,0.01582720732543155,0.011567033000540919,0.01228359172611221,2.4
0.11159391399591947,0.05907093592084485,9.760582862863975,-0.010441024147915338,0.005884996901147176,0.004722961033300026,2.41
-0.1702946534627831,-0.006185846525357493,9.777275537382085,-0.008687905986036824,0.0036141115159065047,-0.003446654668105175,2.42
-0.01042713725247343,-0.06312406988736463,9.814730192494041,0.010009976141241592,0.0028154351693550433,-0.011982904432845387,2.43
-0.047572516193411685,-0.07317050492677006,9.92679811380656,-0.019752432028590474,0.014019035627082824,0.004778572945734037,2.44
-0.15699639453732822,-0.06486110607447375,9.835687980131096,0.012079050320679626,0.004684565632442656,-0.008074226096843282,2.45
-0.0968450044176195,0.09363843722088794,10.041778906259458,-0.02151266757697016,-0.005974804723896459,0.010535832798514458,2.46
0.17148980152717516,0.05346878068145669,9.674331369351735,0.0031643720821456214,0.01556690674366986,0.011004934594051583,2.47
0.1406281760077482,0.0284575516651164,9.724660694611721,0.01676968378868316,-0.00022213468514136757,0.003476792689722386,2.48
-0.06770123168938462,-0.10638868755781766,9.78076072576668,-0.007085052250259495,0.008504951391900016,0.01781709084995773,2.49
-0.02567621298949277,0.02540354751268672,9.527247824748562,-0.00454228733185972,-0.013537478530017893,0.018542981058751285,2.5
0.14481376134902288,-0.25046770491866666,9.832311999300043,0.00848841865744344,0.004597761798426848,-0.01662319022765866,2.5100000000000002
-0.033386685811236334,-0.07105991917339001,9.873650101135407,-0.007739062398330145,0.01564424065433045,-0.0024903135553875576,2.52
-0.057580460004133964,0.07080159977920174,9.736067979647443,0.01077646189956139,0.010496008845085357,-0.009460552774709918,2.5300000000000002
0.021394935411539688,0.03617642757694,9.68583335242008,-0.023951063976547792,0.01586438331491204,0.0005074030827005,2.54
-0.18401515518978911,-0.24829398724512097,9.81603933810432,0.001079828497601086,-0.0002555715466346982,-4.6400885495765115e-05,2.5500000000000003
-0.0928721580235838,0.028814328014252405,9.784811438530546,0.0038233821543492393,-0.008429968298291204,-0.021717760763985905,2.56
-0.04760510754885606,-0.06315839346482333,9.92192676534241,-0.006098767896715952,0.0010427233371841287,0.010824734081745073,2.57
0.056308780436289285,0.00574345316760263,9.79944377505185,-0.0038895131035712014,0.0038014418927970377,-0.009770637971533694,2.58
-0.002880665223118273,0.15162856949032996,9.762007438744279,0.017148948603861004,-0.005457729011409077,-0.016291826532695196,2.59
0.0687401001441359,-0.08322976024723577,9.777866928242146,-0.006460359992254837,-0.017290370793165737,-0.004025674012495404,2.6
0.1103973540273636,0.08480546765893594,9.782863672261389,0.006594327869921553,-0.003584377048258019,0.0014192067863958591,2.61
-0.004334587973901992,0.08119591660243917,9.844347792547364,-0.007842424230996056,-0.0019957431047983366,-0.012192091942483461,2.62
0.147158685751708,-0.03360515958760238,9.738545946174135,0.02170040956130495,0.0002180591690897956,0.00026102763946923456,2.63
-0.11073618597052798,0.014136094646549788,9.864779065327744,-0.0052657226533572524,-0.00045658791192063243,0.004101491990518089,2.64
-0.060101474421452916,0.08213537225600744,9.848237011834543,0.003817909347051956,-0.0005473024256163927,0.0032303645934867236,2.65
0.007256629495404567,-0.037185202167482174,9.76086272800696,-0.0038026891379285173,0.014390110494427467,-0.00767573977030058,2.66
-0.0720604537089503,0.0038070823655023847,9.77173153544375,0.012240101909501961,0.00446453565226185,-0.0186440479037291,2.67
-0.016650095186506952,0.32022565430934224,9.876475181689809,-0.007666811249637354,-0.0014927810755971434,0.012810513020546407,2.68
-0.13085994471791937,0.06554484715804991,9.733383054897047,0.025641745254185295,0.0167205906734491,0.004353759492385984,2.69
0.08163676546992495,-0.05706735260119105,9.951677882578108,0.007532847976342872,0.0072814468146170435,0.003385089673991235,2.7
0.003641656625841736,-0.11060344892511893,9.975706471049959,0.007846623301693879,0.009361718571708233,-0.006714389488885559,2.71
0.22655745840551225,0.13623840155699726,9.806344236860296,-0.0021688732413694396,0.00023739551897248613,0.004837428301835385,2.72
0.05555100520052392,0.12919571494676832,9.65895764824191,0.017170816660319756,-0.0010876467197145552,0.0031289499621539488,2.73
-0.07880149229735316,0.01656828057107733,9.81880776871151,-0.013845791272399929,0.012618349641806186,0.002949332598452934,2.74
0.1617020966296806,-0.1238275585082163,9.671472129893214,0.004370808466820095,-0.01721268788830075,-0.010688158281317231,2.75
-0.022932447239095724,0.016301802562220784,9.840545378971504,0.015986325045983116,0.011654063306528113,0.0046285192033641825,2.7600000000000002
0.00615780926024593,0.03937496542825261,9.815916592202877,-0.0002672239345783361,-0.015985867256820826,0.005789559099645506,2.77
-0.11430138754935658,-0.15605330746117774,9.884340089224068,-0.010022354830039637,-0.015844661896401102,-0.000776532673695863,2.7800000000000002
0.02008500767557318,-0.019554715034734535,9.687818798886726,-0.011995356020897874,-0.001028311543829057,-0.0046110796762018885,2.79
0.07701253341038837,-0.030304393023039413,9.768643123592904,-0.00481230542246753,0.00799944578091753,0.00026186686702383156,2.8000000000000003
-0.015737872039072422,-0.08139621661718424,10.00744523637828,0.0034179260180916223,-0.027657927985338202,0.017816112260287936,2.81
-0.07843386611595356,-0.03634053097478167,9.781091350258102,-0.0025088478394719132,0.004203386639953122,-0.014568177675926082,2.82
-0.11161952904427735,-0.09785931913040824,9.802110992515765,0.010372490782793616,0.009134365636039816,-0.0013511121522331335,2.83
0.044144989223403125,-0.07343277161102124,9.898425779820604,0.001200009482786039,0.0027964059741119097,-0.005405147600212746,2.84
0.042194585183139975,0.04165318065266832,9.777765357939069,-0.0021099193496241205,-0.005184949645515235,-0.01180379677463357,2.85
-0.03742793799130755,-0.1283831611648226,9.874591526143208,-0.0033872344781569644,-0.006048375782677827,0.003236840698465564,2.86
-0.0909751894707902,-0.02824215161824616,9.960316994163266,0.0075274062592648305,-0.01227907949750265,0.004445501140057317,2.87
-0.013967333149042646,-0.004203487402622499,9.81407995992333,-0.0034671656447392354,-0.005020939113364856,0.006498837674074244,2.88
0.023343378469390292,-0.0068600806389195875,9.919373111513838,0.002601300370796656,-0.00554890538646333,-0.0031470173756034648,2.89
-0.06852248118248011,-0.013737853273963997,9.709582130845233,-0.002007395425594024,0.007458778441439769,-0.00867648021669421,2.9
0.04643574757421681,0.046542131624046856,9.833862374164385,-0.002055536472192182,-0.003120350983516258,0.010173394696212206,2.91
0.05433776735082507,0.17952628038394,9.81297567357474,-0.006085166380087059,-0.0037200538583118713,-0.005715400002518297,2.92
0.16336715415750724,-0.07196988027935557,9.68524481546248,-0.010468702833753729,0.012965822954988415,-0.005799514861851003,2.93
-0.11755880510929158,-0.07562025250390061,9.97527482947245,-0.010816849704166574,-6.971714028096874e-06,0.010180872541997073,2.94
0.07424497681197272,-0.04712873186515137,9.70943331646969,0.007795790742329542,-0.0035749769639010433,0.004810365673832637,2.95
-0.028422658753580965,0.034252278072903146,9.717317857411496,0.0023512921752196097,0.00019501387666525649,-0.006838687344830098,2.96
0.06430195294715323,-0.14682294807866894,9.617420479215541,0.01765117796563635,-0.022201229049316512,0.00017758808240519384,2.97
0.048997646389145645,-0.059565899223253074,9.917085223715866,-0.00787045607993681,0.0018038431203291976,-0.011589554674021715,2.98
0.09422498903288118,0.05765054415447022,9.778003290294187,-0.00016241436384789771,-0.0008257770080476714,0.0014966847615190818,2.99
-0.2861340795120889,-0.022883717105417173,9.850458035912535,-0.009769634352124388,0.007121196021666946,0.005161708339391168,3.0
0.046025068322019164,0.16496012984258124,9.780179270466771,-0.004788689114705106,0.007896616713471007,0.00550729561593423,3.0100000000000002
0.031551274724185945,0.10241011235522379,9.744604700067526,-0.011892530529319363,-0.01679700276805684,-0.001807722095530571,3.02
-0.02424049993351374,-0.0348388849757539,9.91014324681597,0.013652349593964438,0.00943434503581011,-0.0015203297127392556,3.0300000000000002
0.08226355218205281,-0.008183676951981215,9.797374458891774,-0.010514549568951764,-0.01544754662498465,-0.007176684486985068,3.04
-0.07440626955636281,0.08281035687103216,9.83169209351877,-0.010022707649114438,0.013042212335576904,0.0221501196314549,3.0500000000000003
0.00502630057920317,0.06223389365843948,9.957968538945131,-0.0021076059768172298,-0.011646945836600258,-0.003199319219736441,3.06
0.050883833064281826,0.18150890231944927,9.578866837039257,-0.017609399310776173,0.006251164950283378,-0.005169450172026808,3.0700000000000003
0.18994847509609566,0.03896990827024244,9.8534294734482,0.00579523174053593,0.001313858858602414,-0.013090831250135628,3.08
-0.13576339255796172,0.036594216970917616,9.920902778632376,0.007214986385408349,0.007926528687296134,-0.013172719916368241,3.09
0.13543804194987918,-0.06911923989244724,9.832125764232037,0.010627056257945975,-0.006629825657598881,0.0014511577669258677,3.1
-0.013316593454802867,0.09537181939282234,9.694132453842066,0.00042369501790925717,0.0011493554754090439,-0.0021838062562179045,3.11
-0.03854583424475569,0.034847037603223024,9.690933496161824,-0.00278543944683477,-0.00967162088636724,0.0004286394245093676,3.12
0.01725543474642486,0.2311039470009274,9.609805573280711,0.012839096711414045,0.007944335514172046,0.020595493449606487,3.13
0.10348961159165884,-0.15918219472838388,9.834423887183457,-0.007074282208682239,0.01479561616784173,0.0014561383030449984,3.14
-0.08854001598629992,-0.15715159862846273,9.705569757964703,-0.011790790187400646,0.019869969424721978,-0.0028882647691926794,3.15
-0.2159555445402356,0.01655954157676695,9.62065679338631,-0.009176584772823496,0.002411173312840237,-0.006599945599984483,3.16
0.05225356051843616,0.09501136725847256,9.695921181256569,0.0072487751327188765,0.02182691251468596,-0.005677255962251777,3.17
-0.029617363758093637,0.12704774193848573,9.939878245394537,-0.00343799450086565,0.01397265141928238,0.0035674017405028873,3.18
-0.013694210591383286,-0.05671025220025301,9.61651823406527,-0.007182974222655799,0.017369474403756142,-0.00802307391573535,3.19
-0.06475186541106225,0.007086851294446391,9.786262766440496,-0.01165150755388241,0.012200922128247995,0.009021896199026503,3.2
0.004875619353603717,-0.012485830577201436,9.753684637795367,-0.0018333924465642427,-0.0017918550251142407,-0.00109341884444493,3.21
-0.003504797972432923,0.13704953040054219,9.787314054559424,-0.0007509879025260897,0.001840928651942451,-0.00505400307987693,3.22
0.021019325173655578,0.05058428850441019,9.817200526673389,-0.008106945652757533,0.012524663789433262,-0.005256298224891969,3.23
-0.07314568728131098,-0.1365581862953917,10.033701321112249,-0.005817132936806312,0.0022893028380547333,-0.004594803140130436,3.24
0.03288640907470385,0.12312266977950732,9.81516780691417,0.0072425895137284944,0.0021053319486090357,0.005366930497641175,3.25
0.032987669589000575,0.15054489930771134,9.627898867809801,0.004373438946365448,0.0020997230134367955,-0.001966116994674207,3.2600000000000002
0.0008654711990204143,-0.04594631713187772,9.893264518762743,-0.021077023745218585,0.009295457937221282,0.010821949932493887,3.27
-0.13234059932697284,-0.1462049720231847,9.822185396610653,-0.01654873188191023,0.008156284979479431,0.0062454953844850595,3.2800000000000002
0.12757155760239716,0.10297446188229183,9.869607906902099,0.010754990547465744,0.006738357655905632,0.020401248037841994,3.29
-0.06203181176578895,-0.04992808311018904,9.746515990782449,-0.011395645404169553,0.0015817870438667584,0.007393008329055657,3.3000000000000003
0.004542265817844805,-0.06180046747794707,10.038578758910946,-0.01428386379489733,0.0032003986177396027,-0.0041209597791133385,3.31
0.08416188622147927,-0.051297903373279274,9.826725323428933,0.0016647753058577231,0.0023010589187727965,0.0017664179234805095,3.3200000000000003
-0.03067135307575307,0.05921215432364542,9.828355819421956,0.0044590323749562,0.005316991859223686,0.010418054990529422,3.33
-0.08931777487281345,0.003444463781714744,9.813593934126033,0.02366856959097331,-0.009295850411820673,-0.012305252485205084,3.34
0.24782754470165594,-0.12775453803521308,9.81943719653588,-0.023202167734741354,-0.015707362279028345,-0.0029609783435445105,3.35
0.12799154500444748,0.021672278802664896,9.855370144406695,0.014404323587933626,-0.007127964626398094,-0.005211165439684232,3.36
-0.19981881510084834,-0.2179804276632089,9.811159685258572,-0.020582275293894527,-0.00538833622550902,-0.004166909360383942,3.37
0.001047928317058684,0.009372577835841748,9.727150218946141,-0.002753063995616298,0.003146921129194809,-0.003902250733637173,3.38
-0.037326491726802045,-0.04917963291356427,9.931236827674784,-0.00821336540082457,-0.01342717260970411,0.002460012616186674,3.39
0.008087885210540564,0.07720581604077215,9.892737681773465,0.0017385197415980028,-0.004181820115039618,0.018536441709736347,3.4
0.048670264915506474,-0.03517664671384445,9.736903046830733,-6.282265625966622e-06,0.011998830269494061,-0.005836368277598792,3.41
0.06747857108532938,-0.10371655344327167,9.907610411938808,0.017429941469715802,0.0041808884427352,-0.007145110559581423,3.42
-0.07118443485140893,0.010501075051848979,9.798243911625955,0.00020709997611113339,-0.004102151833801325,0.011685448257029172,3.43
-0.08506758106259876,0.01210523718048892,9.812091684361496,0.006321369479331531,0.0029120006343866557,0.018933287521937257,3.44
-0.08241139793196083,0.13997160774988657,9.879877032731708,0.003985042438893818,0.0014770313894016444,-0.0005870108041441559,3.45
0.11717439124413837,-0.11198662973480532,9.727246616153776,-0.01112282085890914,0.013967136981898701,-0.0027711555830386768,3.46
0.07111315928983639,0.1814737077773402,9.680160617434836,-0.010149883770649815,0.012565421843352574,-0.0038346072835586963,3.47
0.03761764631400607,0.0073708190905209525,9.879085004899707,-0.0021933048534320235,-0.021690474111326703,-0.013399429491018118,3.48
0.041418881273624995,0.11571494631299183,9.767134068905841,-0.006977757064583762,-0.0003311632924244117,-0.005293686912216194,3.49
-0.09812487125033628,0.08472850716963813,9.836492030904372,0.011418702320344695,0.007417436976670981,0.0066045905392292095,3.5
0.11658757843223928,0.03300079982609504,9.82884517908827,0.019783192299916836,0.005677093531287857,0.002820820932590542,3.5100000000000002
0.1704467319291646,0.13941976506605505,9.856781182024756,-0.014419068600779166,0.0012778857262554922,-0.005774898270379644,3.52
0.05750197872017754,-0.15808654632419575,10.041291251081452,-0.019044350105260538,-0.019317309716793046,0.00020399654375077966,3.5300000000000002
-0.21043007972525626,-0.04878547065006542,9.787605540267567,0.013843110180075622,-0.008393240400106741,-0.0036167507934678706,3.54
-0.1421981068474683,-0.006232055199094645,9.835174071363863,0.007321792448274116,-0.0013106477841473827,-0.012734000195231724,3.5500000000000003
0.022534610405091908,0.052256446363517894,9.858765068612662,0.003933395831697521,0.0008047770307990497,-0.017273952872633648,3.56
0.0843525389824682,-0.15668964906079708,9.800537232013802,-0.007740381378863711,0.012505633378106635,-0.014970936706144217,3.5700000000000003
0.0057473340782363365,-0.10457011817234972,9.761457779540697,0.008164114025541602,0.014703220761241195,0.0004027194278418793,3.58
0.011305231625582689,-0.10901371071445165,9.672556168534957,-0.00020091561737291586,-0.008380992438768052,0.00998894175122082,3.59
0.08369976791676743,-0.05884920379813105,9.684787847157681,-0.004400803713714112,-0.0006915542155872955,0.007429936065111804,3.6
-0.0423617407377241,0.0907383996425067,9.853136887796166,0.014050471348821899,0.003824428270001909,0.020525278295683683,3.61
0.009470463763527538,0.06234748957627262,9.71082782700954,0.013936833602080185,0.02629681499088839,-0.004338983128943258,3.62
-0.06815441615646405,-0.10508956146018547,9.875554343072231,-0.015117482326290961,-0.009010236513917738,0.019238787385213247,3.63
-0.07135002557523042,0.10120363224520368,9.706287416562567,-0.006970025231886744,-0.0016546093301751223,-0.00513122344541735,3.64
0.18185308168891437,0.11668084120409568,9.966280797826311,-0.0026413967890876367,0.016505653218541808,0.003310219364914129,3.65
-0.04845964768702174,0.043316097995886774,9.805669850941426,0.010954257923924042,-0.011208233166377915,0.003817447909932668,3.66
0.09954482075310721,-0.00016186159212416514,9.75429328210562,-0.0014942286566904613,0.011699507547501613,-0.015887943632889298,3.67
0.004854422707406867,-0.04755544017986313,9.774840028912006,0.001375416763734579,0.012580254192224263,-0.009697804676353273,3.68
0.004622982140030658,0.03713818131496605,9.691445121281717,0.00284737828970151,0.0024414067876126857,-0.01684857129589544,3.69
0.035638917936787994,0.11146754181874025,9.816361808079979,-0.011841608723089224,0.001839094882106406,0.0014797303710659842,3.7
0.14519727428466644,0.010048543266239012,9.763343379167708,-0.008041548291553752,0.007042582632421943,0.0072061007949122185,3.71
-0.002307807984212827,-0.10489727122577873,9.839513731457163,0.004042112654857803,0.00634423031049815,0.006552531327886284,3.72
-0.0026529323320085545,0.0012828950418227578,9.681404735879076,-0.003137574430323226,-0.012795423350005487,-0.0020371624593335095,3.73
0.008593237188331415,0.05999893285723379,9.782002485187405,-0.006377160418897575,0.018682164294969685,-0.0020028180977465413,3.74
0.04853907848582944,-0.01966172024647512,9.71662495079655,0.001620570302140449,0.003945754976364307,-0.003677374522422154,3.75
0.08836021747219966,-0.053999063906810085,9.702982905784749,0.004967834169661355,0.006889202646141409,-0.013490266951380564,3.7600000000000002
0.07183208417091756,-0.11293940944716029,9.678957040434849,0.0016592132549072477,-0.0005113816606363137,0.0031809057212072423,3.77
-0.14555559353952605,-0.02928029080112258,9.89168934057574,0.004730484756331915,-0.006611996507236266,0.015447789623621566,3.7800000000000002
0.16996513194670976,0.17792320218489904,9.769972328260478,-0.007557898674328263,-0.009114701091105876,0.005276385032053952,3.79
0.059027604074947164,0.06930764384366365,9.964157441804897,-0.00790530233794741,0.002376371360912568,0.022624447248070684,3.8000000000000003
-0.2130719323910929,0.02419006949712058,9.82227907073627,-0.010769254638784533,-0.013069772347517905,-0.018051997380544808,3.81
0.12164498514952637,-0.09179538993144164,9.852638845830322,0.0025147526746425565,-0.018262412859609375,-0.0037641838576574333,3.8200000000000003
0.03404288522016838,0.020074679438096977,9.900903454375722,0.018924628392048386,0.011455546620735833,-0.00046004047780810243,3.83
0.08213033033309604,-0.18467407591232748,9.73296272435884,-0.020149902831141955,-0.0011947538886914123,-0.0038435267086953974,3.84
-0.15189981782903134,0.07794187388227312,9.775548656205734,-0.007855587190133377,-0.00388740898795939,0.007561980074798274,3.85
0.038514120532351426,-0.18256969301675363,9.748448588691442,0.013887543625968078,0.002877039070019794,-0.003064010565719248,3.86
-0.08472582568206447,-0.04698517992625137,9.856296435328753,0.015736815829604234,-0.02017799962430795,0.006887571474703411,3.87
-0.008675586454405176,0.010713920282544082,9.751258944273337,-0.03161331194786214,0.0017207910853078313,-0.013633660634195015,3.88
0.0072542323906137594,-0.10167316610239302,9.66554715646588,0.002606900959396912,-0.0001258388951186176,-0.010244086296863296,3.89
0.04112817663386036,0.011937936749037455,9.78042722646762,-0.0033410657102733755,-0.013626825110392059,-0.006376551487124227,3.9
0.03880486998437394,-0.008471914629103397,9.856879563611065,0.005614965879028312,0.0019088134701625858,-0.002316521771270324,3.91
-0.10257093460154319,0.0792405165662678,9.832135937856808,-0.020429185476525353,-0.012759276455771535,-0.007194904516034193,3.92
-0.1384904062476991,0.10046495196865089,9.780432049912797,0.0017434322311845197,-0.019941972691187655,0.010113243003675594,3.93
-0.1490223517992897,0.03433424999574875,9.820799739735,0.008926872764349206,2.9534370783876034e-05,0.01546332942062475,3.94
0.11403719005337117,0.033347460085940354,9.820175563714171,-0.0026930634668159478,-0.009173710592413472,-0.017164368990226327,3.95
0.06977924604700829,-0.02719885458137127,9.749771709310343,-0.02147086143353934,0.010948378856873527,0.02999922209062025,3.96
-0.11522202688619454,-0.222993201456086,9.760161058403053,-0.0021167733374425576,0.0008894170709706013,-0.02010537451264949,3.97
-0.1284858259217484,0.17645588887060448,9.892404469128655,0.006468871555446343,-0.002547878848098229,0.004326379681460327,3.98
0.10516795545904044,0.1266719113271691,9.774040682503893,-0.008100722250548538,-0.007987357669348124,0.013788350552474618,3.99
0.14559821322296906,-0.05365899604442216,9.859545845915768,0.008130564110920783,-0.0025718709529457357,0.00886503786986676,4.0
-0.03496395662814028,-0.06847703337216948,9.865333950932035,0.003933261548572432,0.01168964695814254,0.012390437280381939,4.01
0.14964596646985234,0.05668772106945084,9.760128846450197,0.009387210438210843,-0.01101620085895293,0.006257313081499017,4.0200000000000005
0.03540653087640693,0.04655395891949564,9.818131136031095,0.009329463001421961,0.0011126340317986194,-0.02559502890028064,4.03
-0.08103623600009913,0.0278504897610973,9.880704298510857,0.002138837005866449,0.015368802789387502,-0.0035801160774412456,4.04
-0.023664177081936105,-0.09807510086708075,9.76541277612257,-0.008045517942770607,0.005067340334689735,-0.0009788627004908308,4.05
0.09747085385423919,0.15839196126884778,9.891768285698856,-0.015293156011962072,0.010741608243188459,-0.02076985165080843,4.0600000000000005
-0.17115118325321024,-0.042581481471130084,9.580962699809556,-0.009597856271607303,0.010471268437155927,0.011506694174694097,4.07
0.09431462386331702,-0.215244151230502,9.910132338093028,0.010981204238350395,0.015623282418488267,-0.0009851744837676187,4.08
0.08614464249011054,0.07210085656635115,10.023049339045814,0.0188174852624663,0.003532940204727776,0.012612391767293599,4.09
0.009230646079252,0.08638003807025171,9.856871264519746,-0.010321646180375956,0.012229593123054876,0.012567655738702242,4.1
-0.13194594638222262,-0.04002214922910891,9.849942702085736,0.005350607366801124,0.015869778483450524,-0.01647769769026068,4.11
-0.06492852508968693,0.11375901946801348,9.962748016764564,-0.008475356941357821,0.006876908301172601,-0.009347331835234287,4.12
0.07089051494786175,-0.0864276584364403,9.931919266607022,0.004365953851444025,-0.00031774342750672923,-0.028366110794025862,4.13
-0.14833244768201195,0.13559286185321057,9.760455582139365,-0.001993190772014064,0.0011378182741413748,0.0006967067475954753,4.14
0.18385981473018145,-0.13298498924404586,9.912931593172774,0.0013807987143747585,0.008655953090813257,-0.010020165534062509,4.15
0.09984563136381966,0.004378948202063095,9.85688042999896,-0.0022727596153257245,-0.0026727736007447996,-0.003677955504054695,4.16
-0.10852865580324354,-0.02517403516888907,9.784229135001226,-0.010885813808006198,0.004485562871298241,-0.013151014463778523,4.17
0.06402314374398914,-0.008137641556330004,9.86714391176536,-0.005301145126325952,-0.003327267122005504,-0.005644988091513557,4.18
0.09498539429668731,-0.09528935879051026,9.82403113923043,-0.0012297478346594878,0.0024646692793981622,0.002890857172796115,4.19
0.0005152806978889863,0.027903869515749316,9.897432659982394,0.009924345060451721,-0.0043034705937671615,0.007598440115100532,4.2
0.07060856258641329,-0.08581672257410468,9.788637153054442,-0.011165013266194533,-0.01737429858206468,-0.009515748998743332,4.21
-0.07896293429273349,-0.08513078358680358,9.817848546396489,-0.007917559273078932,0.0006472834234775442,-0.0005571904742965389,4.22
0.11092260180338734,-0.16322986653775873,9.735258029620733,-0.006619241380126553,-0.0011048207348051207,-0.009489285894748204,4.23
0.13031906728517625,-0.11973213902545193,9.662470069644403,-0.006396545906425649,0.013938977260577393,0.006511830576483036,4.24
0.17671835887463516,0.01428304308878414,9.94060854966155,-0.017770904812211285,0.011216926922622111,-0.0029602008228792466,4.25
0.004172813832494407,0.04596895051678268,9.731004422111422,0.006243928070381287,0.01479873996875121,-0.005631800390892546,4.26
0.1519260207611043,-0.029204091425257424,9.765592209958323,0.005012930436273511,0.007266988080637444,-0.0022982164191809153,4.2700000000000005
-0.1251378004333053,-0.06388497762941157,9.859114891778509,-0.007426843741341151,-0.0015139847645192503,0.005162569294931941,4.28
0.11814913866245567,0.03796669035498698,9.866712507149632,0.0012693688547489967,0.004111807445891232,0.0011793381048416601,4.29
-0.1553684933433137,-0.03790347756562896,9.68818925287531,0.0043246358753671965,-0.00926726406626504,0.008317633382265108,4.3
0.0638962582872896,0.09090922317761184,9.867863918187856,0.006445175714419081,0.008338461215655629,0.0167418988019976,4.3100000000000005
-0.19564227244055196,0.05843541796792232,9.84720780232366,0.011528690820564506,0.007769132995385999,0.001864552594314047,4.32
-0.08857734240419025,0.03302234938930648,10.012561165905334,-0.01756123952664445,-0.003438666558289854,0.005485397386111291,4.33
0.02370343964188612,0.0339646452857475,9.72331419193276,0.016741164132270624,-0.009246690950635907,-0.0004638660242882108,4.34
-0.044041364998243016,-0.1235704499052307,9.76761082914703,-0.0033755742211255537,-0.018074745014557806,-0.0050637766424004435,4.3500000000000005
0.11756677231496965,0.039525758842594697,9.905525240252151,0.004932402186562967,0.01198974171430431,0.006767057001679406,4.36
0.24333260062643822,0.02755235441778523,9.916398733939038,-0.012968002692099575,0.0031289789488637373,-0.0005448499036630831,4.37
-0.1656838003718014,0.14515292818694892,9.92751368055155,0.0033924475738746898,-0.005373840284478553,0.006572385591415736,4.38
-0.0006648780359062357,0.02681784180091535,9.788464007971019,-0.004194673264248214,-0.010524626063634126,0.01567157390573791,4.39
-0.07485541476421653,-0.08196835759935685,9.930415607308007,0.01680955544839113,0.01049302409891595,0.0011448632108097764,4.4
0.21952572655305325,0.0839785684371014,9.844939308868513,-0.006167025302434695,0.004523672630661837,-0.009796082977427446,4.41
-0.034887791231240285,-0.03706362316613799,9.69832887789112,0.0084538248695176,0.011362989873471898,0.00487909838912651,4.42
0.10793135316001366,-0.07454602333500308,9.746358073766446,0.0052612901714118665,-0.0076612423555542045,-0.008371036391170657,4.43
-0.21103005141162706,-0.03978502972417172,9.826015490554301,-0.0061202220104784166,-0.009547873776452487,-0.009719888820876134,4.44
0.08576707697072464,-0.21832601570736032,9.953961190970738,-0.0024365617974206706,-0.0092468961933837,-0.005629780718718443,4.45
-0.2500905068004588,-0.0010555861928860705,9.769151400630035,-7.964794404017746e-05,-0.01455993660504762,0.0017078816747974745,4.46
-0.23524754620134636,0.1596989942389317,9.805926910489427,0.0045423894351931,-0.008535824785600608,-0.008077090779365567,4.47
0.11027742529887169,0.09587079778581395,9.774678282147473,0.0018152076055434367,0.012560387222088312,0.001105226554868652,4.48
-0.06785100372116938,-0.00910599395666696,9.688350807561429,-0.008950830399554644,-0.01920899810459991,-0.010482701914216136,4.49
0.08055629279931624,-0.04280847668668886,9.920595281307337,-0.003194553514737368,-0.012469150497762425,0.00675476793802809,4.5
0.1263645756789837,-0.01170074785509119,9.619118741495065,0.009387080425547145,0.002931334883421779,-0.006044129127248515,4.51
0.08677439028009537,-0.13613312266487912,9.815411379193678,-0.0036002350930592264,0.006837986031430704,-0.011415170683827828,4.5200000000000005
0.0920383785717293,-0.167252683131884,9.890056213061316,9.473958039872224e-05,0.01367793566627469,-0.005586707349430223,4.53
-0.03934044579788409,0.0544183371072314,9.739460547131852,0.004925371664164731,-0.009138796584788346,-0.0030331157158966704,4.54
-0.08745772379607708,0.08576464249733916,9.722206116050138,-0.015156693436604272,9.36360119170898e-05,-0.006284861167533851,4.55
0.042894490692291815,-0.1154731188146304,9.805831436678888,0.011912195408797469,-0.006270331631344597,-0.006424659229484151,4.5600000000000005
0.03435298141335388,0.15191223910873275,9.90266025889252,-0.007953634693147159,-0.01418043314404782,-0.004715055380458057,4.57
-0.1855253504693864,-0.06485026096816189,10.14105307776652,0.00027038883529517346,-0.0019584280714824,0.005422372555558941,4.58
0.2622937624431299,-0.3013538966834548,10.00970200409923,-0.012652719197282187,-0.007482608523971308,0.004527512715374916,4.59
0.06915555277713134,0.03545793062932171,9.87227607502614,0.0022793454961392507,-0.0021944032504791497,-0.011072461322383877,4.6000000000000005
-0.1255840629215059,0.04678031582572553,9.725846927230306,4.120337894895165e-05,-5.9996249115817716e-05,-0.01989135693909933,4.61
0.02321026770918101,0.07483792026515046,9.655585684809207,-0.0018590169808902755,0.00419924328324037,-0.010463411467687181,4.62
0.1443691892610687,-0.090735913389745,9.75148487086761,0.011642524759818067,0.0005318010256513523,0.005153710969745004,4.63
0.08898318611011313,-0.0314741306870899,9.6905005132855,-0.0022530404018826413,0.006127006077207994,-0.003852485493735247,4.64
-0.06177712389906742,-0.014210374142865564,9.807972782300899,0.0028409790656608374,-0.0011023701929959713,-0.002101100683896905,4.65
0.12284160425031299,-0.0709274133033708,9.74193838958883,0.029235599973637776,-0.014064901495263227,0.0007946231617136387,4.66
0.16443562324415772,0.19962457079007045,9.693885727920103,-0.020249918587040453,-0.010470420954490023,-0.009026738691816005,4.67
0.02502801579905677,-0.042379370681010234,9.765011437604745,-0.0021616040628804115,-0.012908303763324724,0.007630751656181468,4.68
0.006588507476108664,0.053821815737073314,9.746997266460163,-0.002891805218329509,-0.011380643276188537,-0.007473733611000681,4.69
-0.0950756988637078,-0.1439005157194563,9.715390208644163,0.012089834644210935,-0.013490193725264697,0.018200366322530578,4.7
-0.0070279027267825325,0.014472656329402478,9.930355902285205,-0.01491368131339548,0.0035465726303933087,-0.016478613350636353,4.71
-0.08105909555345156,-0.047492484823030215,9.670128499654243,0.0075595935806933605,0.008251985023306051,0.01420919226321594,4.72
-0.07624188741556277,0.06440950505921117,9.751218466299004,0.0017269467831779925,-0.007708075548045957,-0.004716306792191079,4.73
0.07567902370220726,-0.004451717113913658,9.699393011224196,0.01641349241907023,-0.002340405155052599,0.005852190521075162,4.74
-0.0372412110837318,0.1267178228261496,9.733693162958918,0.010559322217684772,0.0014967682670009802,-0.023774299695628387,4.75
-0.16955099770991014,0.009423473931887359,9.787603285660037,0.0008627866869035218,0.01167836670981979,-0.015364124224831133,4.76
-0.12372996307470585,-0.018947066014823183,9.922151961294157,0.025227749489019496,0.0009496712502757958,-0.013652809217541638,4.7700000000000005
0.20831776568849336,0.06688670696371668,9.981476932309052,0.009210939661128539,0.008539991204117052,-0.0010756599529069385,4.78
0.04631249378994012,-0.004769771704198839,9.950727701505707,-0.003956405892951764,-0.013671877906887273,-0.00819957657846215,4.79
-0.021255616009664496,-0.039918966304653775,9.680609534522727,0.0005051249217152568,-0.005997841612276265,0.006023639936542741,4.8
-0.06815047389235039,0.0437024949110944,9.861935477620056,0.0013106144979736214,0.009638432788850675,0.01744114899343871,4.8100000000000005
0.016009735527596013,0.1627542732068664,9.80550687123531,0.019128030520699356,-0.0036137682846262495,-0.008070830531254394,4.82
0.05027577457942692,0.09908163109343048,9.702352616730732,-0.004122800667364978,0.012131366485536811,-0.0011887737393703618,4.83
0.1287600859503157,-0.032229696341041995,9.820600516785941,-0.004563758766213773,0.02253564551972466,0.0034463321305982747,4.84
-0.07324309472906264,0.14206834085483241,9.849438745132867,-0.008621589452017759,-0.004412006553965491,-0.012657184233168748,4.8500000000000005
0.07505707408912088,-0.023909436989398198,9.821151663608212,0.006160109703514965,0.005222452326560419,0.0063821946009771716,4.86
0.11305465436683973,0.1590988689288117,9.688550768400816,-0.005602062346447031,-0.014886473266979288,0.0010573601929464312,4.87
0.11989150796644349,0.05249278544276791,9.903719099071518,-0.0027743210463241344,-0.0011844553270521244,-0.0062394151085851755,4.88
-0.012325627988115784,0.09768054372381271,9.872270935356502,0.00025792930266862633,-0.0008576884263833915,0.0012369335941642928,4.89
-0.031253460299970066,0.0450742484515627,9.704979170853937,0.0003689775625922351,0.005865430049368396,0.0017372043628215254,4.9
-0.08274859286825331,0.06430094197240845,9.789038946607679,0.007037320326777008,0.0029264203299290605,-0.011661735778699413,4.91
-0.029164192749896276,-0.12088631651729718,9.713051289012316,-0.006350468510527244,0.0021473054604235053,0.012094062248571388,4.92
0.18716822879965242,0.0681034751894442,9.742454737090481,-0.01085978910212134,-0.002335220439605156,0.0018877030278779728,4.93
0.04286266039521622,-0.07480499348720095,9.570490518808183,-0.005753522593982165,0.0012837931375997492,0.0037995548271891125,4.94
0.003747715486309092,-0.041049802384412214,9.76875651181196,-0.004735140060152916,0.009450484424126887,-0.0016058600923850518,4.95
-0.12571852817913012,0.03346437526276795,9.829924580368655,-0.023200585438460944,0.020182789527886193,-0.0007947141355557219,4.96
-0.1007704761747392,0.10578466827189309,10.04394405499696,0.017392070550664718,-0.0009130292382734972,-0.014165355424317173,4.97
-0.05623453862594573,0.2214974909626588,9.725010481308153,-0.006000081317258071,0.004506605037323318,-0.01114593177879218,4.98
0.01454918108033125,0.11263841457008626,9.828236787619657,-0.006190741713481822,0.02232006454132939,-0.01129813380511125,4.99
0.043937556391458896,-0.05277246946154562,9.72138187841106,-0.007041096005298544,-0.001748867008980166,0.00516339063741613,5.0
0.032715363370326656,-0.02082980207145195,9.808535616285026,-0.0056738096915007145,0.009772314558541143,0.006548474883520736,5.01
0.20813380620973315,-0.020129543223265663,9.800886664897003,-0.0050857233905026505,0.009146665923828089,-0.020556833107687376,5.0200000000000005
-0.06317562963794991,-0.023030194928134642,9.932988780426873,-0.012693055942808345,-0.008240451079108028,0.004110469256801069,5.03
0.16361292519948792,-0.0015241266723894356,9.725879018200128,-0.0008007399664655322,0.0016094023441517646,0.005108350678281034,5.04
-0.15001286227038113,-0.08563476699245401,9.871322809029973,0.006465082848043772,0.022000022237494834,0.012233067223672471,5.05
-0.06498267695287761,-0.11029200836676314,9.965796815583525,0.0006832070182600547,-0.009403879543581236,0.01223393987865688,5.0600000000000005
-0.09982848004083499,0.14664844428762777,9.74876709459497,0.021036610599447565,-0.009596668736989137,-0.014864568616638088,5.07
-0.05269007227876509,-0.02055104551644091,9.697310755410063,0.00028638147841642024,-0.0069251710233203465,0.005005699718290769,5.08
-0.005454160470299372,-0.017635371975322844,9.882817036377451,-0.020557397565862258,0.011499206135218338,0.009871143249575505,5.09
-0.024417758021660636,0.18503575992934002,9.82377869009037,-0.00801274121559367,-0.016362447847356833,0.00974630185945395,5.1000000000000005
-0.09501845734271346,-0.04201960621959702,10.025039152285027,-0.004844156638012244,0.005300076145980065,-0.005997587717102796,5.11
-0.13515526850505274,-0.1420750357259329,10.001290628457303,-0.0032598019589616606,0.004634359663449402,0.010462455274784335,5.12
0.01482335777970281,-0.10249759155817705,9.83747826651196,0.016485989412915247,0.007987372060263419,-0.010883078050851145,5.13
0.004077731750424743,0.05222142590269157,9.768295013674622,0.012086625460936735,-0.006852170623136643,0.005461023257139912,5.14
-0.013399400603365232,-0.03611569509793731,9.732065012326922,0.001563309820462765,-0.013213023589195723,0.017709239828619053,5.15
-0.13674141851905455,-0.02713754258843819,9.617794239370282,-0.013586596895499119,0.011586085758566542,0.004153492389029357,5.16
-0.045865387217650856,0.28775363880688326,9.809668247780092,0.013614130231787275,-0.0006488496481346778,-0.0042256704767889095,5.17
-0.0022346227999794073,-0.11511816940032804,9.837842809266668,0.0024714703167125645,-0.0013146113114334728,0.001566944022159972,5.18
-0.16106076866626903,0.21698837691556389,9.948271831205332,0.006110253280900915,-0.00868119276381966,0.014985944211607618,5.19
-0.1290727327397672,-0.09568095769093865,9.988780373684392,-0.008722351948712143,-0.0007283948101599764,0.005074266082431719,5.2
-0.007291042281793926,0.049627023999982645,9.780597410601917,-0.004126014036242094,-0.009066940349872292,-0.00794962925219043,5.21
0.21484293832852283,0.1563067352682198,9.68968766421317,0.010963358121955143,0.0029696774063200314,0.0012124328455207342,5.22
0.057763666935890516,-0.009885832955621836,9.725281277447113,-0.004009683029888332,0.010753176827549565,0.008035620313089263,5.23
0.01734876094290281,0.04711765640568887,9.82049971442961,0.003211324476605175,-0.004175769745209765,-0.006536284679991466,5.24
-0.10084586117401893,-0.14886186754540393,9.878341436421325,-0.02013640691737922,0.0011198055693049664,6.840913269490428e-06,5.25
-0.005060628137689226,0.18802836668442438,9.87734542024813,-0.009254746301277933,-0.008929269110061876,0.0012413345952141436,5.26
0.07020175213266616,0.1396883307646216,9.774872735476297,0.014532873861287914,0.012173823605727017,-0.005266310354895788,5.2700000000000005
0.1493232832561717,0.10255041525876868,9.839200809053029,-0.006003263176780935,-0.0026774493014541253,0.0007862557698703875,5.28
0.09325831790693583,0.10498537933738428,9.704259177599974,-0.0010321308767690096,0.008615183059050194,-0.008873615782879436,5.29
0.06199369792432535,0.060598477360117725,9.681123323264245,-0.01450624406728701,0.00289534024129735,-0.012882356823418222,5.3
0.056503470888622245,-0.17177625458781454,9.874331327732488,0.0031717786035263306,0.014372583434278684,-0.02676366567643232,5.3100000000000005
-0.08490378869150894,-0.14223453267228486,9.63207934500093,-0.0026992968647582445,0.005884268986145269,0.0010802465681511153,5.32
0.14084103041428483,-0.02106332650033017,9.94825811527661,-0.002625495267115823,0.013500348284740622,0.0216931956466801,5.33
-0.008027347369342188,0.027576773745285228,9.757195428677058,-0.019834073767493427,-0.010880055047920613,-0.019328991858886074,5.34
-0.025025422613826898,0.13611541584583503,9.763086595939267,0.011615357125637478,-0.008128318627102114,-0.002577767426264328,5.3500000000000005
0.1207865158623399,-0.020228280739304175,9.724148423393885,0.003058058349842938,0.008807275203839822,-0.007415042979860379,5.36
0.2520601861972653,0.05717921672221045,9.939109736059091,0.004608034136077413,-0.00618415581912558,-0.017906130306167896,5.37
0.14496546345701034,0.0016477192631054903,9.70591626213817,-0.009152981919383674,0.010661124698803467,0.005434183733371582,5.38
-0.0035597129040743775,0.06512302868403272,9.871836023331147,-0.002652006864674858,0.009915556512493876,0.012391585814363032,5.39
-0.15171260257143554,0.1999739255970421,9.786281609645062,0.00929379228512433,-0.009746759853491962,0.003655234576853679,5.4
-0.04076406668641645,0.0727539392615031,9.864522630088112,-0.0007335829380404487,-0.001779503074994889,-0.002749762336755101,5.41
0.06822139110099087,0.028364323270829973,9.908497601572074,-0.0029361145849470726,-0.0027116713518744134,0.0022451186595560074,5.42
0.040117102594430375,0.09272256713223956,9.760575121539826,0.01606628681551852,0.008904959026692602,-0.005285522452228486,5.43
0.03087813969283117,-0.1521660582596969,9.7371777029876,0.010534600086733681,-0.008938934091035952,-0.0014920704779897245,5.44
0.049776901118781774,-0.077246480416793,9.690402042840859,-0.00018377919044391968,-0.01341459297227908,-0.02043115247248573,5.45
-0.042096120584678896,0.1916871671384458,9.752417492818918,0.002219047130316246,0.01022972442582483,0.0018579645260693553,5.46
-0.019698288613011705,0.16861063182355376,9.786678933792532,-0.0016979212080141127,-0.005005976883815435,0.007112468449731428,5.47
0.1266820121273725,0.05813044533569326,9.705431721149923,-0.008026311995371592,0.01798042701313934,-0.000524609192730277,5.48
0.010485284683576054,0.018611045490971534,9.743171102499721,0.003446066256546284,-0.007879648590798148,0.006374782063596341,5.49
-0.1252812736499513,-0.04154452836156638,9.773478926902774,-0.01878047666594774,-0.007470157621332885,0.008831048587507865,5.5
-0.019593040232451668,0.06422980467145935,9.78031535934473,0.011939185200216682,-0.0004205390415451538,0.016448076891777453,5.51
0.10576285248464179,-0.11745401877904918,9.776745334645087,0.004924877790317461,-0.007147844234910784,0.0005053665597032032,5.5200000000000005
0.08839270986599945,-0.0242187645673514,9.947081123797727,0.007160045667031462,-0.013521621800003259,-0.0025386552045205653,5.53
0.06686191053453111,0.07584090308919814,9.949659646423987,-0.0009231602951960811,0.002155380127268876,0.004235156267378886,5.54
-0.06599352170359322,0.03345866722834663,9.818162469390888,0.006580522257306046,0.010417900586828318,-0.011226441756043952,5.55
-0.01966154684442218,-0.11340099433184857,9.835047094233818,-0.015851538373370343,0.0025438145967377267,0.0029267056955889206,5.5600000000000005
0.1254221639215957,0.0007287593189094397,9.887634531791697,0.001996495947398316,-0.004677506728545284,-0.0028417798308696123,5.57
-0.2131783469390332,-0.05405588946855342,9.69893085322237,-0.01495133709743822,0.0016876884028549923,0.009876298784908947,5.58
0.06534818811710724,-0.12440274211330077,9.819984058164591,0.0021400522940198097,0.0005409910036883946,0.008523269224584618,5.59
-0.12487820431811791,0.09806063551426905,9.756406239579228,0.01615568002115627,0.0019851619127350655,0.017832916211122464,5.6000000000000005
-0.022646000854324524,-0.05529639728409014,9.661566348231563,-0.009166988274582167,-0.006145281494728247,-0.0037646311968866303,5.61
0.11574050463696597,0.049981398796602225,9.736919738962111,0.012362222125580982,0.005272527219036862,-0.009207224999255489,5.62
-0.06652729258622506,-0.04239540783546584,9.855170410555905,-0.0134496193375806,-0.006715878067518964,0.0038558152498355787,5.63
0.02877356287903493,-0.020675270299779207,9.747087776409888,-0.012286743309330208,0.0029505823220972506,0.002758034762598122,5.64
-0.0974251280544836,-0.02929745695784123,9.725839691441449,-0.0007403938502937703,0.006574932420858694,-0.007790373322912576,5.65
-0.07330720867778921,0.15686069363336963,9.829593814688327,-0.013148763456735369,-0.0013741771731462463,-0.005476467676274784,5.66
-0.05595309753624916,-0.023249436448096447,9.846696458365171,0.009081211701823327,0.008178203566527579,-0.0012355812067407173,5.67
0.04434418937172547,0.18142291374054983,9.881746970546766,0.0045337841454289925,0.0009887057563565476,-0.00017779723808846644,5.68
-0.05976026477007212,-0.007542079868860157,9.872359143103996,0.0011610266254731044,-0.007243535570898067,-0.01573450832400071,5.69
0.00329236654920419,-0.09386032654083819,9.69496433762775,-0.008459286112050405,0.002662137765082724,0.005016948617083287,5.7
-0.00030771958066784483,0.13373012984304986,9.741761387253192,0.0026357570221443474,0.010628942584943703,0.004171085844337694,5.71
-0.008833401821657925,0.03463277348778763,9.71563860434559,0.010643349116513158,0.0041351948926915795,0.007728772861692062,5.72
-0.01622276163299535,-0.11276431654347366,9.979431508495228,-0.005812127762990997,-0.005262891993709973,-0.008457641857383336,5.73
0.06326183948116211,-0.07468946348424468,10.002714406383605,-0.001537298805906315,-0.012542573547174656,0.0026974565969940753,5.74
0.14626477956972037,-0.013658219669904374,9.633646894120556,0.010883002359696137,-0.015069987499764997,0.0036390944809787224,5.75
-0.03490736013090782,0.10230749575431375,9.665489363016748,-0.00932868742265197,-0.0074432465942238625,-0.0011502623922458293,5.76
0.009110742000711892,0.04344339072087308,9.684102552805596,-0.007686976620681129,0.013066783078604927,-0.016030122489285,5.7700000000000005
-0.055107461255096496,0.03983085537530579,9.881306672489172,0.004064892489173109,-0.0040816893235025116,0.008744181786348112,5.78
0.058410603752559104,-0.06161297967197426,9.772549650094955,-0.011311233286616073,0.01403202533564109,-0.015482728032262576,5.79
0.111254890583925,-0.04099779262087663,9.868998083900925,-0.0078072828635259404,0.00920291623429846,-0.0011778813260091491,5.8
0.023351942856849606,0.024504798782855785,9.782146867100543,-0.012393818634981117,0.006294590284983339,-0.005100551042929074,5.8100000000000005
-0.0743986966780482,-0.1848894963589875,9.90418303264001,0.007681333397442078,0.002746993466717355,0.010437512129994633,5.82
-0.0739973458511972,0.0760322107223654,9.640798538760754,-0.005242255209187791,0.005359387314648237,-0.0027118172126192907,5.83
-0.03533503850883253,-0.008722034886666103,9.78218301383313,0.0022399560500402705,-0.010092842229671762,-0.01438928693612175,5.84
-0.047167172929810174,-0.16536874620965603,9.754030180312295,0.008052810944662042,-0.0023881531031878195,-0.02122271821542644,5.8500000000000005
-0.10171816255828854,-0.028372850022403563,9.868666952384736,-0.0022499949989741837,-0.0013806611400913784,-0.013355607214110013,5.86
-0.061843678916196035,0.09217412796867162,9.866531924483061,-0.018432419982904236,0.010826428194656066,0.001372539894419414,5.87
0.20352977728026547,-0.03707945254357742,9.677637371840554,0.005949710329218287,0.012193982778053327,-0.0016969845399492606,5.88
-0.13461610966943768,0.0481212138153011,9.90065332193759,-0.007000994656707664,0.008216762652570774,-0.020273883120121107,5.89
-0.08927267609792106,0.08574620452392756,9.810663065470155,-0.008924145208641779,0.0027175815917562796,0.003957199875109845,5.9
-0.04965174084750579,-0.05542675779089127,9.675833619475794,0.009732010117855558,-0.013384995128592796,0.004143418271279361,5.91
-0.07850111092114344,-0.012751718498082685,9.796738224448605,-0.024955086854356292,-0.014739825935596442,-0.007426452466005238,5.92
-0.08959357715063386,0.14912993688247517,10.036874111303357,-0.0054461675011454455,0.012102362515301932,-0.007488093523120223,5.93
-0.20093789883890556,-0.00859459609699053,9.75159456358172,-0.002157041704890148,0.00482986432380893,0.002492017417424066,5.94
0.06843548717036263,0.20642606982819223,9.935215475369443,-0.0008202111896320301,0.01756037068246055,0.0039041540329986103,5.95
-0.09277238223197465,-0.08933414260311932,9.73600861096372,0.0010286814557289316,-0.013995744729613267,0.0007226184994981692,5.96
0.0043774254384097554,-0.25259173469523655,9.740413094648094,0.0027115949066811806,-0.005617264877172476,0.02274968968990558,5.97
0.1202494840992602,-0.16924629449107031,9.79513493698768,-0.00040000562884432746,0.0059470835127921565,-0.013447685402485667,5.98
0.08393677919387596,-0.17313270189347124,9.543252087353265,0.011484310974931234,0.003486485176513535,0.01929460066486157,5.99
0.0023860528239134926,-0.031602074048594615,9.909412830028476,-0.008727931855580138,-0.005276076479032934,0.0048213527108065205,6.0
0.218518627109326,-0.21828849404535922,9.86500588920225,-0.0009758136072535656,-0.011611434364938791,-0.0005105434309138107,6.01
-0.14775067857477825,-0.06785588300985644,9.539942483633213,-0.0016703502387906983,0.0035083262717274235,0.01138461712952816,6.0200000000000005
0.2277862969973756,0.05679807159350461,10.012480100397035,-0.0030228425188987226,0.012498841647576576,0.0029774869523544883,6.03
0.12916696172216677,0.04134255285909616,9.823263487799792,-0.01470111031034737,0.003677155779783668,-0.00021711880014152883,6.04
-0.022772246976465085,0.15431342174257118,9.74205604892091,0.017134708060325722,4.2698676263568355e-05,0.002125459872488792,6.05
0.10285180899989,-0.09020075032523046,9.815769684347273,-0.0068050471041389265,-0.006901543698960856,0.0059560021208139744,6.0600000000000005
-0.006619176052956932,0.041419762528730406,9.885431499250467,0.021029033631925684,-0.005237111477558774,-0.001131184107002295,6.07
0.07707938631217506,-0.154766130074713,9.946131289768086,0.006310329813449094,0.013438083797453646,0.012363316911616145,6.08
-0.19189389499166049,-0.20718919333378016,9.886440371413125,-0.003598796465938012,0.007865872852704531,-0.021057884718341583,6.09
-0.1041968500316763,-0.11188902043783829,9.90505731662844,-0.0034098290712237414,0.017119202585142365,-0.014463779407540553,6.1000000000000005
0.12385880786536858,0.0784252589092751,9.73236947915337,0.0014478739311130473,0.0006388100519156731,0.006409365733342751,6.11
-0.09679034963675093,-0.06769521092706285,9.976276397007142,0.0074687472325365165,0.00013924409814964893,-0.002998260909728769,6.12
-0.1676197516063797,0.2554793661931087,9.784194350045674,-0.00994290591777188,0.0022982553974145894,0.015757262524133973,6.13
0.037772645839737815,0.07486573306031766,9.671688005160812,-0.0037272718002362227,-0.0011395511010781215,-0.01432044279639164,6.140000000000001
-0.05077238599196478,-0.14846169620578417,9.801369666263597,-0.006911388326656033,-0.023990779977247658,0.006558338004441833,6.15
0.1506464276329187,-0.32363809579510083,9.892962424016837,-0.004730986267611218,-0.0011332832993883885,0.02191730994254384,6.16
-0.1124203690446465,0.06672135071880483,9.777758521394476,-0.0018388676678475458,-0.0012794338290525139,-0.011109181969619743,6.17
0.14050239493438801,0.2046663375184583,9.895420114097378,-0.008491670008391095,0.0028637601091596066,-0.0017136637608592253,6.18
-0.06250916383509895,0.1502963337668991,9.728807397064246,0.003794437256845949,0.0011127191775930998,0.007477312072644203,6.19
0.06787360611978903,0.18607514517406964,9.726282552825149,-0.007436715560464993,0.008979007215831362,2.40878967602688e-05,6.2
-0.11437966885007654,-0.1122585959959201,9.861438874227728,-0.00762385365851252,0.0013805870278564608,-0.009200746577249397,6.21
0.02146247981411069,-0.21949115800894106,9.781782530547881,0.0045563428824888985,-0.006021251416086464,0.025651634088584663,6.22
0.021412033577115762,0.05804524833266539,9.94852295528205,-0.0006816145690354972,-0.005054523591235339,-0.0014102046557616197,6.23
-0.00345149578969724,0.020564029476193367,9.852805086393092,0.006150245768178611,0.0011264299307966919,-0.001561454590154075,6.24
-0.06598039331773249,0.025584378361964245,9.820892310685464,0.016772683962273886,-0.006462961927901293,0.012718336403004779,6.25
-0.06934168983348558,-0.0384930026621523,9.730342851948796,0.007176128362012316,0.0046120146980001666,2.999850959528789e-05,6.26
0.12945214754896367,-0.04544665002032868,9.948936054408227,-0.005562057389583243,-0.003454750318443317,0.0010282340971748997,6.2700000000000005
0.14900378771433656,-0.025351714129068777,9.819020811511821,0.011122616419212984,0.009048265185106678,0.013230723624123857,6.28
-0.015213122255059684,0.07671430244498806,9.984577926310896,0.0042254223711283,-0.0010176512072188279,0.01674020129032579,6.29
-0.10752566532969195,-0.08274624261745983,9.724696855018648,0.009284474370526928,-0.004064179783541242,0.007873368853806082,6.3
-0.0717664195809366,0.06990761053375603,9.858446464466226,0.015792333596687424,0.004749819348212205,0.004113010296679908,6.3100000000000005
-0.06392652947714227,-0.011045499563932578,9.764027952565588,-0.0067253205710251845,0.00384971633312855,0.0019113760356731454,6.32
0.05070107334087768,-0.050825358960852246,9.869264861284508,-0.01692646195628043,0.0017635320529118112,-0.011607459854658362,6.33
-0.013708989861352229,0.05212888176549949,9.957038978744635,0.0016237893901631271,0.019976418102319,0.00308253130902736,6.34
0.11069504278645932,0.061344219934977386,9.873336047495528,0.02259955161036818,0.0016009321620699304,-0.003601463190867071,6.3500000000000005
-0.05463331435497082,-0.023539891845399244,9.906541816283765,-0.0003857591425537338,0.010741614985200055,-3.0686393083034436e-05,6.36
-0.06720390460783764,-0.11148955390302323,9.630009910442745,-0.00030474477148355593,-0.009422181072176765,-0.0008993732359236406,6.37
0.2645842132132656,0.02116793705929121,9.671794053979104,0.003118502138574112,-0.0015060948892548407,-0.0061505002654923206,6.38
-0.030194098632355445,0.052987634972525136,9.770847227081463,-0.0048081636807214894,0.007042221779773637,0.0016824810093127903,6.390000000000001
-0.010285627353634426,-0.05052761991689983,9.888059560347642,-0.0036056763754971524,-0.00011697661729712992,0.01068546195574597,6.4
0.04908978132823008,0.2657595411757806,9.77984235351742,-0.005690241161924507,-0.006191563552824553,0.021691306124404,6.41
0.12241505038250507,-0.03826233221891842,9.899169613297484,-0.002151617988239925,0.0079867282320184,-0.005263972544209596,6.42
-0.019470156349930455,0.02243694400479072,9.844809948440913,0.0002572598744635502,-0.00245508293601082,0.02078162319612826,6.43
0.22989674475456914,0.024106762183586823,9.666770525219311,-0.00908165304285489,-0.004983278065892386,-0.01570252757769227,6.44
-0.11317382011320604,-0.012371774719061385,9.89937982293735,-0.0006533676105681126,0.004701213465094396,0.008476058135323265,6.45
-0.2608435759000786,-0.1535248098158798,9.779404546220011,0.017151167344507622,-0.012937442076188382,-0.0022309960772153754,6.46
0.031073833186957535,-0.27860261561334737,9.927397139416987,0.008397355019983113,-0.010303121021416306,-6.813043179216691e-05,6.47
-0.11811887447892513,0.19219828148942927,9.82055703491312,0.006661544042095875,-0.006774219672949249,-0.01857064379472113,6.48
-0.13514092998051486,-0.010976710503012521,9.761275263421252,-0.00285290808256566,-0.009460820348510762,0.005943780456543119,6.49
0.04372478614567,-0.009959073513939959,9.753505845651132,0.005401367659628444,0.003940134177976328,-0.0008197149380263084,6.5
0.11061061451546031,-0.0026526717414183634,9.853105006043615,0.0013610272183703265,0.007408529543770976,0.006123984007652737,6.51
0.09181706496659042,-0.030461744453353503,9.697629980119675,0.016881591242515294,0.012213646671061087,-0.020201070000061886,6.5200000000000005
-0.09716373671503026,0.11041771434328299,9.858649487830768,0.001272636119539588,0.008209602757659789,-0.005240417500549817,6.53
0.02861829455931779,-0.016891164283264995,9.761798181492907,0.010600964943554727,-0.01166693889638395,-0.004282952433101093,6.54
0.12713520152882454,0.0026386318433369547,9.769690945416224,-3.552776263500622e-05,-0.009694074694188877,0.00614845665236773,6.55
-0.059499207733452436,-0.20295868023584168,9.67427335684171,-0.006087251712960512,-0.006018561641931149,-0.0043836268901763,6.5600000000000005
-0.03884028448448493,-0.09441815029355088,9.773808968741749,0.01440297199750588,-0.0032612633476979177,-0.00753862981786813,6.57
0.026680331686533422,-0.02931114109945504,9.82836621797273,-0.004065900549959931,-0.00952909495889663,0.0006176652077960096,6.58
-0.016714671366805794,-0.06020720825272818,9.866004567734294,-0.003927652157097934,0.006001680404222497,0.012080957634199621,6.59
-0.04005885499683498,0.03692263015997083,9.666349018157401,-0.0021999471399995595,0.025134337219118234,0.0025721771512742953,6.6000000000000005
0.042969738484352565,-0.05449240275822073,9.996031408569134,-0.013792607690878454,0.0005560751429062217,-0.008119842768844882,6.61
-0.03128075001160432,-0.039011646678310925,9.734101854099755,-0.004420641479824365,0.005737618999125829,-0.004509074415922541,6.62
0.09703131808435556,0.19604944145938644,9.821653811686446,-0.01787495105793689,0.01435556581111125,0.011034220786573585,6.63
0.09225037910851693,0.009044817079228079,9.735539826371289,-0.009350166852379042,0.0027324905646915,0.004536274134814442,6.640000000000001
-0.0826849314871852,0.12011620570175062,9.927722369514555,-0.014293918754652609,0.016529068796147642,0.0012495874201659237,6.65
-0.11424553525897994,-0.06312789801142457,9.901995618730348,-0.008902114294209432,0.004885934175227232,-0.0033437549136650846,6.66
-0.05790617264057092,0.00429265442802848,9.859545625050492,-0.006153491642517286,-0.008871672390811311,0.0015088313434544972,6.67
-0.03758568680696321,-0.051303761045839294,9.670184288725027,-0.006516613519142421,-0.010177915443418575,-0.005034357050505004,6.68
-0.03908706462439153,0.006591962237047146,9.791280457465568,-0.005612347870446287,-0.004861247912581716,0.0006133145067568635,6.69
-0.1514756722632684,-0.07098901612881253,9.695109839977523,0.009827490425676155,-0.0054733126714066604,0.0025932429083825558,6.7
-0.0589207812477201,0.02434266137872884,9.844305435749838,0.0022484239542832577,0.020908786434659345,-0.004982301665981887,6.71
0.23181009590972984,0.10610252299785428,9.778022511821526,-0.012455865401074288,0.008502325086326576,-0.0008218317315000174,6.72
0.2040252679832987,-0.14676554576072517,9.77746877769481,0.00937480128243684,-0.0027273825093654166,-0.009247171603141254,6.73
-0.11618002262008079,0.005744913374332442,9.778156376091134,-0.010600769461211235,-0.005739869401589374,-0.015138287060678931,6.74
-0.05720346103213808,-0.057404295096346716,9.707939179275403,0.002422659512792818,0.001970506469614361,-0.011945609347195879,6.75
-0.12540159950794508,0.10779756066324127,9.827957223170058,-0.009865927230674748,-0.0014396113899180858,-0.006706065647630688,6.76
0.13297670871310044,0.08426836278477588,9.80417255712194,-0.002095856506768032,-0.0009465981040021114,0.00737425730172421,6.7700000000000005
-0.056848261119710544,-0.09898774290476198,9.843223837642823,0.000428445084358014,-0.007770717518645199,-0.0006654858347018242,6.78
0.04782373055377911,-0.006125138874115022,9.74560157324672,0.004908201676901915,-0.019432601367812934,-0.0021520061536564627,6.79
-0.07921714094334205,0.1359366791317926,9.862774737357134,-0.0020056416340160665,-0.014929519590908973,-0.000416186105156901,6.8
0.11540136634738103,0.054818921079152566,9.783209078395206,0.005807205837966395,-0.003519839783453757,0.00019675873874225848,6.8100000000000005
-0.05983328454799285,0.06750961276402602,9.88803584874611,-0.02395040788406517,0.009017643055881338,-0.006051194980244626,6.82
-0.10656824551628286,-0.032609392653515916,9.679765337171839,0.0007545955843826154,-0.0073504989644277785,0.0034691932396885288,6.83
0.08402232164286305,0.0896338787815078,9.90860589975372,0.009158230831554688,0.017770953588085465,-0.006311914947180451,6.84
-0.07413970057007606,-0.06426494083803734,9.847088527766088,0.00022059100099473786,0.013778133268176392,0.0034344690986365424,6.8500000000000005
0.004890015840886826,0.09052988776805564,9.857747352577782,-0.0048476855695045,0.01589538578803473,-0.014276213695241586,6.86
0.11143325800617004,-0.054227739342486106,9.799450527315097,-0.012337511350309438,-0.01053815257940361,-0.0047013036595341465,6.87
-0.11033847051114197,0.053557048474132646,9.75578944886967,-0.017909359610599477,0.004250015844201883,-0.009241574999712126,6.88
-0.1373883335359657,-0.015876998254660598,9.699414758236594,0.0029015677007005504,-0.0006599840501163221,-0.012613195278933667,6.890000000000001
0.09917604197120929,-0.060459218053004804,9.97236311312219,-0.006575960001800903,0.0011217865522940372,0.004419771226726957,6.9
0.06383124354921282,0.007846735991596373,9.922935674177669,-0.017127974594105835,-0.0007843944032629987,-0.0012403472485308501,6.91
-0.03175844694115072,-0.03993064057434684,9.830601725569009,0.0023881570265021084,0.0010537152501035475,0.0004441595348353302,6.92
-0.03380006257158466,0.015001334291434514,9.666461271150084,0.013504238414383824,0.0026932968998690477,-0.005462732171295728,6.93
-0.04755005427646801,0.07553836011873563,9.797230552808243,0.006204531415199514,-0.001446583065792003,-0.004524814965797647,6.94
-0.1336601078281233,0.06459624357263812,9.886634174186947,-0.00889592331227501,-0.022122209104979064,0.01095762140746297,6.95
-0.0011435255125494673,-0.16638670194732832,9.67643585921205,-0.0015671715400632246,-0.007461387430937643,-0.004980852186599195,6.96
0.05338278424189335,0.008346510903892945,9.824809206249475,0.00936889081973039,-0.0016758069757105759,0.001496397292943515,6.97
0.05350053808203634,-0.09902475449958087,9.822779118444851,0.009344510686718278,0.001980553535115566,-0.011790716710691299,6.98
0.04704226111909256,0.016759426378634448,9.550569750782296,0.009339453773539853,0.003137221633854553,0.00018981431148346463,6.99
-0.18905964442699416,0.04332234009961932,9.793055573973952,-0.0022743017084552197,-0.007801002251669609,-0.004497535692298429,7.0
-0.050878807885041656,0.16098500210363956,9.791527268267854,0.004454801108102057,-0.004631061731975831,-0.0012743244365358319,7.01
0.042484195416942615,0.13690642742351722,9.733615746611633,-0.003718068751583416,-0.004383644357552853,-0.014684373412866046,7.0200000000000005
-0.11509732363227317,-0.17453808479528288,9.651798933937592,-0.012819071076274452,0.0065357771137469454,-0.012959131013396723,7.03
0.14122427801657428,-0.035055132775693054,9.740361306682589,-0.0029555238526359725,0.0008760301687148371,0.007161148924062479,7.04
0.10272002579991235,-0.04543016709038063,9.73153577575836,0.0002947379189414409,-0.003175623824466133,-0.006803725009818633,7.05
-0.12364564350631496,-0.0578825109479605,9.668898350417928,0.0028697253555924683,-0.0010688181951227186,-0.0017645309392857154,7.0600000000000005
0.1480916940361535,0.02828740550459868,9.8665963843311,0.0015182185138207342,-0.01971716715954347,-0.007532140192627865,7.07
0.07450913463566251,-0.11291090144675645,9.749994057118156,-0.003420595413062559,0.0020412065977419877,0.004002297481056124,7.08
-0.03775518974350835,0.15149619946322085,9.738561156666183,-0.007231102590430054,0.012004731268242487,-0.0030971556204531492,7.09
0.23049134416278574,-0.04878613396693013,9.584923678238018,-0.008110782770928526,0.006940122165172362,-0.008336773512890885,7.1000000000000005
-0.1808048698399365,0.06356450439265131,9.7489380974492,-0.004066040058310967,-0.0025162172929275345,-0.0069513591327144434,7.11
-0.02858206823731735,0.12291095212622648,9.891984056965436,-0.003263774903196968,0.004109162399665769,-0.006845834256796067,7.12
-0.29501316968673863,0.13466136227612233,9.723589351208538,-3.718611006233817e-05,0.005360523118773347,0.004957160701362903,7.13
-0.03831280410448731,0.04113528228973478,9.93333439126738,-0.005023382207806284,-0.004835111663635207,0.009910523682247622,7.140000000000001
-0.064936437610766,0.06752221687249615,9.757746566471049,-0.01600667411044288,0.004175459135777678,-0.004098420551206979,7.15
0.06475954531149257,0.03280404200369113,9.786827910890082,-0.007869151926393349,-0.008227613982771673,0.010717387334335922,7.16
0.1411344040386294,-0.03887423572008378,9.851947927125922,-0.00999316227451697,-0.010974577761080715,0.007794168694997284,7.17
-0.013004085417955821,-0.11913959936118378,9.842143350295688,-0.0026060896646798843,-0.003661872205214504,0.015167049143724212,7.18
0.1342212471134445,0.054331583289196066,9.826073261960715,0.0019528395188598063,0.009125341642277003,0.007770626200899616,7.19
0.07840223744814981,0.13929726504595905,9.886046454332844,-0.01917820066317181,-0.006214381035260749,0.013646477952697978,7.2
0.10955800512465184,-0.19097845200964345,9.754780766991129,-0.0016242398939701108,0.00837608487339758,-0.011494477150444935,7.21
0.0018382195869463083,-0.08976712105385032,9.869820803562815,0.012022917508795137,-0.01521504741224517,0.005805599811308312,7.22
0.2152745543276654,-0.1197159007629691,9.946116089424926,-0.015949731601810974,-0.002882287137979531,-0.009756172309266098,7.23
-0.025814069668533147,-0.22502489575240892,9.653983526375134,-0.003044019920074797,0.0195319590487869,-0.001469012203121839,7.24
-0.20569264541588855,0.06613206512950819,9.882157668665416,0.004067977569010996,-0.006262739108135451,-0.0008620063901378288,7.25
0.06600475097000628,0.0023761985424307548,9.888965601300361,-0.005153316073152075,-0.0011998485463677452,-0.002457911561775407,7.26
0.24824745957359645,-0.011966335818732046,9.867498160119244,0.008323690683200482,-0.005696300509549252,-0.01514890330181853,7.2700000000000005
-0.037868769470268786,-0.02468503314005274,9.761519156719825,0.0018047098355027519,0.005723523606453712,0.0004899287307626015,7.28
-0.05200680155409122,-0.008703800301990456,9.842442954121656,-0.0014385981836272533,0.0022982704976080843,0.009079391448803716,7.29
0.026746710340604753,0.1662770378059435,9.817124597592995,0.012361082834773676,-0.014224146231158148,0.006599155886734419,7.3
0.17886240718826493,0.0571389566242982,9.859282997702405,-0.0010503351586781933,-0.00034787126083218656,-0.019057827174104452,7.3100000000000005
-0.04498696969596486,-0.038193684129539544,9.579849186956935,-0.0009306458999128548,0.007388065867633028,0.00044557850127345533,7.32
-0.0985848510206288,-0.0807561096983372,9.91756793976382,0.00580157824003129,0.012787903897053752,-0.005835790769755157,7.33
0.0017565527816240424,-0.10205007685508159,9.811164132069234,0.002555551614591938,0.007904223604852633,-0.007362217787202394,7.34
0.021686553202482514,0.035633028376030274,9.880664185236357,-0.0024458588496738287,-0.0020139100178472834,0.015640254579169937,7.3500000000000005
0.11516092184279295,-0.0894327812323738,9.783147998188834,-0.015468457559948096,0.005465580103628076,0.0027847959006643335,7.36
0.011480803001500136,0.07776148242007908,9.70713758659731,-0.0005214902415303983,0.0014258977519446914,0.00208194325668602,7.37
-0.09732443524389167,-0.0853128893253603,9.845163347213036,-0.005383100369986757,0.003797613427902013,-0.002731744087552588,7.38
-0.23486530321514013,0.03696633085076861,9.603933203598682,0.004893503115309058,0.021554755327827368,-0.0021190783590524604,7.390000000000001
0.17133556354089133,0.14462395292281857,9.742315951842123,0.014686780131313328,0.0018799525945706662,0.01650096134179208,7.4
-0.055804006617770074,0.05518936596831128,9.883862211222354,0.015319388609443272,0.0051069360637094165,0.00763992614905747,7.41
0.0174558288415738,0.09618240790863775,9.845372757029587,-0.003798090426008454,-5.469220355909093e-05,0.001942894829619007,7.42
0.0316469640281195,0.09262072173775969,9.743811149600734,0.0043028529742841866,-0.004245982646728447,0.0046004201484236605,7.43
-0.08259331539064416,0.017623670338032225,9.766154555571811,-0.00881023034873588,0.006519914678209855,-0.026046163267910667,7.44
-0.0278315242793337,-0.005928387631075664,9.823487073459255,0.003093483008504185,0.007913398229077823,-0.003295422762707114,7.45
0.0313961649981668,-0.12435523062223411,9.835996941715084,0.011666794188158143,0.0030077748644358193,-0.014400425470570464,7.46
0.018138402936127167,0.14811053237350108,9.882780372675247,-0.013429994540983902,-0.015374881128709586,0.008480669742157498,7.47
0.03183292679256908,-0.1599671204448978,9.925547520175218,0.01446200278864221,-0.011784536662055098,-0.005422822088709335,7.48
-0.05621442826265596,0.07538744175195952,9.830963118690219,0.006346620096988089,0.003526133748044885,-0.010915510625792973,7.49
-0.08252081470270212,0.05483751445932325,9.736496645851219,-0.010917518520821014,0.0016048002335590625,0.0007591066361364014,7.5
-0.02489348577690996,0.01715873896110126,9.958718450410107,-0.0036670359009856367,-0.005091972489946352,-0.004454414903888428,7.51
0.13631797383597305,0.013933925967513276,9.84589560315671,-0.015218688463676912,0.014105617771497263,-0.006539751692057523,7.5200000000000005
0.11335763694389207,-0.0643922677478568,9.81189925918598,0.017259138975088795,0.002208984423596103,0.012860153688874424,7.53
-0.12778134965545634,-0.05560312850306243,9.722943433563977,0.005242254784546354,0.002718632687203992,-0.002170329119704312,7.54
-0.08528208137530939,-0.05711872058293867,9.849984240464622,-0.003097153493861201,-0.0021608713142274886,0.02128378940724637,7.55
-0.14369766180252866,0.0339092242639396,9.70751441986588,0.0026729612463719543,-0.008607316758470207,-0.003987411826693732,7.5600000000000005
-0.13163906265498576,0.011540492010150947,9.784909039751891,0.004200830632759896,-0.014833477961179651,0.0039547457340944085,7.57
0.17814772909031124,0.04070202839165535,9.837527125384579,0.0023046785490958045,-0.002935883293862656,-0.002791405502993213,7.58
-0.1445025795355742,-0.19933441710740252,9.715389373173597,0.0006955908016208663,0.0015475230448240452,0.0019207905498360945,7.59
-0.1009960157588715,-0.027444960490203986,9.805113379996747,-0.004681302778495259,-0.0008022407449078116,-0.006863332292715067,7.6000000000000005
0.06874287085955452,0.16125250791252757,9.84634737034166,0.0029519770463452993,0.005128980983900071,0.00012452758952511428,7.61
-0.07311785883116066,-0.03872949379300314,9.785230160554333,-0.002228928033484416,0.00534438879330512,-0.0161449066034932,7.62
0.020453079146085032,0.10257096955640961,9.926147674210185,-0.011178650434635182,0.00194938359942803,-0.007363980379965994,7.63
-0.02656666405206964,0.08033025638389094,9.918567609579314,-0.022032941988065585,0.017920777202337503,0.006921004381962358,7.640000000000001
0.05535799048194528,-0.13912257948537785,9.776198770966918,0.007813135767958343,0.0020692205650329706,0.002761713434718763,7.65
0.05073737066195138,-0.04103404293072066,9.650881256331933,0.007469547007514521,0.0010445598311278077,8.614354648477131e-05,7.66
0.25638032049121334,0.16326321155740708,9.899690617808238,-0.009574436775821666,0.0032057652817888836,0.0009991486300328898,7.67
0.019395079933883615,-0.07602595145716778,9.794737326255152,0.012343707798522195,0.004036845811508547,-0.0014149627001411563,7.68
0.06902254001095691,0.013177878534731964,9.853106383572701,0.004527440374764445,-0.007180161939122195,-0.014734724839328297,7.69
0.17751308106501432,0.12026579852053582,9.870485829678353,0.003621354350013374,0.002712237057521093,0.014454727179724814,7.7
-0.08804256752377167,0.08883791191780283,9.737887742463187,-0.0024716602460310598,-0.008563625292594397,0.01239590350418507,7.71
0.18259357252276298,0.05063700118093344,9.824806803317067,0.00840268018961559,-0.0020699440632668455,-0.004666038272169143,7.72
0.008604036720097033,0.11518475258710406,9.726097645419157,-0.005837897399305458,0.016699456507923708,-0.0068692848456593045,7.73
-0.06811157171057848,-0.04855885928160819,9.809128311621441,0.021347446348520375,-0.005113047160249957,0.007377281128927056,7.74
-0.10945612424844471,-0.06339689137415623,9.585959109229263,0.006656443807142326,-0.011822324523343418,-0.0014185272231710974,7.75
-0.1030828044286398,0.01867610354304901,9.69751302641744,0.007471467886738768,-0.0016491519301029779,0.001707450832309428,7.76
-0.007753259083194002,0.04810853418857587,9.723432879720704,0.00668898937861131,0.006150392467750383,0.006362156438098887,7.7700000000000005
-0.08295069774538186,-0.00017639754064309628,9.807510658461766,0.019041440225467998,-0.00568524161918697,-0.010579110744125661,7.78
0.05022489797829787,0.11089398527295671,9.789001956155333,-0.0070994461926031475,0.009123173446508245,-0.0011461969276747017,7.79
-0.06459161088476342,-0.1289706518834346,9.88780277424661,-0.029552306196433658,0.02376041651856981,-0.0010437224618854025,7.8
-0.016310808882608406,-0.05431643597817522,9.772315184797858,0.014758775406594553,0.00444917667651123,0.01534780621530686,7.8100000000000005
0.20432148800810426,0.19916123430293672,9.713482433592628,-0.007529048511569198,-0.007627382303576881,-0.01087798381095245,7.82
0.01173351659437839,0.11581957497804857,9.859641862294973,-0.0011241098897567586,0.002654310537526871,-0.0003475104187642567,7.83
-0.04815077107393506,-0.013059715108998088,9.912006962042144,0.010454398685512897,-0.006367857567737797,0.001133526696807612,7.84
0.07974339906805883,-0.04835449019098889,9.751968392732419,0.011186087543785715,0.021728568018763172,-0.00253445377037344,7.8500000000000005
0.10611874074893018,-0.15130767025434844,9.799300280442516,0.02116453532698018,0.014224619548152797,3.1445263555582836e-05,7.86
0.07529115796396788,-0.041559298363406,9.86679159366087,-0.011812093337134844,0.0015678674253682627,-0.01497044229725076,7.87
-0.052717702761667845,-0.03193859893837805,9.889889825465275,-0.0002868973395194962,-0.0007409702850949397,-0.013266726740680967,7.88
0.011435370065404182,-0.03439496242853038,9.762134452915923,0.017504001231413536,0.005300917595828931,0.00035738863328034525,7.890000000000001
0.12011585026437094,-0.056037301231823024,9.595353076907987,-0.008694458604083341,0.0002860769514183853,0.0016468557889932564,7.9
0.019503939207482328,0.08192709687891259,9.858158670277888,0.016224238085536823,-0.01138277881569862,0.011044569432121313,7.91
0.03586055704570154,-0.1555848070929092,9.909529207704853,-0.01796434559491672,-0.010662344310797793,0.0005241101589807279,7.92
0.25813207578850533,0.12003379017901072,9.838981971420992,-0.013174376070641964,-0.008061859670069184,-0.008479575350740955,7.930000000000001
0.1892415193005058,-0.09608647044009283,9.857866533431274,-0.008732030369673547,0.014188830650444548,-0.016497901579625694,7.94
0.10233118449416057,0.1408132390748324,9.733783643437263,-0.01110657796792292,-0.00474083886086308,-0.005346400525131341,7.95
-0.07270922604953549,-0.22089844490330068,9.68858950291729,0.004579060435914493,-0.02239695816503787,-0.0010227119937505388,7.96
-0.03175788415888308,-0.001115291113546996,9.632475886066075,0.01164981330826684,0.01019020748962,-0.010382145073001166,7.97
-0.061451366162296295,0.0701945554495815,9.556753611674857,0.00048182130893098383,-0.006120490953798439,0.010001581658645252,7.98
0.054726541781021626,-0.03214959093444674,9.828210052773573,-0.00011686583757501699,0.0001687689991025149,0.007953719728489463,7.99
0.16204673665316655,-0.07776028929192913,9.845277598044472,0.00469122819237671,-0.005912334871806388,-0.005055886329595889,8.0
-0.15342240552261296,-0.05371303214799969,9.687970714505564,0.011788243579345792,-0.0014417567875503459,-0.0048717342473695085,8.01
0.031799011490281595,0.07923310952068383,9.867047741986823,0.013933687723916828,-0.00593113225643407,0.013580292200712345,8.02
0.0026533785097566224,0.09516391383382625,9.83129650436181,0.0025448878656146035,-0.019119285439674737,-0.01266488198067975,8.03
0.14793296224438673,0.024470463498845806,9.759854912679055,-0.009765865875750767,-0.007439093597212742,-0.00028406226340467634,8.040000000000001
0.017367294273038708,-0.21578214333723178,9.708462116597879,-0.00826743349416324,-0.012513887847152124,0.017006777667449065,8.05
-0.02914810211882642,0.06119260818534126,9.886530902969643,-0.007467167786624156,-0.001616674482957215,-0.010458011667437886,8.06
-0.09137226659923897,-0.20806961505699714,9.695934244045372,0.009111690251907183,0.008596166083940168,-0.0136821884087239,8.07
0.12847317879248718,0.007834199724156934,9.802056041380222,0.014542079507973744,0.0047822259888557865,-0.0048203378847974584,8.08
-0.1979196192815647,0.08513533110209814,9.769135921266706,0.015725152693930697,-0.01649106757409799,0.005584112369219249,8.09
-0.09331338601844845,0.20520042638529412,9.957341758634575,0.017169916665572004,0.011867918478775795,0.024371864133677878,8.1
0.027162784541157683,0.0836033399098183,9.950966447487192,0.012769710814758828,0.005797838214057415,0.003891943361376574,8.11
-0.01915200220183498,0.024291258842950247,9.698613391644454,0.0029332153991834067,0.015931926994901587,0.0003489444809851486,8.120000000000001
0.0340544711499326,-0.008557663545453675,9.608918896298885,-0.0039797603458891035,0.011736714837074662,-0.009729124039769834,8.13
-0.018873929677125534,0.17238231376043464,9.874486135824812,-0.009683993403088498,0.0054284978690338674,-0.008960431667678511,8.14
0.18599225161869964,0.2300653785235483,9.85689405238146,0.006498264472122538,0.00430047247466482,0.0004562038153348583,8.15
0.03835813622185397,-0.12656073151066802,9.742546537552066,-0.0013509932569523361,-0.01853261162635937,0.015970473510509814,8.16
-0.07900484336040593,-0.19848574120998716,9.930558348240417,0.01750135842790336,-0.010252498517188546,-0.010651764902486828,8.17
-0.00031079099115775214,0.0026446092886885653,10.02851821142823,0.00905217311043449,0.005389988220981474,0.001577414131641637,8.18
0.09712471557154997,-0.10454956288881925,9.745495201382887,0.0021800222141210423,0.006590671692054121,-0.008533672399022958,8.19
0.06591619731220978,0.1148158274523341,9.742681271305965,0.011542553299890457,-0.012351372286364112,-0.023028971133035588,8.2
-0.0519554451831265,-0.15809712999067727,9.834940760206628,-0.004714509126921497,0.004918295659003848,0.018577508625894454,8.21
-0.0854052849120713,0.03869005380909565,9.807395195988066,-0.0082036162166417,-0.025474234645360506,-0.01877299864811238,8.22
0.010223296260896122,0.09597124590116068,9.745782367707843,-0.01548746502084037,0.010243903073024838,-0.0015057941022288443,8.23
0.06741620911448336,-0.08159524407130095,9.937939012006574,-0.001029087675666058,0.004375384407452417,0.0034341893118974847,8.24
-0.08948838787350825,0.0725609502187938,9.90793743354046,-0.01682460781663496,-0.00654784505762603,-0.006447707250247501,8.25
0.0086364450978916,0.13176283389975318,9.744467333259777,-0.004680364336954233,-0.0031317446328482617,-0.013688596569774789,8.26
0.0037149088003520093,0.07491061965926893,9.925673760914076,-0.009886012641797426,-0.0019279352453627707,-0.007561075890858273,8.27
0.07967339827275448,-0.005548143302258508,9.762959045752272,0.010937959083905983,-0.009996556407586111,0.011011775098277584,8.28
0.1303201713880315,0.13543518382466502,9.943389796506054,0.009107379034907867,0.003920308587834926,0.009674442935167378,8.290000000000001
0.10579662813807932,0.04239822664996186,9.683102774419945,-0.004850909122408402,-0.004565149583348571,-0.010688335412145698,8.3
0.05863879928715413,0.21612535961413923,10.028666112937529,-0.0018417649688572011,-0.017341569963510568,0.01442932417624099,8.31
0.06172079137763628,-0.10235635773889946,9.810810429950363,-0.007277518057411128,-0.016604552129053634,-0.012183835297163801,8.32
0.04244886062483202,-0.05768604055314093,9.783938361604596,-0.008033384282163018,-0.011115886833862365,0.005967263293307034,8.33
0.2051554590537987,-0.0013134262748541988,9.65056980067872,-0.006855429859527599,-0.01057576468010005,-0.010602785131903863,8.34
-0.05241488609646625,0.014323801378896267,9.870720607732016,0.01618121713567423,0.0036876501437531164,0.003825460783501814,8.35
0.0843777935129421,0.2215253189371393,9.927643670870324,-0.007531242022322996,-0.006418556561346793,0.005102392126008023,8.36
-0.032376145271216725,0.026893676252561956,9.905701604960983,0.022614202865053987,0.008971216258920342,0.0057723684891585825,8.370000000000001
0.04287242964034205,-0.0500040718778316,9.837567551763613,0.011035449775149777,-0.00888456536913609,-0.00965394029599692,8.38
0.0757720121767151,0.028773977112019674,9.824297808645522,0.014294004087626093,0.008667786219496628,-0.013268625024598675,8.39
0.053805339441241565,-0.1325471170388234,9.789420609858585,0.006611451428220331,-3.5490904181423934e-05,0.0063421307303756615,8.4
0.08091945039687681,0.0003646859652494394,9.830617712398878,-0.010835852174045191,0.002441979440193921,-0.0066096988805623026,8.41
-0.1395076247346377,-0.07703839802234232,9.696956233013486,0.003413218587246035,0.004876027780959256,0.0034004630251405223,8.42
0.10331969697910909,0.09483961149683501,9.834838420317451,-0.017403092294637434,0.009031517130086415,-0.0015184695736246607,8.43
0.02476659224933947,0.09231568869442877,9.583464870709719,-0.006630941006764269,-0.007462881077672817,-0.006960064325031165,8.44
0.004751652242386281,-0.11668513936259406,9.856114140238727,-0.004889459824808047,-0.003391853879469327,0.006874811736031621,8.45
0.03910480105831141,-0.11033933195559238,10.014640784325032,-0.0006019756454089287,-0.01862530511343601,-0.009071275155541396,8.46
0.048268710062133194,-0.0929632059378491,9.852213398567924,0.01581745886002931,-0.0008199578624555221,0.000689851249455612,8.47
0.11063072309869754,0.04552305150652428,9.74946064265155,-0.00035050682664148876,0.007527366744476843,-0.0009086207444015467,8.48
-0.1836771720797626,0.1392959562189299,9.820307713831271,0.0029435793740300743,0.000824427845133511,0.007146919270908123,8.49
0.12421416388545659,0.10632958896212251,9.763056566543566,-0.0011190975660806597,0.01890763598282756,0.005255906209319225,8.5
-0.048144653652379105,0.019580547322343184,9.73286536424762,0.006190900916923334,-0.00958245533418857,0.011482244538784625,8.51
0.04068193346642785,0.09790702958838587,9.865723924700523,-0.0030170077900575198,-0.0010808409614743433,0.012029126620707514,8.52
-0.11426021880472159,0.13669644066849174,9.932934834974175,-0.0018551320585930332,0.008008710627656132,0.008247802144323236,8.53
0.03915506044465871,-0.12465863476860894,9.998348637127036,0.001452274336467567,-0.022674221934552194,0.01580268620448798,8.540000000000001
-0.07817766754996025,0.035137950843223145,9.80769540048595,-0.003929202964637944,-0.0029521756972130907,-0.005129877726949272,8.55
0.011387267656623724,-0.11442308072697815,9.800357635282063,0.0014402768423926664,-0.00668313001907443,-0.001905752670221599,8.56
0.006902428018040291,-0.20618509315190925,9.80103008827058,-0.0018256382063742982,0.009443659601371748,0.0011546598534098401,8.57
0.04581638138139704,0.027104390712866723,9.664475632417092,-0.013562162476458826,0.001979319839499443,0.0030502347817580534,8.58
0.0036700332697852697,0.05202689966195306,9.914780024257006,-0.004091986904178971,0.011724548628034693,0.0018556772361316347,8.59
0.02955578499616317,0.025922210961976572,9.860528660260396,0.0218724980232282,6.393010856597608e-05,0.021615443018172704,8.6
0.06340478593763728,-0.01174993546135247,9.76041038970013,0.004794797298169028,-0.0018601140792758558,0.004705827840215341,8.61
0.007539463676911754,0.1267821767517905,9.775902590190654,0.007378827206469027,-0.011901629385346736,3.912497033709038e-05,8.620000000000001
-0.010609835808986633,0.12506041404242071,9.73875817986911,-0.01262730386738802,-0.005049190172263691,0.008140350543629047,8.63
-0.1481705467612053,0.03676974787588005,9.651541187966105,0.001684029029302515,-0.016423559694523585,-0.000301794880103842,8.64
0.07383747011188342,-0.10181327324721863,9.735834496590993,-0.017743880686720028,-0.0044856715529579165,-0.01600806351960966,8.65
-0.012791579923466934,-0.1595839909552565,9.745893668402053,0.010474915020212042,-0.0031633741567510913,-0.0041768097353390285,8.66
-0.08639200822176,0.01211413102552911,9.580444311605504,0.009575397317771347,0.0025820159409652966,-0.006555561628739915,8.67
-0.07025561208342378,0.12759048255434755,9.755363262452123,-0.004819848012978482,0.010785666481268512,0.0028078230727813414,8.68
0.11604566513747161,-0.06744329226639185,9.919652021749826,-0.005333838516234569,0.0026600656446683496,0.002938238746887718,8.69
0.07245738465583336,-0.048335031294610205,9.610113023530122,-0.003332958920331917,0.005593326400900937,0.0007119375642492551,8.700000000000001
0.004818841352954892,0.09773839063087196,9.756254626024273,-0.010215872624000182,0.013228074498717613,-0.007581425299301186,8.71
-0.041860925932787355,-0.09338592544694244,9.798201329137315,0.005384886483339108,0.007491366181087216,0.003684164617094621,8.72
-0.04917209793281268,0.15614654205549194,9.6117973304959,0.000958767002848323,-0.008834819487695596,0.00794142849576916,8.73
-0.03461450870854977,0.25302144809363847,9.699451809310903,-0.002792742985176753,0.022314011349484426,-0.018249384808188593,8.74
-0.24700449369460378,0.024688378731270666,9.791202677433521,0.014052627746568376,0.010003824998801161,-0.0090994278368763,8.75
-0.03692773119409184,-0.15200748211678167,9.929382785838508,0.01654089416970259,-0.014905638215240331,-0.013967867671075225,8.76
0.03833020647768426,0.03935013198998574,9.705833735272277,-0.009209602860995883,-0.005039808453039704,-0.004702741317744302,8.77
0.04031049675602699,-0.03363995651381831,9.701422550575074,0.0018433288511287998,0.003305365330820283,-0.021034141154364642,8.78
0.04295424024149295,-0.005061124480101372,9.816955283945287,0.004745947048513498,0.012088208693680305,-0.011173869114458125,8.790000000000001
0.04727826688693602,0.03858552436346274,9.929388103190206,0.010428963951313106,0.004746599361361688,0.005855342844315975,8.8
0.032665211508723105,0.06462350994399611,9.790354580472863,0.01561072444510797,0.007341726549564941,0.0013752595629244824,8.81
-0.21583433592329515,-0.01797297943353851,10.000917311033113,-0.005614507844096509,0.012640278732641088,0.005662593950500508,8.82
0.12473057212985889,-0.005046595532827533,9.83249485350571,0.0016924307529066819,-0.014699115018134373,-0.00024376127510447964,8.83
0.022902800826269897,-0.04936607850146791,9.840482851754572,-0.009524075952566878,0.012778315504692992,-0.01124165795927765,8.84
-0.1323202023634683,-0.05221094219715863,9.903086054057855,-0.008034116905412114,0.013547232701257628,-0.00877171832299376,8.85
0.07838882588282114,-0.18789788338729962,9.815103195697038,0.0009090157843335951,-0.0030186024916420886,0.0029097337711717157,8.86
0.03129333029497921,0.3669811582458842,9.884797642493092,-0.006641255518123001,0.0019803433575161615,0.014799729834682859,8.870000000000001
-0.06707674133816723,0.10110764664579337,9.736681783191,0.007879269228445299,0.011465742196997832,-0.006362329007138985,8.88
0.13560547320748306,-0.029511260674357328,9.757737927936281,-0.005322796338400881,-0.015584476342781702,-0.0006883899441893367,8.89
-0.004803537963057886,0.07587287153241097,9.884427968682331,-0.013512919005737083,0.008355574389425897,0.014947643826217629,8.9
0.002705823335414286,0.04484996047863976,10.096941475863758,0.004236073554765155,0.0015048726271684669,0.004293967684505901,8.91
0.04767765287725392,-0.1019647475995197,9.73642529924237,0.01028597113340509,0.002449241404974796,-0.00475707750743415,8.92
0.19372921112186403,-0.04737197053119828,9.851343951394183,0.012674818716584971,0.005561175919921445,-0.012984304246741879,8.93
-0.08397667054293811,-0.08897120041217772,9.861419991604148,-0.019180560390689626,-0.0011264455148287634,-0.00862210982635865,8.94
-0.024295064356301473,0.24042054154708126,9.830375928817013,0.01595380625078404,-0.0009589643265717966,-0.024125525331700252,8.950000000000001
0.08120034904167774,0.08458024534831049,9.827614192801358,-0.0024866955310689264,-0.002437661087270729,0.00018715166841325748,8.96
0.04274471721125741,0.12247686871728176,9.832990075359861,0.003273521891196428,0.01723879441022366,0.0032261021827384947,8.97
-0.27116027154783573,0.08205651702037868,9.891316764480036,0.009709489670014929,0.020597026984489158,0.017334962105478146,8.98
0.03342283058424933,-0.023096908006738373,9.719961522672603,0.005756089424220916,0.014449947730873443,-0.008900816444903068,8.99
-0.0015944329765705942,0.14693456750872294,9.909448040238463,0.0058392296062987495,0.005074729101317351,-0.0028038874501783717,9.0
0.04929382704640604,0.02514292718296487,9.767716072531542,0.007667922623892133,-0.016483750491527564,0.004483893837228524,9.01
0.14158295048528943,0.03620225772467256,9.843520874284136,0.0120084382652768,-0.013618003561089134,-0.006364202594206545,9.02
-0.027021889643113056,-0.019420218408363738,9.70503785623827,-0.00045681479916338986,0.0023637795787581385,0.009417532498428083,9.03
0.019352881425407253,0.06180538291646596,9.959187019987214,-0.008241007862967746,0.005119626450576813,-0.007446916908264132,9.040000000000001
-0.0894663734888489,0.11775158552897125,9.91313210188462,0.00390660108942843,0.011615148370070752,0.0004907899617033326,9.05
0.042554972735684565,-0.06272391475272579,9.882690881719087,0.00625696789958481,0.009277239132571079,0.0031423384538499994,9.06
0.05487540079351649,-0.03895037531756678,9.819529042285849,0.006873850810822022,4.7620700934254094e-05,0.0071850959825876595,9.07
-0.04014226920686194,0.10101678771041545,9.769134304757914,0.003265239568285463,-0.001237183314978475,0.01535687479524526,9.08
0.11487779894450184,-0.0839061773832546,9.87755478189527,0.0016663142232357397,-0.02078338028007323,-0.001657154727168469,9.09
0.07028162817567912,0.1347853445986214,9.905802945626208,-0.0011506088075304262,-0.013911473762769156,-0.0013798597308746815,9.1
-0.0021896255462088773,0.04062069347796955,9.74703217513497,-0.0015581976608896023,-0.006744856865866541,0.007354914198983288,9.11
-0.051403763899952215,-0.032802349762225826,9.910632549610186,0.0049802237199847174,-0.004270073066701372,0.005629281129752437,9.120000000000001
-0.1639331238738417,-0.012504001299503282,9.725646919553787,0.0011796214756078533,6.845122782817119e-05,-0.0026314944051735924,9.13
-0.03163230851477128,0.024854466282567992,9.758326100383508,0.0047724446435897,0.0005456602240654385,-0.0011707230498843482,9.14
0.09248919157244628,-0.1113921589346459,9.918381968916696,-0.0025680525539739287,-0.007798731516913658,0.016575397288304723,9.15
0.04784520897705399,-0.18391435114264243,9.761568169986315,-0.00486903773661201,-0.021840659261014157,-0.005889227009713648,9.16
