ax,ay,az,gx,gy,gz,timestamp
0.08799745499170362,-0.0677582524236046,9.672398187171545,-0.005238458997602192,-0.012372601030410298,-0.010405591206985176,0.0
-0.007383719956120628,0.08110813296555405,9.800462958958148,0.012604296003686986,-0.012983551419957391,0.013534554187367523,0.01
0.06863083526271208,-0.011152253249693989,9.745555993879643,-0.002073073571321516,-0.015841390426183988,-0.008182653352831058,0.02
-0.08188656823891376,0.13882803023284082,9.826914191728529,-0.004932796790202806,0.006013573669296719,0.006605196337055858,0.03
-0.2081848149129613,0.07888472717719108,9.88664310220391,0.0016695255782937925,0.005019883694471506,0.0015181472176089548,0.04
-0.039948788512009586,-0.09656241193547949,9.765372645568265,0.01073513268459401,0.018928200190167103,-0.0021988017859788478,0.05
-0.13299553060728886,0.025388403056109784,9.747886501537877,-0.023119686594145653,-0.00804634489756235,0.013875001994236398,0.06
-0.03602188760176776,0.16373661912311388,9.68477528374395,-0.017067137270227687,-0.00040390905285927586,0.005957643722034892,0.07
0.1932077989480816,-0.007612019078773776,9.69730867510365,-0.009847211824881337,0.012230128064413844,-0.007443135953055765,0.08
0.10323701447935965,0.14780022937339987,9.687811785111377,0.015399811363383434,-0.005841229887433858,-0.01692978443975982,0.09
0.07042559840395547,-0.1701584710936905,9.75482062809728,0.010274453091492868,-0.004696479106470605,0.00518165806105489,0.1
0.042249547548916466,-0.11351515113150064,9.674417448599739,0.005059349368954694,0.002493964265877807,-0.017177365460413797,0.11
0.0015947133580104845,0.09110103486123738,9.694809471347936,-0.0003631218585972713,-0.014060804847110421,-0.008155367512179901,0.12
0.16195429915456774,-0.10481211597169074,9.72692693147597,0.007725574359786733,0.01606804749486483,0.008941431000023018,0.13
0.10375295948404295,-0.005337531802591276,9.883239457241327,-0.005520534834690823,-0.015489004326579306,-0.006024581063839872,0.14
-0.11238638688043275,0.056891822653206886,9.794427485618316,0.000869837523207929,0.010701599973064371,-0.003492989187721381,0.15
-0.1666313357005401,0.049757065474367174,9.899913956284202,-0.006674514592936915,0.01992565189194727,-0.019930318421220287,0.16
-0.12358057667454439,-0.03888792162856855,9.634210575690322,-0.010392804149769695,-0.005556510576010797,0.0003154684529119081,0.17
-0.053485467098263476,0.12368885602239395,9.7383582018084,0.0017981708604512922,-0.006222703753168115,0.0017151453596273103,0.18
0.12584374298366569,-0.1537871156871008,9.929359320677136,0.00544090369877812,0.012026872579925258,0.0067174147049855835,0.19
-0.06800684006843431,0.10012553197526575,9.85885953147535,0.005745377211049354,-0.001564261074975821,0.008985345391319134,0.2
0.0177563726600681,-0.11417004273587537,9.922695874102226,0.0020176582205577425,-0.006469578526709138,-0.001510917123771095,0.21
0.049969929877836994,0.03949016136332047,9.867736720138192,-0.006452506502186816,-0.003780341244210274,-0.009643992165159218,0.22
0.18857441072309722,-0.16664073002524796,9.814896339542713,-0.0016760747899212558,-0.01590532900528215,-0.004784096669289141,0.23
-0.09324069842471203,-0.0685386674977375,9.76749076221455,0.006832942117651425,-0.010364521218019469,-0.016483320038386085,0.24
0.05344885080584554,0.021643785035410847,9.784394626183106,0.010397284310374596,0.001714543839723476,-0.0028796626263335825,0.25
0.035220566467874054,-0.18655758121627647,9.8383161586645,-0.010450297458711568,0.002706230210725266,0.0036476367704129727,0.26
0.04938989956244225,0.11839773085255406,9.7816095772882,0.01164156819008174,0.00649592197873037,0.01083425868564776,0.27
-0.03151383859935261,-0.1209524108243464,9.829396137740805,0.0007972111839919569,-0.006695065267499709,0.007806460758030985,0.28
-0.09741404981927254,-0.09914539606184575,9.759407341212029,-0.00032263623718227475,-0.005312587987364103,-0.012123923788159496,0.29
0.012218440371867215,0.017780472733762966,9.685440298091978,-0.015357143367633861,0.0006859458376708158,-0.012785194532789897,0.3
0.07480077309471626,-0.181277101155645,9.599742503675063,-0.013006793398390153,-0.013760455890363146,0.015723533126819095,0.31
0.026384047433750613,0.10848390633123269,9.781842067910027,0.017842758722571066,0.007887974445513219,-0.00661204528731666,0.32
-0.1273830015593427,-0.0039044470635775487,9.78851249983362,0.02707006963488088,0.0011419284242037673,-0.008708689651043912,0.33
0.23816326889496905,-0.02746956879933986,9.761317290691888,-0.00013607021678510944,0.018817434746181128,-0.0001997317982229294,0.34
-0.057045318950568275,0.12583703294369428,9.909191016835802,-0.01774360085380542,-0.019093481339973226,-0.009677669970099268,0.35000000000000003
0.02867477698226468,0.04652408007987588,9.790141095098706,0.002164441094759783,0.006522822405551321,0.007402089180473556,0.36
-0.009745022239283755,0.10917887650076485,9.745346550822832,0.020483805058116544,0.008972400727189817,0.011497920529849326,0.37
0.06196500845920875,0.09458796685701473,9.849922738828452,-0.009902873096924924,0.008048587576159623,-0.017615651948752847,0.38
-0.035259918134116726,0.04150168776563559,9.798573398269513,-0.00037875235167813886,0.003570681341807679,-0.013149644592394035,0.39
0.13905110800463258,-0.22548594220266582,9.8648030353166,0.0032823209170102993,0.001842378105827592,0.005218021254847756,0.4
-0.025333197947089173,0.06292712601968278,9.898338828590894,0.008490579254814654,-0.01011711006913782,-0.0005388007366747971,0.41000000000000003
-0.1382786152572328,-0.07052635943207616,9.807620155039773,0.002927443082944078,-0.005005586987994652,0.004150198276711716,0.42
-0.20473098668102205,-0.06444904179344076,9.594956872578187,-0.011338714495065549,-0.002504224732269187,0.005320131229439044,0.43
-0.09276146201058649,-0.04943877000915043,9.864851373023223,0.011666630979400055,-0.0005257796319235946,0.0009724355696920292,0.44
-0.06608606656792343,0.15400867296329643,9.69577247742633,-0.00016491384310722839,0.00662399425744169,-0.0017226158597803954,0.45
-0.043906383048863774,0.006224340261127449,9.792640005439278,0.0009081564368107642,-0.002696656645482356,0.004899632702092188,0.46
0.1517458835096862,-0.020760448550453618,9.778608375691935,-0.012099927686754568,-0.012780592345863382,0.004406447703206261,0.47000000000000003
-0.07036532302432214,0.16057585047797204,9.723575186346142,0.017597832022553373,-0.009405712522148337,0.015598630260382516,0.48
0.08363466019937738,-0.060668774336630565,9.892717764325612,0.002855442252984817,0.015084395583808592,0.008139803233274612,0.49
-0.038096025754855045,0.04556331563298713,9.87052476201367,0.006184639775514851,-0.02418090757213483,-0.010283024422128369,0.5
0.07160933252594746,-0.043692164433091374,9.896314245145916,0.01290694674332041,0.021287847998984585,0.002841266429500327,0.51
-0.023703025887647878,0.14617538680809428,9.89861946487727,0.00508246355876661,-8.954670421419687e-05,-0.0014004573438578542,0.52
-0.0027104970733571516,0.14461585791212508,9.939150744090014,-0.014883501164332314,0.011025064948595216,0.020011487177845292,0.53
0.004420802277375588,0.11015492660790378,9.650317342933942,0.004399479321276287,0.00802452747046916,0.013835743901137969,0.54
-0.225283610219023,-0.02422328180624641,9.853540072666728,-0.011642538488379721,-0.005553578820336821,0.004983744524742287,0.55
-0.06759103001065199,-0.1334345734490142,9.719622824626242,-0.007167865096908231,0.005108862956316511,-0.013287510646042269,0.56
0.08946732160971727,0.065758896385123,9.807516397326738,-0.011852798466063179,-0.0010910033637820953,0.021837729192538603,0.5700000000000001
-0.08521317395710808,0.10352895258115476,9.9174989699351,-0.016018825327155407,0.00021930781613182187,-0.0015304656505445583,0.58
-0.09367427374143393,-0.04401438009032364,9.812082607801333,0.00028802344197836503,0.0037646198777735143,-0.011856142328917057,0.59
0.035818281740356894,-0.11676810917100444,9.821935851837415,0.003998847231785908,-0.0027749655580478387,-0.010654677707436801,0.6
-0.053517423703566186,-0.14283972424332056,9.974778498636251,0.004057108597386232,0.009314565147035648,-0.012026877298342032,0.61
-0.027525856130661358,0.0028339517488927685,9.829966763112665,-0.009207927056465613,-0.0010083142404997427,-0.004897126988212836,0.62
-0.04329215972850368,0.1112230689655259,9.895635241101681,0.0020011502140467397,-0.01603721032140607,0.009406614021171145,0.63
-0.08423562319115274,0.10453810039574746,9.682373451445189,-0.0078500185280348,-0.0035413097661354015,-0.0062329938841787745,0.64
0.03002943571292538,0.06074197566764923,9.681109259603815,0.0033727647031618797,0.003529553776074705,-0.00438785136366021,0.65
-0.004941957545011089,-0.09910212118631784,9.973547294262458,-0.023703922353650146,0.003907874867685337,0.007927156467591675,0.66
0.004529811827252506,0.013168411178533821,9.822029042755107,-0.00677889467021059,-0.00691743927355314,-0.019197855503348873,0.67
0.1476440530368043,-0.21599182013749563,9.780467912059969,-0.01901753581798867,0.006458152593183216,0.001736071696145309,0.68
0.07520242249877353,-0.015784516039863045,9.925019499792402,0.015669933045171627,-0.0038213885733205818,0.00467907273171286,0.6900000000000001
0.052171362378700306,-0.12411556938142593,9.801212327844029,0.017718118243621718,-0.0029413188619945626,0.0029839252480400105,0.7000000000000001
0.019396652808724154,0.13191438765378546,9.87044121547926,0.010863919861020256,-0.005451760691388622,-0.014827607434574624,0.71
-0.022738914147211787,-0.2002237546462763,9.811487548197036,0.003415938482907225,-0.009892758245325437,-0.0028931595071538356,0.72
-0.067006203209553,0.09108084331012908,9.780494733405668,0.011262739646809168,-0.004902177567249815,-0.011719718749899573,0.73
-0.0218979296101326,0.026669965292775266,9.937138624685328,-0.01331482005657837,0.01204360107038189,0.007302165343987907,0.74
-0.09144122920121849,-0.012250744277559886,9.755174091130678,0.007209677099480204,0.019901524806406987,-0.009274471778510334,0.75
-0.1620033008860324,-0.07475205560355773,9.989872620525553,0.006496160393235812,0.005785205380797116,-0.0161242348760902,0.76
0.008064573308686864,-0.22459945535715292,9.796055965522688,0.015230034449763436,-0.016895406357127996,0.003923343621849703,0.77
0.0315743576195874,0.11706505985125659,9.730862675780712,0.02377628904186832,-0.015680987844919704,-0.0006392136010169818,0.78
-0.05635350234659129,0.013099864015423748,9.85146079203253,0.005272985647491283,-0.012823877150882993,-0.012018923623485996,0.79
0.005319894380584132,-0.008201704497573853,9.788188851072446,-0.01049721686206674,0.010891177280785251,0.006137175183175097,0.8
0.052438310571920804,0.007055374160346338,9.978777834837159,-0.012483281885565734,0.0004856323326457038,0.0032167443223047668,0.81
0.1852258379967658,0.05598696876422635,9.911189265545955,0.001538440775878215,0.001511895644351133,-0.00597031037370633,0.8200000000000001
0.038229069088444,0.07792088480424557,9.668197595347765,0.006958845797658909,-0.014568159892826218,0.0037234835832536052,0.8300000000000001
0.06194970221059685,0.0038055720063255717,9.713074408542571,0.018277649250215668,-0.002353901106360041,-6.433556534669345e-05,0.84
-0.03235767471392942,0.01875178073153317,9.740745124507828,0.0064173119724296014,-0.005281692953820716,-0.021104901253227767,0.85
-0.12452189292594784,0.26805358469364987,9.715462966903283,0.006930453208749858,-0.022287595256306806,0.0037048000920315988,0.86
0.008272299974303354,-0.0106866030028486,9.854355644651388,-0.008732970419625794,0.013388350966119436,0.008440798695628093,0.87
0.053580287539236576,0.18133033617139677,9.88521356433871,0.012538659893708384,0.02542720924026755,0.009830602254836814,0.88
0.133192481871595,-0.01667614551540869,9.898727660759485,0.01578109099583707,0.011431240032654845,0.003774058396913407,0.89
0.0841092852051661,-0.0381826092796937,9.725882006398173,-0.008473168103999786,0.009316603700086322,-0.001467161439223746,0.9
-0.15034406303689785,-0.07061755510390576,9.76648492727427,0.008204266759978216,-0.00028072944345468906,0.004125725777021299,0.91
0.08697214949338744,0.08350338960634338,9.818989897875781,0.0017660402035221145,0.007741041538889487,0.004334665852872635,0.92
-0.09546236294216293,0.10060969435980678,9.765571322659797,-0.01752453103015506,-0.011815213849482331,0.008395768801838135,0.93
0.16274211366607672,0.05635565340533201,9.953404756346883,0.004802783627151588,-0.0034901645145560796,-0.003869838781000128,0.9400000000000001
-0.06381476352715136,-0.050427081708688315,9.724533252903536,-0.005259927532791127,-0.01384906682975585,-0.0063448129828245535,0.9500000000000001
0.03300952189780897,-0.1430586459086651,9.995244639838766,-0.0104266541961847,-0.0006626427729426056,-0.0217526385677065,0.96
-0.15317555476039002,0.016530430063809443,9.638283282845713,-0.006005235370734393,-0.0033119128100567957,-0.009925944894058467,0.97
0.06809012342548461,-0.09456701268434906,9.898724155207267,-0.0010474394678847364,-0.006509724568288485,0.0044035743894280215,0.98
0.13305703108471842,0.19563999891450104,9.800516718468565,0.0025626961583163216,-0.001916327885323724,0.0013529117125407786,0.99
-0.002930698542910134,0.171179078365585,9.745847307525036,0.00010070077783420789,-0.007141312827520201,0.0015653432195382572,1.0
-0.011444492435067056,0.0659772949927849,9.928310803120326,0.004555368512613039,-0.012608098471624168,-0.004107289188691234,1.01
-0.09519616721542175,-0.04851690824585467,9.842448164256048,-0.00660216860275688,-0.0022658728852461346,0.008665229578167226,1.02
-0.13583005355314773,0.13049864340173775,9.815927003578185,-0.0030890945999001275,-0.005076023193764044,0.00023204568266911387,1.03
-0.05339460110690972,-0.004876281385084387,9.654815739176833,0.006362454616411071,0.00989685374117383,-0.00899573488054947,1.04
0.032129822828958765,-0.1399487668184725,9.72861389201154,-0.015061972161135003,0.00806316040305549,-0.0025249965770851963,1.05
-0.0035723520817405882,0.07214997223774154,9.786543853201636,0.0011821530453319632,0.021226240610665612,0.010750617653263572,1.06
-0.004933682874979922,-0.2413786055163171,9.758887509877866,-0.00040569824752461996,-0.004787459318927324,-0.005451356210301521,1.07
0.019775061528851418,-0.00881269218113566,9.581638756061565,-0.005568148908402367,0.0022263071278752233,-0.0009604052003202148,1.08
-0.039635627646010106,-0.0038413498252066833,9.832818198564766,0.0068204309109220805,-0.018940236493142668,-0.0035366963958472254,1.09
0.009855736805293957,0.08210671465587699,9.801544856992342,0.005414323149659568,-0.0027730941159703425,-0.009374580780190463,1.1
0.1550120899120088,0.05886402856236372,9.809636402754531,-0.002907337571105768,-0.004680222643349929,-0.014478704149102031,1.11
0.021421594797913432,0.0658005012552006,10.004045490967178,-0.005596830578599317,0.01290701175586108,0.0034573827303480244,1.12
0.14730275250019098,0.01570844757542872,9.833586933173338,-0.01403075706923041,0.00014652430404843574,0.0006658539139773525,1.1300000000000001
0.012462832865032955,-0.18441187636867304,9.928670691262063,-0.010564128737618344,0.009867119826163855,0.01183170576788647,1.1400000000000001
0.0395133441820978,-0.033626764306706254,9.872905331660121,-0.018512811624438633,0.0015814922817862422,-0.005023689225424137,1.1500000000000001
0.31555924127428936,0.21162821831037473,9.766241369308199,-0.0014823445429660383,0.0037860342166796046,0.018352277446283566,1.16
0.06845250596911977,0.010156799179757429,9.745300705827287,0.007059234463198549,-0.01972819100181019,0.0077923032130587065,1.17
0.19981846397663827,0.11340562567477847,9.740520901603466,-0.015097757749730972,0.004082777464375995,0.008435309634810704,1.18
-0.009444378956640277,0.18573672843066014,9.852157372436706,-0.007839766642770103,-0.013568840969670662,0.012666083145857645,1.19
-0.1948099440693607,-0.09493810167767855,9.757542174580736,0.008022623488016956,-0.011897122393651482,-0.005136343292356348,1.2
0.007893423489708755,0.056690470628525204,9.756797745925358,-0.004086774142710012,-0.007256435846397822,0.0027313870485176444,1.21
0.039748286501027755,-0.13219303575137978,9.928468375662794,0.010219638757649066,-0.00525577647349475,-0.01578508312346402,1.22
0.10679639873547363,0.06213116844105089,9.892026850361567,0.0033210167061657986,-0.0038280493840601643,-0.004487263465039356,1.23
-0.07862702768454935,-0.10160426784080037,9.860096803428831,-0.004111747907299708,-0.001292450331972548,-0.0037381511144470294,1.24
0.06535736674244673,-0.03139568331489586,9.639995794661136,0.006081926643428854,0.010120684317890847,-0.005524315606242526,1.25
-0.05855706772198371,0.27028937353523286,9.726487180443423,-0.005563421625447219,-0.002390698542991683,0.011189504310962613,1.26
-0.08523450983249081,-0.33571152885109684,9.799934071453558,0.0019095591862447268,-0.001802409669461505,-0.009390850818451525,1.27
0.09141625743502468,0.034462543189612234,9.773547675372924,0.007597201573786726,0.0027075510803611946,-0.0025548713968147523,1.28
-0.1575119201310273,-0.03760593142923697,9.79647231603545,-0.006193463976988087,0.011828237134118154,0.0072969722215001295,1.29
0.18886157404198625,0.06668226181349934,10.009663322180472,0.0037390502225044414,0.008381125915736977,0.030318027436039504,1.3
0.01189588682134695,0.14207659090110708,9.876597785667872,0.017181023477491578,-0.013431871706097068,0.009217259232536669,1.31
-0.004434761073403587,0.04286087735795001,9.529494868598869,-0.01185772213878618,0.01736374905399354,-0.01326970686511087,1.32
0.17602693318632345,0.0119920722435868,10.027080275458733,0.0003636162756207734,0.004206484231441044,-0.008942822884341475,1.33
0.06142604913633718,0.07915996836801568,9.807570812307102,0.004942663852767828,-0.0052195935902665195,0.009642028609728294,1.34
-0.010715974032400972,-0.13120450037299772,9.825055236804076,-0.011126224709704173,-0.004847998552018288,0.004204219565423695,1.35
0.015939218962793343,0.1347908101775075,9.73301048542489,-0.009940570871004096,0.008038592707256313,0.0028901717257323236,1.36
-0.1938537751007198,-0.042451868643886885,9.85585330516637,-0.01788208300620829,-0.00430031732956031,0.0014925187651568675,1.37
-0.14424034480940223,0.11239004796971615,9.858205119495409,0.007005655346451434,-0.0033066104959988372,-0.00042792568763486973,1.3800000000000001
-0.01807774296599354,-0.008360406705072524,9.827093052783095,0.01359864724131781,-0.006938582340055004,0.005239436650788345,1.3900000000000001
-0.09161118719713666,-0.10110062447230295,9.77368429677555,0.003009107168362989,0.009066954178644374,-0.009360951408654403,1.4000000000000001
0.05020981506214785,0.06944665121310475,9.775976400449288,0.008040283537066746,0.006358078440020052,-0.011292124732142918,1.41
0.028112043461190797,-0.017596087657990738,9.774304433307021,0.015553213863087972,0.007119850754232921,0.005472008888970315,1.42
0.11981991628188665,-0.1523737127660281,9.68368277028153,-0.00020342034644307058,0.0012593787547977328,0.008621872588085614,1.43
0.05738839588021593,0.1439984645461412,9.625734712543766,0.004331431775836384,-0.010836417675550585,-0.0025095067237931733,1.44
-0.14843930330911848,0.008738968897157248,9.740043967149381,-0.009570975283027926,0.01806920114259172,-0.002536357184176155,1.45
-0.16778331270300118,-0.1687378442219132,9.76115008235712,0.0038737194721045727,0.017883748941512095,-0.006884359629484749,1.46
0.025652025250037597,-0.09931745152938466,9.83294532597992,-0.023834780866872945,0.004736451755456507,0.010105919305917279,1.47
0.003162741789460126,0.05619436161667433,9.828199026482745,-0.007849848640352352,-0.0014806130175475955,0.013452518130717316,1.48
-0.049767033901350635,-0.07182258975713682,9.940309051761128,0.0019007857245835031,0.004710691193345583,-0.0015557573782579268,1.49
0.1183862273354977,0.014713506486803463,9.605528384034166,0.0061925200980074285,-0.003681684652335904,-0.012088864977041973,1.5
-0.20733513144054308,-0.07074940877162439,9.655325046794053,-0.0013230785178605401,0.004550997743696134,0.008471920539180194,1.51
-0.12664729253859916,0.045079801221207486,10.017836553866363,-0.004843415243594834,0.027631807840995837,-0.0009452535952081737,1.52
0.0029496694741364326,-0.06681000264827724,9.839978406468992,-0.017098009004122453,0.010436125883747756,-0.00640941845943073,1.53
-0.007613113374361775,0.058278119529177524,9.751259099874773,0.0039888293267054545,0.0030376209415726206,-0.006585476891754211,1.54
-0.15952157500162176,-0.10645407870367636,9.771130964052915,-0.003553445159604292,0.005840226724657794,0.011066213103179415,1.55
-0.15098918745176046,0.072932956745308,9.727102763366737,0.005253784672645227,0.01181488605151116,0.029827192990412168,1.56
0.043163402916950505,0.02185337622728207,9.860492328538392,0.001968788740430787,-0.008540962417860311,0.023203150723803606,1.57
0.028570703217524432,-0.04268064548982625,9.745816825276084,-0.0003641787335347342,0.0004481195169990036,0.007638143415617303,1.58
-0.11843363405028924,0.13202039579270428,9.690439567625267,-0.009200064194659864,-0.020552486780949786,0.005657831356110318,1.59
0.08965569071631357,0.02584384312285928,9.718486481796205,-0.0004799109172702625,-0.004262853128317251,-0.0031556644121596357,1.6
0.1668685674301978,0.016842837798958423,9.774600023080954,0.0019668675951699426,0.0004830362959948951,-0.005320799365369639,1.61
-0.11609900257618566,0.12004064191447988,9.744349070338547,0.0003648079775585619,-0.007175834985524071,0.005369307641266981,1.62
-0.06828759929199855,-0.025577670227226974,9.857362334908238,0.015503898403042098,-0.023115573971225992,0.009640475931965153,1.6300000000000001
-0.10295070457755245,0.10831226679985134,9.711338812642778,0.010960335287247084,-0.0013843885446560291,-0.014495843919390735,1.6400000000000001
-0.15733284290490795,0.13639476606571463,9.828394156766688,0.008769333254626916,0.004893962868597371,0.008720505079788214,1.6500000000000001
0.01504871852116383,0.05845674952169873,9.841637622281416,0.02429670951016677,-0.00990337761725599,-0.015540629666648135,1.6600000000000001
-0.06152420886019821,-0.15913114565347494,9.893224624879615,0.0017655038778135069,0.013116028328052944,-0.007459095794243594,1.67
0.19662056840472764,-0.028670627048255834,9.972856604692279,0.010228135558485231,-0.00029234171210950667,0.0077717857309661225,1.68
-0.04333090474428927,0.06364930619688806,9.908515051411719,0.003792054313608519,-0.003603892709936547,0.0074963501661839405,1.69
0.07800665323353713,0.02756843890150786,9.828550660070043,-0.023619256058530293,-0.0016049036386001916,0.0018812447064777507,1.7
0.05901837652391248,-0.043782479029005256,9.899619509646707,-0.0023307855313547004,0.004616239138725326,-0.008095589685029188,1.71
0.17229118289882756,-0.12575718821067927,9.619162519945299,-0.0016676305400224413,0.006798656461543425,-0.012127331615630689,1.72
-0.02220583608729151,0.18366115652327322,9.931685018217706,-0.007977034073649135,0.012640989556894784,0.014527593893464896,1.73
-0.020303666956096533,-0.010772261903145838,9.802464739717369,-0.004337771006514019,-0.003636704819793461,-0.002756907395643868,1.74
0.11069737432620425,-0.04220457157863777,9.69894022180967,0.0004540488576535422,-0.010573795794444507,0.009872528089728768,1.75
-0.0679377768502314,-0.06397834869314577,9.939478879619307,0.00941367685637815,-0.02924717687921165,-0.01663406192350831,1.76
0.09677657661703205,0.023391167685786026,9.777604528354953,-0.0003827037370043372,-0.006307456915063002,-0.0027735193102005414,1.77
0.1545199093596513,-0.06538133215689074,9.985847863477293,-0.00456624578380647,0.019573579235081493,0.0015507020336071947,1.78
0.21835476220638494,0.10007054709936376,9.848522393891269,-1.8945221820740306e-05,0.0005287770483778111,-0.009461832445002469,1.79
0.017619061970751717,0.019291321439378027,9.689368255417314,0.008531470936015854,0.010134121668490901,0.005576526419751752,1.8
-0.07637150302734726,0.09680113874725327,9.79516737855103,0.014227800869282905,-0.0008346462010588396,0.0054186188275433915,1.81
0.018371983445629278,0.16889414194602187,9.73288348694873,0.0018845673754301986,-0.0206794428376267,-0.007029291455910271,1.82
-0.05037663012810531,0.06830520807808206,9.63461406480594,-0.003511441315971052,-0.016713200592926886,-0.01634908372806138,1.83
0.04151189756684271,0.04410307059566653,9.780583573870516,0.02081166981567897,0.012659716461098036,0.0028355482852322734,1.84
0.018562787972047103,-0.07386166727462742,9.918281013659843,0.00014812937537038535,0.0033603151320512332,-8.65912224508516e-05,1.85
-0.16034149868149392,-0.15916377551006566,9.667636857380314,-0.011933180046172463,-0.0055137655965584245,0.015175315694176683,1.86
0.13845469506998875,0.018204087395001494,9.844238918766143,-0.0005359918846258961,0.008800527571638466,0.004960021569776181,1.87
0.0179189111115368,-0.006752671862832019,9.853185590588415,0.01585099787598212,-0.010964468241400316,0.0027884049123022177,1.8800000000000001
-0.015569517723963911,-0.08286393341093753,9.705294727013614,-0.008971813485518476,-0.018375648380450037,-0.003149483546350917,1.8900000000000001
0.00038796829307868744,-0.048067577693760875,9.87750866350686,0.0026570222540738316,-0.02351165694357558,0.009458791781284486,1.9000000000000001
-0.27212870651480575,0.1324758411171233,9.85429075184783,-0.0039209468030463315,-0.012624931166148583,0.008874280698774762,1.9100000000000001
-0.036453574959077785,0.15277902747806404,9.700579842735815,0.01216510656809854,-0.0014236229083183704,0.0024446865557124844,1.92
0.0188845263961762,0.0939069659517433,9.871704372884004,-0.006950461028086698,0.008398333079582723,0.0017019964491561254,1.93
0.12695597087637472,-0.031094776100853174,9.826697096715217,0.004411140548361405,-0.0038522954884499224,0.006731626893267187,1.94
-0.06638288988828348,-0.016206427617951755,9.787347488220199,0.01566237627966915,-0.00101843270421998,0.010615715845183107,1.95
0.07186819861228104,0.2381174670177434,9.736677481266359,0.00019828826163752707,-0.0077351640618636185,0.0010123412947953242,1.96
0.16137175784945146,-0.06409451636964934,9.7323927773982,0.009617176446404802,-0.006711994449421438,-0.026462446621997118,1.97
0.031788962070028355,-0.18212165001254454,9.70568949928701,0.007900922395960554,-7.549134059969905e-05,-0.009648902110126591,1.98
0.013591809405392669,-0.03607261055389121,10.028065457864459,0.010625081988052506,-0.02018322598855008,-0.014941072537628415,1.99
0.0898936836270666,0.012180853860728563,9.771287063628682,-0.005828544486390075,0.008503583016370811,-0.006048873301579988,2.0
0.12860866994588965,0.14150506380940106,9.763338848402102,-0.014593776848720997,0.007710794458573107,-0.007067210235823292,2.0100000000000002
-0.0904215853020061,0.24560170004289425,9.869407214629861,0.0011690995259266907,0.007156245435695511,-0.005112250052631907,2.02
-0.08808611446169003,0.08554140765689967,9.859174703535011,-0.016159635743687867,-0.007477757946905106,-0.0051897397299541445,2.0300000000000002
-0.032481771946185053,0.07100255571945403,9.853117357506378,-0.014440058046647311,0.013049918601189757,-0.01866491025313058,2.04
0.14335987922425916,0.025740673394338966,9.997228367237655,0.009504424795999653,0.006731845004879111,0.00317885345595151,2.05
0.0266717375395163,0.034035880074185294,9.896820564367635,0.010285499879495879,-0.007907430106328453,0.010636572573229797,2.06
0.20723168123838823,-0.0692471200700047,9.751544872398782,0.00956966289592397,0.0096519856867522,0.005757627374674452,2.07
0.03347848766175803,-0.030572266591639335,9.852432326228454,-0.006051722321502059,-0.0008454822188424937,0.005328213878945043,2.08
0.16078787248628842,-0.031143618341721892,9.88729132341435,-0.0067221809878495395,-0.00909887219481715,0.0014391185219845579,2.09
-0.035508252327724664,0.055575350112581384,9.804769586781568,-0.0075881870416083545,-0.006182933270418218,-0.020354852071648336,2.1
-0.11147050505765616,0.04651058573626938,9.82682088692403,0.011039808351449727,0.002435421203246346,-0.011524287200778402,2.11
0.011857216872210037,0.0870863633338109,9.683917996611854,-0.013675418510093443,-0.0039763128386292625,-0.01490011729321797,2.12
0.04740488042791126,0.030522396963102324,9.781604405569396,0.00964763356225449,-0.007785058585695024,-0.013309200812773526,2.13
-0.03614770250875471,0.07531098445832834,9.964024853319472,-0.010520905822682034,0.008291671171191103,0.007657442807478867,2.14
-0.00029201204242903974,-0.09440058363642695,9.82139203722844,0.008035017118222272,-0.008083022970239306,0.022380547657443496,2.15
0.05267556034258352,0.1673999914457466,9.8756447033094,-0.021983709284178535,-0.0015509347696609208,0.01025419297645522,2.16
-0.15301203823201542,-0.06029513046707226,9.855949778780689,0.00037378047051520014,0.017121764717191484,0.012615722658857714,2.17
0.0237939319609701,0.16772942089162943,9.797378519732378,0.00566156926937824,-0.017456946170782285,0.004501871476287814,2.18
-0.06743785140912716,-0.0012923217165481172,9.748155076677325,-0.026305593373394477,-0.005821334069503299,-0.01519796016300152,2.19
0.13515444450128872,0.05165137187957891,9.825844723192088,-0.01109993031267614,0.019289977911313268,0.0015653162740493116,2.2
0.02328692962655496,-0.014773835954261816,9.89130232627818,-0.001576638820339241,0.00012479838870074056,-0.009766293130667859,2.21
0.09756388458632563,0.031301845925452716,9.82421143279039,0.011620845576929299,0.011960948378310257,0.01276071991516965,2.22
-0.027030724465329094,-0.1798828284614225,9.772100205912308,0.004308293406039861,0.010659720990673385,-0.005384518395777748,2.23
-0.18911078311349894,0.045982646530262426,9.793988513679507,0.002824120009268897,-0.004818221207054277,-0.01164419616941022,2.24
-0.11310245360008025,-0.01513239809732048,9.767686326950315,-0.015398957748641364,-0.012598755780341865,-0.0054713569725986875,2.25
-0.05016973396871423,0.0347122790531262,9.885889215787119,0.004025032153102044,0.00917043948794551,0.002539384546885973,2.2600000000000002
0.15093198198405924,-0.05818103529520037,9.863763072377552,0.0012604141764129043,0.005037197831059547,-0.0022932205135815092,2.27
0.1644430665138367,-0.18369867658045297,9.780634737128644,0.014171364868747094,-0.007436526138389739,-0.005478396828264267,2.2800000000000002
0.01895001023450646,-0.01915009236531081,9.803346934535442,-0.008341167561269111,-0.01121203733151622,-0.008311955241936996,2.29
-0.044543422256279656,-0.057756465607547824,9.920331782907075,0.00030752932827585,-0.01331040878825137,-0.007688868363637927,2.3000000000000003
-0.0593594195764403,-0.07064225068412237,9.845368364091092,0.019203469892838138,0.015605776604001411,0.008751907936844133,2.31
-0.17232887448862522,-0.061386728301777764,9.722427936940758,0.0037312887321176735,0.00678091137504974,-0.022497875673269444,2.32
0.15854788313302848,-0.13551322846329814,9.655894760792297,-0.0012802473677110404,-0.012974010977229515,0.008851951240550106,2.33
-0.015035713833648039,0.1368981004569609,9.764840456819545,-0.0003683735238315388,-0.00885572477307382,0.003725107281126165,2.34
0.051245489425360835,-0.031235754299402646,9.912025643157937,0.005907918121793146,0.000660312615014315,0.007285841855154597,2.35
0.15096631033293428,0.06296332889605771,9.853195046797987,0.0029613587614871722,0.007150576732171831,0.0047249603241957564,2.36
-0.0009909103200269615,-0.041578593112470176,9.879002390035245,-0.007306825013740144,-0.006327984177977446,0.008587364964883578,2.37
-0.00394805268444108,-0.24253816125899752,9.666826141951228,0.00227436024078905,-0.008121072056044178,-0.0032874783875716934,2.38
0.010701184330886538,0.1279034015948329,9.792621206467935,0.009293938985662395,0.005187647783713406,0.004341027222132065,2.39
-0.09123634558649976,-0.09060236758361356,9.682484094314022,-0.008390912616445634,-0.02436974108983748,-0.006351726817166264,2.4
0.15599302971045056,0.04959983476853508,9.911247259130196,0.002303160810937661,-0.013505689302992781,-0.008418619839971352,2.41
0.24714750422732876,0.0018097437159416063,9.874116323498844,0.013826671960530775,0.00021944113923310344,-0.01261744876382883,2.42
0.040210995291325095,0.0932270807983318,9.819709220072767,0.007729364988058241,0.011186158301900657,-0.00599668882337195,2.43
0.008067432321860763,0.01685280093274881,9.699257534142404,0.009974648024736783,-0.005502166111289635,-0.004052255180346991,2.44
0.04154347254183973,0.030901612139680835,9.681576882252514,0.0077837091707354,0.008322229881059781,-0.0001930373141621428,2.45
-0.036620347576734845,0.08656814413241395,9.840099986484995,0.0016465164882124481,0.0064017151161113554,-0.018608769102179408,2.46
0.16637545933198364,-0.041663072300632265,9.78240748377021,0.008608590962085045,0.022992467631911016,-0.0013040199285163782,2.47
-0.0923199041605306,-0.04970443361761857,9.692449043758257,0.0031445446158786866,0.015106161764102326,-0.01249642864917265,2.48
-0.1186146302190184,-0.06728995684452858,9.633956710648235,-0.016245884332851505,0.00174268156989856,0.004239438397140548,2.49
0.13789789095489366,0.20868779743964563,9.838526957479305,-0.0030348159745604347,-0.00040485829322267164,-0.003295572259817743,2.5
-0.024902752385115797,0.07191330613404108,9.932742547148615,-0.023571535430704605,0.010115275292637498,0.008725040841513407,2.5100000000000002
0.06453818381835362,-0.11575234998583211,9.837151871098893,0.00235799394678471,-0.00019940089661620318,0.002851787122639871,2.52
-0.008519938901060042,0.14520470686526032,9.95119151376882,0.005438057813412138,-0.005308694633325489,0.008950301679569915,2.5300000000000002
-0.18597019565727957,-0.08738247434771018,9.70432772914214,-0.007556024100191152,0.00298766104098041,-0.0030010028523215315,2.54
0.23069418936997566,-0.18048393861276213,9.991659358060092,-0.007830423651447186,0.01809790061020296,-0.008204725634458385,2.5500000000000003
-0.04875430195807349,-0.030390163345203093,9.826570012726206,-0.007123646015115307,-0.004838125656860956,-0.002355770546331395,2.56
0.09044705060240049,0.14610225940545493,9.740605809023643,-0.00043866013287576866,0.01415679811360614,-0.003894209287505672,2.57
-0.08396194004292203,0.17166497963625485,9.908895388561202,-0.0037448777147731627,0.00022178157071640013,-0.009685920964229936,2.58
0.04989402956737917,0.12377540064081355,10.042661474081344,-6.146719646651154e-05,-0.026664306855954254,0.012102902452839587,2.59
0.15628763896419517,0.13990856868917995,9.845934431663835,-0.0038297320931665406,-0.005744809300393869,-0.006204258862397973,2.6
-0.09905081253867459,0.07971190733166124,9.637730308540533,-0.00020317269559322546,-0.004129953063552552,-0.014144970962530265,2.61
0.18334460871787753,-0.15806120552253156,9.96305606756129,-0.0010684075654590467,0.005395580949215674,-0.007057191289962952,2.62
0.005690099697157681,0.11554267277226227,9.757744082259832,-0.021140258294220705,-0.002451508459387974,-0.01114174251241886,2.63
-0.23702285569830625,-0.08644760993570827,9.890354998362422,0.0002809580576993871,-0.0019686057403468247,-0.010911855963655752,2.64
-0.1525233825061691,-0.26568135057223613,9.825439536458871,0.010102997176382283,0.005011139519085473,-0.0068841132110255025,2.65
0.15317778532258935,0.02576051619385085,9.81877505162797,-0.006741060818099324,-0.01689057153317171,-0.004487343275432302,2.66
0.028435872839972315,0.045109530744219514,9.799195107387776,-0.006463615741468346,0.0050989834095195715,-0.008340399908635434,2.67
0.03528680118806259,-0.13737670917486963,9.734378051723937,-0.00040988102727791757,-0.0033842565399691783,-0.00812446749946127,2.68
0.03346109468303842,0.1507716963893216,9.755889789985666,0.005330119883304022,0.009675355086174276,-0.0029643021493523914,2.69
-0.07315224409178434,-0.1989741137463753,9.850870135399031,0.004265756293436479,-0.0014197130375697847,-0.019531925530886684,2.7
-0.15802128000608906,-0.17084236378343878,9.700694423696051,-0.01149713170501012,0.023256632412802375,-0.014400270784421496,2.71
-0.1972829937402333,-0.0824720029467867,9.730735053796668,-0.0027644834480601483,-0.006786210173614247,0.013559719028105604,2.72
0.08662642808217934,0.08604168626535533,9.813979579340463,-0.008703829912093466,0.005952357752234261,0.002246448612744935,2.73
-0.0025477767350906245,0.07829009996331543,9.720991478552845,-0.0026624972526884815,0.004566068194511058,-0.005419852071082116,2.74
-0.19387225304686895,-0.02700634000009676,9.96541754582495,-0.01782324009791422,0.003979778415358671,0.01130076249313285,2.75
0.11219308862741972,-0.1777836070033274,9.812873197018245,-0.015606286819980776,-0.004973646576571807,-0.021880725965571304,2.7600000000000002
-0.11833259380575892,-0.0994202803839031,9.762072373300198,-0.005463892382035024,-0.002540084883257618,-0.01254903998169397,2.77
-0.13869823988718533,0.001780669645596392,9.838823070159014,0.007720301108707907,-0.009535824898148373,-0.002952272662284034,2.7800000000000002
-0.09437310781963071,-0.001271885602193304,9.880390960969848,0.0026001417344046363,0.014287935443082907,0.013778524635320142,2.79
-0.06142172944570023,0.041250174452078854,9.915245327518786,-0.004955866897479125,-0.008502310747833369,0.01193087822025634,2.8000000000000003
0.07163113368365852,-0.029851028798278802,9.808826583216023,0.002166606425752026,0.01355602946420587,-0.00890865548419765,2.81
-0.11926328082578475,0.24359831765002862,9.806927994488394,-0.018128424835771276,0.003946109373113536,0.012576194396119726,2.82
-0.022524325110599833,-0.09575977000223405,9.672469016317349,0.003632704393019006,0.007580912524461949,0.0243870956465512,2.83
-0.011820851478640365,-0.16781625734641345,9.595070914409037,0.016890520849510173,-0.010875663762807143,-8.592716728992275e-05,2.84
0.11513863015759312,0.10753731021040612,9.867894612446927,0.016172904575178323,-0.014194278794108407,-0.010727894326250913,2.85
0.061686828249093745,0.18523586903829153,9.63538395791603,0.003092063321924112,-0.0039854930765446175,-0.003267149239205119,2.86
0.005577914649670385,0.04663877282549947,9.6655946428752,-0.013911084924725549,0.0029081507718597037,-0.006039706035876344,2.87
-0.11703064828970294,0.06002579126147516,9.751697483860465,-0.004643125448325349,-0.008399445944676762,-0.0001491922385091764,2.88
-0.15091256568629619,-0.04113397126251861,9.83553554703762,0.0017068922130687944,0.01081037845291611,-0.0004955864947463241,2.89
0.009079031337865882,0.07000488418111095,9.76167367511185,0.001525312826245003,-0.014082024440037628,-0.004713640503764308,2.9
-0.025030943381287352,-0.006395928864158039,9.755040054156282,0.004683837311753062,0.0024501126589569215,0.0023515526691188907,2.91
0.10599062340574304,0.016379351402032682,9.714823196957244,-0.008708715750189557,-0.01293619920467604,-0.00799027891542544,2.92
0.08872332439279842,-0.09366409011865996,9.87019115759369,0.008544968722575734,-0.005416037858940597,0.007759875582606114,2.93
-0.13989302501110612,-0.05925930659102825,9.898295607001446,-0.005479243154327009,-0.028815419718807724,-0.0033852270895725653,2.94
0.08557621794026594,-0.03932989388727349,9.852456334635852,0.0017695253814285503,0.00626454946672881,0.003175148198352083,2.95
-0.053490832103878484,-0.002706293621228104,9.716377401914794,0.014373077749161143,-0.018234667936984132,0.010913219736562388,2.96
0.13006183291660156,-0.04349332698675368,9.92679635144449,-0.0021154869560683974,0.0012997650036757644,0.003254391470962928,2.97
0.03472999348651853,0.04462193359798309,9.73255713546037,0.011999468540934288,0.003945216850609189,-0.01608912861148053,2.98
-0.05329992633950719,-0.07122117382140357,9.65532245969491,0.007703874780366713,0.017326848728491377,-0.017052254789251306,2.99
-0.07651222671175031,-0.03359976980597203,9.940822036610019,0.007368063305976435,-0.0029003216945287587,-0.016984898868592956,3.0
0.0981622130462477,-0.1941322890756947,9.833601719356533,-0.027206138742527402,-0.006370863052831234,0.018301539092400648,3.0100000000000002
0.0517099702471617,-0.06942528184674092,9.698328018602703,-0.01382841922315961,-0.01051642121811374,-0.0047571019686868795,3.02
-0.13736617451792188,-0.06038796974293053,9.962413090119064,0.0024544021035343964,-0.014690676816245902,0.014830123329335069,3.0300000000000002
-0.010921904118623572,0.06482908373849329,9.953473618753115,-0.0016561292239883683,-0.004861912889511794,-0.001313860497852513,3.04
0.08792716566223918,-0.09563944587373675,9.988161146991825,-0.006498206871051299,0.008079015208994159,0.008184681642591146,3.0500000000000003
0.27307516798872283,0.06034903291504145,9.84900836836963,-0.0026027284970576354,-0.0011609248559611373,-0.016716940863178476,3.06
0.060631242496325635,0.04221297124034446,9.7463771869538,0.0038185493120842695,0.006837346941580295,-0.0022492139528460966,3.0700000000000003
-0.016913146110404044,-0.03170633064455152,9.858814492365191,-0.007099927132094348,-0.009965940806736908,-0.00046375306842363483,3.08
-0.04089446627103854,-0.16112088546719375,9.52226229235623,0.005238196321446489,-0.0005602595465284959,0.003996375194585185,3.09
0.11842492719536823,0.02069871738036232,9.813613412777835,-0.00032442252881409694,0.0016570567346069032,-0.0074383873872912,3.1
-0.133216689626086,-0.21249187092908947,9.83707015965375,0.012959738164198003,-0.00355919984630369,-0.01805217747227533,3.11
-0.049153798255277034,-0.0655388301320659,9.992729291757271,0.0009739822267009544,-0.009679715114716783,-0.015497117744382593,3.12
-0.01415387413839079,-0.06332487910616406,9.80147206932738,-0.011526982013029596,0.01726719991124097,0.022855064233868908,3.13
0.2287459305445447,0.08173352363036594,9.822270900336177,0.014657143427324435,-0.0035047609072812896,-0.006188091559621986,3.14
-0.03453063911855214,-0.017047309312252932,9.890394758379678,0.011081211056115701,-0.00828638899737112,0.005016244381117316,3.15
0.12001581478991381,-0.0345830163379846,9.71454155496842,-0.021003345551111753,0.014368146084903593,0.00887611826077717,3.16
0.02668768758467357,-0.043902703558997565,9.80474937381589,-0.010049787012403872,0.0071562389208794696,0.016943714675313824,3.17
0.06869192962566827,0.08516508292499059,9.767780788977833,-0.02177267409531065,-0.00898147783992895,-0.0030257693106738506,3.18
-0.09091273838389904,0.14891019176599254,9.740885437329991,0.01256705399727784,-0.004033273054857766,-0.007235993731540066,3.19
0.16215756357600383,0.055883191954438555,9.681935567874707,0.0030534274031235086,0.006743708522159002,-0.016202027519586045,3.2
-0.10081732137797715,-0.11069072903590893,9.889778232050801,-0.0016698865135051104,-0.002483833676046528,0.011091957599446143,3.21
0.09741328164310269,0.0512623298937696,9.796605873611595,0.014591662214166403,0.013021426084656465,0.0053595521669415535,3.22
0.06636599173426956,0.08389408228428169,9.8049420008122,-0.006635203804104466,-0.018362251635457575,0.003736630806289552,3.23
0.015692910977108978,0.17699503119608972,9.702876601513237,0.0004022070897640409,0.008961486150610806,0.017872879210339674,3.24
-0.06073009318051684,0.10818516196617611,9.767568556762804,0.005181221759433378,-0.0012314088419290697,0.010990598047275571,3.25
-0.10342616242699887,0.11685345088100385,9.916759412417562,-0.015254277915520437,-0.016433160437339715,-0.008372802567596954,3.2600000000000002
0.046265214290502586,-0.01834239946955368,9.736355043052555,0.006904217919651595,0.00921011184725613,-0.009750185228005682,3.27
-0.11501886029699007,0.0664999060912315,9.792160603040388,0.004154836535567886,0.013714911522410216,-0.0005872805833568622,3.2800000000000002
-0.026596634194212328,0.018707891266703927,9.68592653977923,0.016605854991651018,-0.0021459438053311676,0.005263479105458504,3.29
-0.007092074488557654,-0.06357692864593176,9.767968289290478,0.0035446654272735835,-0.010112680975164434,-0.0024980585563739253,3.3000000000000003
-0.0190372566988834,-0.057114318768607286,9.884232922068668,-0.013007744676083333,0.000454374296738196,0.01888742705478584,3.31
-0.11705057897973191,0.06317633802273444,9.808125003774023,0.0035759083361070277,-0.013444531806691964,0.01550231707009942,3.3200000000000003
0.007340783745710787,0.16809452031845395,9.828309873666452,0.0019593574914451278,-0.004957755253145828,-0.011277925879367537,3.33
0.03335005946739902,-0.05884008698736474,9.844348682075282,-0.007335982997100591,0.013178759846452351,-0.006811101838454902,3.34
0.04358484942321647,-0.14589987879824695,9.69975628827314,0.003418773784394755,-0.013707461458003611,-0.00902953990373965,3.35
-0.16326573682729853,0.21828330726637846,9.905910691566286,-0.0017616620711920375,-0.007091821317469846,-0.000891454972402055,3.36
0.1813046715912077,-0.11413298987798043,9.704712291208374,0.011026538477707461,0.0017232719091725321,-0.0020598435853012493,3.37
-0.11663729090230078,-0.012693798657484885,9.834974661143132,-0.0018161830954122541,-0.0110465581473318,-0.010901051626175932,3.38
-0.07761921262755424,-0.10614676851499372,9.852088710479098,0.003741841854907262,0.011460748828532668,-0.0022634996555721053,3.39
-0.15124995095830276,-0.0021175427360437303,9.788321100379214,0.015609923143109017,0.0017732406664054696,-0.00228148024597222,3.4
0.11168594344828023,0.02203342347539612,9.863336403003668,0.0010753606643499006,-0.0018193128837234696,-0.007474934972590658,3.41
0.15102542565064186,-0.06266141320421408,9.792028172378272,-0.0036732140297064805,0.011380599292881152,-0.009251443425223034,3.42
0.10961344927497958,0.053304801879529476,9.772893836406025,0.0010707651169692574,-0.01204678748337764,-0.004420433055271511,3.43
0.06957551937555487,0.024293278589103424,9.869700999588668,5.91322855957331e-05,0.004181165104292644,-0.00560983641555405,3.44
0.0450695405877036,0.03118368012778902,9.749873560750055,-0.011478148949419465,-0.017320229742523015,-0.006774118890440533,3.45
0.05521529071144238,-0.13420229149481055,9.959165040969655,0.01650825151222425,0.015158055574751415,-0.0077631399655570315,3.46
0.13920443766503202,0.04522667058265752,9.826154720450926,0.0013625764451983071,-0.005484451186755297,-0.007395815087340888,3.47
0.029177360033573504,-0.08956273806396257,9.617575053397685,-0.005785517789461926,-0.010670806278055516,-0.007787159112389087,3.48
-0.2214408428859617,-0.06810062758216985,9.718446963947603,0.0006914408246133275,0.004975088529319798,0.008184082099450193,3.49
0.1496685408645578,0.026364612581555757,9.725299107460556,0.006514799677824915,-0.014075709347034946,0.005814802803371042,3.5
-0.0671867743820924,-0.04626826395017672,9.802281363542741,-0.014030480015965073,0.0043955888323057675,0.003965335505377319,3.5100000000000002
0.06367424996898839,-0.04911040845024556,9.927449216714002,0.002504184125852834,0.009293142171561937,0.012511619866645427,3.52
0.2198316798178214,0.027774255446091408,9.902774468933059,0.004609816713537506,0.010394440531311428,0.006779525599705197,3.5300000000000002
0.05484056919071634,-0.1297387967576666,9.794252722556626,0.003776193064991336,0.008806271850505783,0.002681502737162963,3.54
0.03771713190935314,0.14160322670554723,9.894731592472734,0.003953731374166333,0.015880351641037037,0.0065595034481084015,3.5500000000000003
0.07078968420975223,0.10883150309811618,9.731088478933039,-0.012544817459514829,-0.010606742288811371,0.0005652478133462271,3.56
0.015450043045900344,-0.20977778697093338,9.720257953472636,-0.010808727883860532,0.018485973911689265,0.0002882262118595892,3.5700000000000003
0.0131845803855343,-0.02321912123686913,9.64390084463323,-0.005025561246866931,-0.0027920257789212505,-0.011066745206059204,3.58
-0.03516241893730515,0.0407251378720955,9.84696952110432,-0.004091316898349836,-0.007537634320684922,0.009552674789715523,3.59
0.0997572377172024,-0.05294613747774655,9.9394540114357,-0.011575759332802877,0.009126954606994088,0.005911560852402316,3.6
0.014646103056072626,0.03961096642658759,9.850717277582987,0.010816294348879537,-0.0030404958138762917,0.002646019979658392,3.61
-0.33018304732299164,0.13298900165646318,9.898153890076843,-0.008704688780004844,-0.002047958066325119,0.0024365251435916812,3.62
-0.044092704326697145,0.06657822795393102,9.807190374933372,-0.0036100590761820863,0.0029766995764931342,0.003439786721070071,3.63
-0.09563973053616276,-0.04907669218665549,9.878284925126705,0.006698859483888876,-0.0034314652036602326,0.017835879391708657,3.64
0.04166317535858777,0.07904073693022386,9.779189355121343,0.006822573598570918,0.008391384069924632,-0.003430342332340909,3.65
0.015338412747249558,-0.008576525452067918,9.625045673347866,-0.0010288558633405292,-0.019981853992711133,0.006233816423071276,3.66
-0.0020778979949053187,-0.01653382319140701,9.893449834268214,-0.011970939670974639,0.017270875317524186,-0.013072044927287767,3.67
-0.041970758952993015,-0.1140766462087669,9.795638682142942,0.015115176359172462,-0.012499913046325247,0.0012626934200836595,3.68
0.040504712247253036,0.06593123929019461,9.730230151332922,0.008296735052717245,-0.003194719404997965,-0.004269580229622459,3.69
-0.054164350208534044,-0.02930148509529756,9.683750812351308,-0.008331399693835975,0.001560432994356182,0.0032940475416669396,3.7
0.022734163339957928,0.033083483749007464,9.67600903281993,-0.003984847021316362,0.0003950797847599016,-0.018869433993929464,3.71
0.020029305640121318,-0.06568254771593802,9.841026169684742,-0.015144441503672692,0.014042497076058744,0.0002975282659663878,3.72
0.05091803031325697,-0.03224463220689168,9.86141060708786,-0.00035024424750313554,0.0050396744456832,0.003915130994342075,3.73
0.03326152904346821,0.09101697563267869,9.833247589503323,0.008242735966867448,0.008358708272988083,-0.008703457962054613,3.74
0.04900947821767443,-0.03263914048336048,9.84650547152311,-0.010159477069055598,-0.01072515547180167,-0.0005235040727791897,3.75
-0.008512520266967033,0.005999558460285733,10.009559520765611,-0.0011708248771148222,0.003523355104305919,-0.0026995813305636853,3.7600000000000002
0.16973148550253958,-0.10638373084306184,9.950229055006716,0.008929947096681917,-0.015131832819646227,0.0023728527847458308,3.77
0.0015110477465884885,-0.1827795885768688,9.794632896553857,0.0029738464652911546,-0.010328731829042568,0.005156308229231595,3.7800000000000002
0.07188565115014602,-0.025924431699757174,9.87509270364977,-0.0073677034458706925,-0.0043938737847585944,-0.004487484260067385,3.79
-0.055327763476408456,-0.12460473174297151,9.675399255246504,0.007712234616282191,-0.011186348894229613,0.00021210172316751247,3.8000000000000003
-0.0837341213953953,-0.0061625366527917926,9.868724520696277,-0.005800676210206587,-0.004157285261220422,-5.647352363427968e-05,3.81
0.07524765443462222,0.052397862711151544,9.837873498875638,0.014872997191953917,0.01593766530313609,0.006709142557011161,3.8200000000000003
-0.04201539524002706,-0.09164941064195825,9.804757515236636,-0.0009469193990810539,-0.005615435817269344,-0.01736350412400371,3.83
0.14343539522917062,0.006001031306532203,9.841898069539493,0.016948320832244217,-0.009336636430985378,0.017081314270351228,3.84
-0.09630433501318267,0.13584632120279092,9.864998297104934,0.0058030008797521964,0.007019532722603753,-0.010475252653375837,3.85
-0.0682527691313862,-0.014749112367624315,9.767392482024444,-0.008905652994136657,0.005693325273681568,0.01607151111947216,3.86
-0.06816251134259013,-0.1677250473436712,9.855060821597023,0.0019123947333696686,0.024632845848177123,-0.01488867615911712,3.87
0.13384381931126904,0.030904034706967877,9.712076992472898,-0.001613828603183029,-0.0232366003430201,-0.007033597544817483,3.88
0.013631327162747498,0.0020828219644448242,9.690448883074673,-0.005717963541201908,0.003713321996002102,-0.008294465361617109,3.89
0.07271327477203868,0.022928558405262634,9.835748071724248,-0.014677886458430827,0.014921747017111471,0.013044868565621967,3.9
-0.1634803381240475,-0.14094240360265836,9.808231268242155,-0.00017849928462632995,0.018679179940286603,0.013195289884602336,3.91
0.10800184204490525,0.08309739077816142,9.726086376842245,0.010487591459240862,-0.019768916808678132,-0.004634265109148982,3.92
-0.046839164582866154,0.031136154583438692,9.840615112628527,-0.005020286162367029,-0.006012945247939108,-0.009047421495609062,3.93
-0.04873554887667534,-0.09610681354095461,9.793879502577528,-0.01878153707911053,-0.009899423276284637,0.0030000531940351754,3.94
0.08344503891218774,0.17551469640984801,9.82342934051658,-0.0028262083825226596,0.005384865394631037,0.0014250163232766824,3.95
0.13888790940347404,-0.06456298146855087,9.70393289732901,0.010558805899372008,0.0010129778255111082,-0.0019275881732109038,3.96
0.04920672125181374,-0.02910032495535866,9.94015333919388,-0.0013725268444016658,-0.0007777551674618666,-0.010106169336893686,3.97
-0.1277532830429722,-0.0095925264999292,9.891779848018766,0.001511434011321906,-0.006200563544464558,-0.009789939419112714,3.98
0.05877529779630961,-0.14130875936046075,9.98851629083609,0.01316695734796531,0.015745778202881266,0.0021979413619061623,3.99
-0.020030943119262862,0.03663328817960504,9.775317145277011,-0.0031757018470608763,-0.0089304532914414,-0.014375581422114345,4.0
-0.23783067442864925,-0.010752722469971639,9.641645994170814,-0.023381315829221167,0.013875248614117697,-0.009593564589289014,4.01
0.151010864241499,-0.07362943706761323,9.818139037066585,0.005895651565190977,-0.012315557640004877,0.01104497868276326,4.0200000000000005
-0.0032327071029666097,-0.05515982963019184,9.652608013414879,0.004923910650798629,-0.008054005720408994,-0.0067232745979923444,4.03
-0.016828373742783773,0.026651555969126012,9.84841313479252,-0.0027551468569934645,-0.018670031811836185,-0.016339949184039013,4.04
0.13172788293855522,0.01276082426822956,9.83170457793609,0.01735766619358148,-0.0012639500824718217,-0.0077345240102538425,4.05
0.02096229936617161,0.059300418018122726,9.826529802368833,-0.0068556972453927365,-0.0058276542289846505,-0.00556782786359188,4.0600000000000005
0.012442040731271968,-0.07156730872564049,9.769673597143145,0.019724562042356137,0.01528082938162581,-0.001283791572878141,4.07
0.04444461066876488,-0.013608563267448338,9.79706587016471,0.0019372844595513122,-0.0007456922855804903,0.015062729958540964,4.08
0.04301528084729472,-0.05825397208869218,9.701955583425509,-0.006928813819961325,0.0011920885828586565,0.008245334933482677,4.09
-0.0019460657662536851,-0.21492591956694868,9.71390807341552,0.007767474418291046,-0.007842064273193039,-0.01638284291644864,4.1
-0.18251624734635713,-0.10485283492435377,9.93163597087989,-0.0026280235799245382,0.0014252309362227538,0.012365183346571235,4.11
0.02440122684654178,-0.003279530750985806,9.943273138587701,-0.01643288519550608,-0.004970774359885137,-0.007924305804723138,4.12
0.07519215228030801,-0.03881075874086631,9.78993862445382,0.01499958109243414,-0.011357562591039013,0.008128572282353443,4.13
0.04455171767958376,0.14018278269895232,9.809033028564652,-0.010143341251717867,0.0014930287633718687,0.004282342789762925,4.14
-0.037704196943154564,-0.02942887489757818,9.956403012821227,-0.0017698058383212576,0.007215712081691326,0.006659481467538711,4.15
0.0381328339112507,0.08190360807329705,9.893983817048804,-0.0008745542457926575,-0.024168408067710822,0.017381385571204336,4.16
0.027324340128473564,-0.019400382630852794,9.806699167518016,0.006228455711370966,0.008069992131202143,-0.020537383224129332,4.17
0.03035912079809383,0.10019766867669043,9.80094605958987,0.011018281687856919,0.00918564371474859,0.004867008304457702,4.18
0.2466982138498393,0.10896760942600184,9.9117506995122,0.008231840670946433,0.013736000833886992,-0.00475284749256639,4.19
0.04342031066945321,0.20299280914178933,9.864726081562985,-0.007814911856884984,0.0051852141259946085,0.006777216105869422,4.2
-0.0338964089317088,-0.1208343819041686,9.962272476489673,0.01554388183247605,-0.013011113616952973,-0.005433646783340637,4.21
0.039034494747946236,-0.19477197312472325,9.882112713285078,0.01665672702805589,0.004322625737889878,0.004063836213974576,4.22
-0.07122533849197048,0.05341917970862678,9.75103324659362,0.01091311528506697,-0.004688777805363132,-0.001047302505272826,4.23
-2.2208876306108093e-05,0.04155258991457558,9.976159588352363,-0.010389099446503116,-0.001804641725169806,-0.005787539424413313,4.24
0.05110762951954792,0.01035541537595724,9.814053602872649,-0.0031335320152924236,-0.019116646976138348,-0.007244539249493861,4.25
-0.028776049994044157,0.1737051887581695,9.823316318643043,-0.004375441744147411,0.017225217306253773,0.00865463672390061,4.26
0.027941108366502754,0.2250276925000473,9.65763779263527,-0.012576334508350029,0.0074398478524921475,0.0033229051032176555,4.2700000000000005
0.06190895661950784,-0.06133287916231646,9.892255048397923,-0.019257011068359545,0.013330157509860233,-0.007137582050100112,4.28
-0.07705495879892095,-0.1654517131674894,9.92748554241975,-0.027134710832362248,0.0012371301952838196,-0.002766172908255663,4.29
-0.06339761813041304,0.10673490579973417,9.853882248664535,-0.001957722719180318,0.014394898455373345,-0.009040724055636568,4.3
-0.04131991250034128,0.11993962454922934,9.826626867840359,-0.005328359645641871,0.010342703019842225,-0.015899116220420555,4.3100000000000005
0.059810131205682786,0.06301971539026317,9.84342594106482,-0.007709040692116761,-0.002151487946521953,0.00972429250092925,4.32
-0.10024910518170349,-0.11981475789743486,9.717621077915302,-0.013245712256640008,0.009586563170217631,-0.0011702982299678939,4.33
0.08861192619863764,-0.25569996018884933,9.787406858410096,0.007854334627697463,-0.016311377973559825,0.010493809636254086,4.34
0.018060709133585953,0.06585821748141442,9.5848557270035,-0.002482698117952929,0.013514433613180625,0.011249193482353353,4.3500000000000005
0.09733066902327273,-0.046418189463939885,9.919349402812667,0.020203386561005593,-0.010166024485853213,0.0016457310975637905,4.36
0.203794206927558,0.06903172557123043,9.824823449920004,0.0028965766944411527,0.006697923250812329,-0.0006651016830636263,4.37
-0.08560677875625308,0.0030691766846334912,9.908509290030544,0.02113015426957987,-0.01189922254522107,-0.018355387138682427,4.38
0.07125407190715874,0.05670283934409877,9.721296933459568,0.010307189823314508,-0.005703916711947661,0.019686083790849237,4.39
-0.05087372280441171,0.12143780164152262,9.88663767566279,-0.0005583092785182526,0.006213162813512537,0.00016127043281046518,4.4
-0.01149826628599647,0.2719865791101278,9.738639594352385,-0.00934899231886779,0.006071674176215768,0.015936739720835556,4.41
-0.059725195222211015,-0.171257720019798,9.840613095083988,0.006427995290966885,0.006807210656330901,-0.013999244397722186,4.42
0.046791767750049625,-0.06277573936021202,9.834561370171002,-0.0016339306937272664,0.004041389537368532,0.00939441879890402,4.43
0.2490601800841688,0.07061487783720365,9.69450107934735,-0.006085893132277193,-0.022349527378749103,-0.007856097334213837,4.44
-0.2706395094547415,0.06217905009317148,9.812971241341437,-0.010251027255997743,0.0027586647384628122,0.020119660213672872,4.45
0.08124996484926945,-0.029120684003553624,9.689654566691855,0.015355674767528185,-0.009406598359237574,-0.0058819818370776265,4.46
-0.1093358850152818,-0.027074054737447763,9.939671949856825,-0.008476303498730766,-0.0005259642439265629,-0.01768114467120289,4.47
-0.09387020794132547,-0.15028156693693012,9.658139123126567,0.005538798099248899,0.00015411728450469094,0.01128792523142371,4.48
0.007495671187900165,0.08392904155170756,9.883622755305307,0.00803226052398891,-0.023778897065324912,-0.003809361220024849,4.49
-0.12413740479348563,0.1477870639602111,9.669952850691821,-0.006894351885946797,0.013785095666706534,0.00991351792743612,4.5
0.28044833813721515,0.05183703347452612,9.89525732460202,0.005732095620867873,-0.0028734459179122975,0.005570247294542608,4.51
0.04082398239466129,-0.10025047380877711,9.682610776166289,0.027271745143759855,0.010450952571905073,0.017993794307545996,4.5200000000000005
-0.02765261068209489,-0.03751806193070185,9.641169017147142,0.006218761764158355,0.009329420295012452,-0.0051628555067583385,4.53
-0.007065942855163453,0.017090551114509262,9.799218934606602,0.008424089046151287,-0.005366469090708438,-0.013570599457194554,4.54
0.01777863235785337,0.08218945347270679,9.788544990765873,0.011054136720699763,-0.015062788087868857,-0.01317249646205196,4.55
0.11547332890341666,0.08727571443488419,9.86740668276448,-0.0031144000361124,0.004308811106370179,0.00851662052265375,4.5600000000000005
-0.16194483099832224,-0.022834197462322424,10.049721542689998,-0.007700580753699074,-0.004371884453178986,-0.010154309847511794,4.57
0.07127748809497099,0.13167445579273154,9.828627172472164,-0.0023252988421951152,0.007143029643628185,0.005600486238517817,4.58
-0.12100080031648502,0.04480456220444275,9.868132823988779,0.0017821047104052354,0.0016948382314516373,-0.0038941816570221824,4.59
-0.08553198345491053,0.02576686282280906,9.749658441328327,-0.006578408087501524,0.015635683072328127,-0.0026746740125662962,4.6000000000000005
0.08624057437165734,0.13087239475180246,9.78793925016131,0.005812478110854937,0.00782469837171084,-0.004538530886527295,4.61
0.01949873828428235,0.007999762205739783,9.988241280173405,0.008853453011404508,0.012745080782763582,-0.01158992309634478,4.62
0.04985478318843664,0.013451413171609814,10.0099981380209,-0.018344868609638947,-0.006860270035876005,0.006954427954134894,4.63
0.12380173998961407,0.10564025187638958,9.72608631702971,-0.0025100367547849674,0.008268132524649538,0.010364179906060556,4.64
0.06465277397865128,-0.11492003137612423,10.05292396973668,-0.011974653432143439,-0.021798620304265603,0.01699279597219027,4.65
0.0916842936334035,-0.12150444539926518,9.925808492593246,0.0008566494347820654,-0.014632611066050476,0.004599334664993663,4.66
-0.2286406731516899,-0.08388493932985305,9.889511657451589,0.0006483760171383167,0.0023654198674371366,-0.005646806627269961,4.67
0.13406400978468114,0.022116675673814964,9.674730018635689,0.005001481795406341,-0.002348037553467532,-0.0006236751042487473,4.68
-0.032841704863784286,0.1553227149816348,9.89291008175218,-0.004929943775894381,0.013450376196739005,-0.01793662654179648,4.69
-0.06017259058423751,-0.05280015147992417,9.77305775396025,0.00021540135376087971,0.008327282004593269,-0.002498920715494912,4.7
-0.03224594450753581,0.10986354537268349,9.909497665729543,-0.005050970657391209,-0.0021527808864348144,0.004502017742553033,4.71
0.021231793008298742,0.02224310408317423,9.709889177262973,-0.001191389183036985,0.0018478538846812712,-0.0051720538701856555,4.72
-0.003892998828757162,0.15030980669869892,9.806763038451901,-0.00636304656493176,0.0088262718111061,-0.0031753117952537757,4.73
0.03380000184605222,0.06853787547896639,10.020720751352636,-0.017101426327566435,0.00041905407063302534,0.008597459081264617,4.74
0.05764555962165566,-0.0302806334648337,9.765569518418292,-0.00026523329175026785,-0.009754838129176754,-0.006405216413317896,4.75
-0.15145795048148125,-0.04202911728569503,9.745382082167396,-0.0005338196947900236,-0.006794582869268873,0.012770357915077822,4.76
-0.12990450525462066,-0.09675048562904201,9.727870779843569,-0.0018512008409666755,-0.004896206826335845,0.003400348990191224,4.7700000000000005
-0.04148799340976232,-0.151127867757876,9.853308369838425,0.0032743272936898707,0.013181991057734167,0.006259363974423805,4.78
-0.014252644522404372,-0.11326900152201849,9.929351980706974,-0.0008505917602565944,0.021767586865114725,-0.0006571772434773627,4.79
0.027237441427349924,0.028600761896681218,9.899436404855354,-0.023903213518578156,0.008233012160013597,0.012405049517284258,4.8
-0.06759087516103678,0.05897566426906207,9.728447887768672,0.010653219668365197,-0.012587657833209873,0.0007572875313817088,4.8100000000000005
-0.11240184909094063,0.003060347744054642,9.809909644192784,-0.0005454535005662197,-0.009760217785479813,0.003305929610663518,4.82
0.05441838151677854,0.09406379569344081,9.774325814861768,0.005149911133592268,0.001886964177883342,0.007692179362124165,4.83
-0.05710233546536975,0.003960873399914093,9.551823903224433,-0.002720727529551929,0.011153375867905114,0.01227461028042778,4.84
0.06324074444089209,-0.11596601230144139,9.78053768989011,-0.004277558736135819,-0.0034123556448392893,-0.0015834711279629672,4.8500000000000005
0.04954790277094322,-0.02172404071742279,10.133368804885349,0.016616314277856106,-0.01921350314515276,-0.016361728907582893,4.86
0.15002753893617696,0.015269411472546035,9.728142390005837,0.005412923986933605,0.01109653407890089,-0.014583505291603129,4.87
-0.14352170643641896,-0.013535229788071312,9.7624750770413,-0.006679710156421238,-0.006552605520908927,0.0010012966471709458,4.88
0.05744364020759146,0.01846428373385115,9.81476346580239,-0.0024047317106438764,0.012022550249412307,0.010964010099833315,4.89
-0.0030395730772308765,0.12752379286319857,9.77563915036008,-0.013851374874825118,-0.011035532413277196,-0.005865828057753597,4.9
0.12235407887968155,-0.14375686843832913,10.033933890021592,0.006357808192445564,-0.002768206986699235,-0.0045201867878340565,4.91
-0.07570407307283272,-0.13641097858301812,9.724981270363257,0.0007811186065663085,-0.012144017976518956,0.028425288946515036,4.92
-0.12653881198589775,-0.09953349092143951,9.775184536923026,0.0020050722906684386,-0.000671912140495613,0.004484108108188953,4.93
0.0377818065450004,0.0841351985006643,9.941910212264402,-0.016183841712351005,-0.012861656994446708,0.010200138908747037,4.94
0.04181591595211366,0.03562384490979706,9.722056740665941,-0.0005531760494403554,-0.009028867196198921,0.011335802686507062,4.95
-0.009969346883819766,0.2002210162762466,9.746905346554232,0.005591783345735422,0.016235636930426806,-0.00013743025249470572,4.96
0.11177698005859477,-0.16100890270329984,9.888605165697465,0.0052988909829788065,-0.010609289144506854,0.025001147874780864,4.97
-0.07577259794081118,0.15967265246704276,9.613985439535215,0.008249917662564317,0.010679222947853714,0.0012244725148305977,4.98
0.02874433945754884,-0.076310209065772,9.935148408004508,-0.00098535267818299,-0.005838139611548521,-0.015715806313545605,4.99
-0.20740301955405266,0.09090917927685639,9.874187406598848,-0.006820764398139729,-0.004029123365733122,-0.006661835589364269,5.0
0.038884539106589455,0.23268588206296756,9.731913491345013,0.003210123139395179,0.005262790231640409,0.01260294298631627,5.01
0.09783251540471671,0.041170508843308765,9.841991548911022,0.011069773539270885,0.005182854602870259,-0.016523260310861206,5.0200000000000005
-0.00852428526562543,-0.05108979414891105,9.959281062606705,-0.003501571488511096,-0.003924936662757322,0.015848320177848266,5.03
-0.0781385054328023,0.004514827585498834,9.725589871377657,-0.00387825388731173,0.01496249107659276,0.014265121205030611,5.04
0.013088076704931915,-0.2111265462621281,9.712339407705029,0.0038848832286422596,0.006991410105561907,-0.00495392600287784,5.05
-0.18825167696314613,0.10858635594950956,9.896886854709013,0.002798059155770796,-0.011593831524430774,0.009722337492477848,5.0600000000000005
0.13582021718108386,0.004248297200027943,9.701714317028134,0.021364415643226855,-0.01377664421379086,0.006394824077239164,5.07
-0.009336208079990258,-0.09567789034353273,9.857256660003516,0.014768493108061083,-0.00446265831786193,0.004234654722216157,5.08
0.1638617921247233,-0.004455303437419082,9.657021207679058,-0.012477709843552063,0.012871921701290765,0.0003700883057970319,5.09
-0.04503863833393747,-0.08164812664704595,9.823527422932706,0.008345424840691479,-0.014125649561684375,-0.002677283703314955,5.1000000000000005
0.15576038082171373,-0.04117118744832246,9.727087763942952,0.0032031897945719074,-0.006068945659949288,-0.011597735566537417,5.11
-0.07064769983240264,-0.005043865710433436,9.838161882269272,0.016550277883409983,6.613384207924109e-05,0.007745332418509011,5.12
-0.013956192314740618,-0.16715359797734625,9.819947883136185,-0.004497521092613176,-0.0032649310721014953,0.022015572001094833,5.13
0.10790324372695928,-0.0551637995242265,9.76909888386806,-0.005122083055595701,0.0004616735029507241,0.0031749991229130347,5.14
-0.13105810945155086,-0.17490335539617377,9.73204272655415,0.003374933483086059,-0.0017898128722534578,0.017301986846904954,5.15
0.06639931647278444,0.03785304270197029,9.829138060296218,-0.011997029565006112,-0.0032328599538186853,-0.022880402995966435,5.16
-0.05485049211060361,-0.06942688867306455,9.908967637295184,-0.005380945509701648,0.0019654315327620304,-0.0030452607636308067,5.17
0.0074995612596260395,0.014649440689386825,9.798437943129919,-0.008810678132738559,-0.007749871991349835,0.008230154286927726,5.18
0.24810393758094085,-0.027708608574379474,9.82708453599667,-0.011567087215924666,0.023823427369337253,-0.012596913959181262,5.19
0.13001828217198486,-0.07748802078983431,9.8108618036731,0.006053228553035555,-0.010617534950950629,-6.695849092584219e-06,5.2
-0.037261092687106714,0.1876128306556305,9.841570096673912,-0.003493682256428985,-0.011059183390217614,0.022681900977945455,5.21
0.008240079490015373,-0.03878174271952578,9.811694243995666,0.007576523492791928,0.006702966889550337,0.0037741024540764436,5.22
-0.19386889667619547,-0.07023966195967567,9.80037088154569,-0.002677273451203527,-0.0072493569492310455,-0.0005223736289766714,5.23
0.08788275567420424,-0.15892236332183007,9.776733812320991,-0.0004150981221914765,0.009728851608009896,-0.019110846447528737,5.24
-0.08565812468710358,0.14446649054570046,9.986522395724368,-0.0014572130142102898,0.011254822743541327,-0.003534171984936419,5.25
-0.01902639124788658,0.06411997435537997,9.685833500215535,-0.014603396332253233,-0.009409132202475705,-0.0067630917124471305,5.26
0.19044834761640653,0.015200454604047932,9.857002562576339,-0.016025988675790494,0.0027126280284765865,0.0025248193513798855,5.2700000000000005
0.06492672237262616,-0.12928216596503497,10.023192133997005,0.004350186789131028,-0.003896374052264382,-0.01116971958121152,5.28
0.13653794243795844,0.3351375318836116,9.85978165398953,-0.01581707817483203,-0.010887707603838368,0.005094604559610442,5.29
0.018635311489501424,0.12741587669664942,9.82733475992767,-0.0011660732324077754,-0.01260595781435617,0.02512841613767913,5.3
0.033398153380348856,0.11699233677575283,9.923337764181879,0.011863557658201697,0.0038309739455029412,0.006478797233113001,5.3100000000000005
0.12413624553867564,0.02996326704839511,9.6942482660793,-0.01926977994018142,0.0018006873827806638,0.015279099460725953,5.32
0.009049113887377195,0.1375508019511544,9.838212064764269,-0.002168950126915193,-0.014458369335169488,0.015319145904853232,5.33
-0.13654002278744123,0.12990326846138162,10.026308350425003,0.010031135255947744,-0.00017634383233594634,0.00306313827593224,5.34
-0.09668402903874415,0.09875617588580884,9.791363904129668,0.0028504546833727613,-0.0009689308664072811,-0.0025811645849726774,5.3500000000000005
-0.01844289130936523,-0.21073157365233797,9.85912787495446,0.002659769164181985,-0.014839514712624673,-0.003561091642071711,5.36
0.035418706458975595,-0.08080758142387348,9.750646788073588,-0.008125845441630676,-0.011723068552560436,-0.013568174294772735,5.37
-0.03458352362576638,-0.0021296693523673994,9.767870685410514,-0.004522683026549173,-0.005097925051072668,-0.005806025675924006,5.38
-0.02935728030646926,-0.089526301281847,9.80037279091711,-0.01492784891332397,0.004218501228221841,0.0011883934271327986,5.39
-0.06093406473375928,-0.165686234294867,9.866449779314898,0.002695136082126704,-0.012461734817538856,0.0016662223988856036,5.4
0.08566128509854098,0.1096890954642976,9.722110461855532,-0.008905087994252114,-0.009965685757734644,0.017874493261003373,5.41
-0.030103426298195214,0.07194491508217896,9.697593833489472,-0.005526608754906656,-0.00825683670485287,0.010518127874741726,5.42
-0.015853528279197306,0.04830126215949179,9.790633212591942,0.0007992906994040233,0.007290552512401165,0.0013583858426898993,5.43
-0.1270171300633276,0.06113751077335522,9.752473091079086,0.007490998466456295,0.012251841170475569,-0.00030832719236019684,5.44
0.055821233325407706,-0.046992639143916874,9.76203110293626,0.013025649828194557,0.006837688420752528,-0.006342037798934743,5.45
-0.005899200923266475,0.006687475593574981,9.985739637659924,-0.0004035448234016016,-0.003879455291138887,0.0033987592348051153,5.46
-0.0015617404092848322,-0.18219159477078986,9.65435897266371,0.004985788848505852,0.015231745894158022,-0.007420436687140402,5.47
-0.07146859769987161,-0.003622138046310572,9.812267213456929,0.01272793483226359,0.014156841415865292,-0.0022044642404578712,5.48
-0.04650722943649138,0.12275999914859366,9.719757910098284,0.00839570260942696,-0.006993459455354639,0.006761943581072837,5.49
0.10520581554143803,0.11558679607366025,9.702572542135739,-0.005302017264234256,-0.012357709998469562,0.012218820242128905,5.5
-0.019131721447766314,-0.1929388571304216,9.670225205722684,-0.0003744944066990222,-0.002203899882415946,0.0010013118422210507,5.51
-0.08905617112400399,-0.09554268440281095,9.781283061643155,0.012279092756978739,-0.008554960134506294,0.010357252921038937,5.5200000000000005
-0.018063388719821015,0.06345520712112528,9.90426636585553,0.0072629486554057565,0.0023289078915366347,-0.008739149608755463,5.53
-0.02302396586192723,-0.0038754103420251375,9.944067448623864,-0.005030647692637775,-0.013951282858953959,0.020064917230014398,5.54
-0.09243122635058676,0.015062150131998284,9.82982104047085,-0.005951920609136126,-0.014080360707586954,0.006740868298811827,5.55
-0.04892781721652745,-0.025962600025095907,9.734785031140953,0.020639057905610873,0.025592247654238176,0.00038859955777741236,5.5600000000000005
-0.030020809467686805,0.08443628309353599,9.71962083370602,0.008551426585175588,0.00782727967636988,2.9691736270162637e-05,5.57
-0.004645284786618101,-0.08845770853261065,9.800881425336158,0.01575394168022025,-0.005511136782138293,-0.0043757302206798125,5.58
0.09210897373184293,0.12489419983989317,9.768080962860788,-0.004607519343725063,-0.01518275387539173,0.0021618241096011885,5.59
0.029888764976842237,0.10967414509217427,9.853667955737023,0.016920373657170414,0.0038829656982876555,0.0017010242849437435,5.6000000000000005
0.06269869997315834,0.01685351492867029,9.936614068341695,-0.009263226173389769,-0.004705141186910082,-0.0075829528412363146,5.61
-0.1955948957265264,0.01579956593896283,9.78973361898466,-0.009140895987529032,0.012285528665068733,0.008276421829956013,5.62
-0.009739314597632517,-0.18449108310646806,9.810052206798947,0.008965652106262897,-0.013522740716979358,-0.007309241660303008,5.63
0.08337377435782908,0.05477427285830625,9.805163345385406,-0.011130700481405489,0.0007070983088673065,-0.005103287969762544,5.64
0.007956198169521662,-0.0027155929183012204,9.774965267581601,-0.009671436720245591,0.005954036046962085,-0.002786998620533831,5.65
0.028938548322920365,0.05101247444836215,9.901808915423352,-0.0040216955562402765,0.0009658842410323842,0.0028358295256444,5.66
0.05110483697557962,-0.02052759152579279,9.891064346259219,-0.001379336653849704,0.008065617002976587,-0.009918964562923724,5.67
0.03348918815293125,0.12533787991966652,9.890186914446065,-0.0009636409890976317,-0.007733512798352027,-0.007629399380945181,5.68
-0.05131235621695871,-0.11051851600938577,9.691940184242002,0.004375130062600742,0.018928668205801854,-0.011379554741613791,5.69
0.08806078159993022,-0.14427392106093903,9.715363073762841,0.0061738969440478155,-0.00016837485673880877,0.0028682241646864133,5.7
-0.13740359295058724,-0.03623940988783652,9.680420473027834,0.013430201208262727,-0.0025338014011281424,-0.005317649377644523,5.71
-0.15812226656395612,0.0662432397888013,9.72507240292495,0.001505161481959162,-0.017357030313053256,-0.0020000961760228493,5.72
0.09390375516570582,0.040910878357782524,9.733423348858548,0.007812625476895606,-0.0036450337047690983,-0.003641038326017334,5.73
0.019394918069376252,-0.06009092179611197,9.758175734484727,0.004703037729937393,-0.0020879045114653616,0.02250942344801516,5.74
-0.16719639994337843,-0.056805692433219535,9.820309194319636,0.01777429892945599,-0.009743929351086632,0.009115123650228,5.75
0.06804293637180765,-0.08575492683225537,9.815351264610129,-0.004366093388635495,0.015393912008047751,0.0003067656087428275,5.76
0.15817127155805444,0.031681983195013336,9.83226682839052,0.013504411045095715,-0.006997153394809722,0.008590716462162277,5.7700000000000005
-0.19960792555230764,-0.19955564624270267,9.599047696717381,0.00319366328319414,0.0006355559894906281,-0.007694802134746675,5.78
-0.15189478984844285,-0.10592270646127262,9.782669755952849,-0.008115660508335355,-0.01546968357674957,-0.011335385508281127,5.79
-0.15903998687425852,0.03912919131856139,9.734765397548664,0.01474888998829597,-0.013773982949315174,0.007613281115111948,5.8
-0.030802894427798978,-0.09038398373494579,9.829515263360017,-0.01622707830916402,-0.003664471628838331,-0.0014791441940993552,5.8100000000000005
-0.13017420765655774,-0.13058643707579443,9.763657208793857,0.0008764701239264689,0.009825383264597884,0.0009774757768665117,5.82
0.1947863490062494,0.04725765212285502,9.84535424844579,0.012962591600689846,0.007737622093587237,0.009068962454850846,5.83
-0.06874023570961145,0.25572727254230826,9.994683916552209,-0.012599779786762393,-0.00462624969202771,-0.007865891739343694,5.84
0.0368157731221611,-0.18999134488935607,10.02053996893508,-0.015632202678466805,-0.005795715636952185,-0.009228260074132641,5.8500000000000005
0.20726307291135965,-0.018671761393566626,9.867380795171949,-0.0016395919126860076,-0.013962541690233029,0.007815935582642689,5.86
0.01651545880006751,-0.08506866870335011,9.844494721997906,-0.01215953634878678,0.01278770351963669,-0.013582706661714725,5.87
-0.0937477388984373,0.048138660555633435,9.660609702312327,0.013119340326673713,-0.007361110164727805,0.004485205468543183,5.88
-0.10738682181397063,0.09876940920051572,9.783973200890037,0.009334341196015497,0.009126591871627147,0.016596434573987757,5.89
0.023528369489427266,0.06297261668021378,9.835978951179412,0.013484668857474486,0.00931234068557976,-0.0068381105656272,5.9
-0.02686121459987617,0.30140336719102917,9.841931759742128,0.00994325974874798,0.009325370863337365,0.01209089417245827,5.91
0.18084544618975548,0.07657716155004272,9.859836439566802,0.01396454155969756,0.0014090978457553974,0.008792497089282465,5.92
-0.010483067825244365,-0.27113514677026573,9.803405760312357,-0.0016441797506550919,0.012191062456802128,0.01732559311893428,5.93
0.09163986258928536,-0.16899479121694796,9.821340888920501,0.007911138430966311,-0.002326791352326608,-0.005108546326848659,5.94
-0.005797353153279409,-0.05282114458999876,10.0832175171105,-0.003807154433700612,0.013899131322610937,0.010253947326616815,5.95
0.0050515216313530955,-0.13636081304487926,9.786239932700074,0.0033481056875580653,-0.006526979918854282,-0.0058937471458512984,5.96
0.010060967779171433,0.10067794454130181,9.713788663142513,-0.0163820267353469,-0.018903254938238984,-0.0006217504101256907,5.97
0.1464778196241209,-0.11998605266879768,9.736735046815646,-0.0034188133159822743,-0.0034355049417185177,0.01418267594180426,5.98
0.01109979495667453,-0.11191422784566113,9.856827668807153,-0.013884406566360563,-0.0010281262952275163,0.009777832147037355,5.99
-0.04999610638493294,-0.03951470438314629,9.808618617719274,-0.0037468135376420076,0.01072239482432794,0.007497247076424487,6.0
-0.049397720517139435,-0.012344276488037792,9.892278224848061,0.0009174581807882447,-0.002318024548231347,0.0022662310069802454,6.01
0.12182495989322158,0.24542117367383096,9.788463526153839,-0.007318696644617377,0.011585987639709918,-0.014933770524878421,6.0200000000000005
-0.07210679224224757,-0.14884325194139617,9.896406908587927,-0.004277488787494818,-0.005017712898594455,-0.011159274130995427,6.03
0.16286800967515902,-0.16673428870075688,9.73592186764136,0.00847070158497641,0.008764023774501839,0.0007857987180641445,6.04
-0.10483996192140821,0.06895712207283003,9.926475300659423,-0.006063530524497019,0.010254847377709176,0.0018127228059568676,6.05
-0.01935258218713073,0.017830319356978694,9.837897721647654,0.00719399565922498,0.0077432291571554795,-0.0024133724806400104,6.0600000000000005
-0.025161761635478775,0.09925940710356757,9.753815803347852,0.009386291262400124,-0.02130411573056185,-0.0022238611245987924,6.07
0.08278058229128288,0.15597812025831925,9.847073553294296,-0.00583522157935401,-0.001440958244624282,-0.005369273385720613,6.08
0.049040590828078136,-0.04563600914428052,9.765624700172797,-0.002309942812741609,0.0008283022959915506,0.0052203864475624615,6.09
-0.05059881756838358,-0.027806582179404318,9.69787829568379,-0.0028054102433011834,0.006371566248170982,-0.005372221276542649,6.1000000000000005
0.03903678706052768,-0.035814091296817556,9.876931435085176,-0.0023025878638947505,0.00184646548174286,-0.008144829149433978,6.11
-0.13801259307556168,-0.07425514123216424,9.89744695220834,0.0026129831273140375,0.008719006225849722,-0.002965998840786382,6.12
0.1569735118453227,0.17736021469654636,9.822617137653419,0.0034095803946448044,0.008273165796021983,-0.0026237986528152807,6.13
-0.05153407808469294,0.03937745347004865,9.715098402639743,0.0023701199523777266,0.0022615761198385045,0.0027313950602969794,6.140000000000001
0.08461637092699154,-0.019376220639401268,9.929254677245646,0.0009662895907316493,0.00727251482062033,0.012193189241521777,6.15
0.043994515372603064,0.03825174752987147,9.606138664862408,0.004245734568755148,0.01235955468377565,0.012927166757016629,6.16
-0.1214647167964009,-0.10137094382697476,9.879011416841813,0.0012312261311757573,0.01286852229052764,-0.005490019873660648,6.17
0.14284949915391276,-0.08400822947321121,9.758706089987657,-0.006636141829375365,0.00463044671567237,0.00955293729346294,6.18
-0.11140373500821432,0.026671207465072212,9.774867848942046,0.004622727348510551,0.007921981219609,0.005829984656542864,6.19
-0.10099500405640283,-0.020007933717213832,9.56820529450446,0.000820546961661758,-0.011974356298563646,-0.010754091566046363,6.2
0.03632129438640946,0.23123545905764545,9.84252824800906,-0.0010538317754661991,0.00411484909903207,-0.005467104676550095,6.21
-0.14199285181566093,-0.15857173913675304,9.845823337149495,-0.0022829228946855728,-0.002222261936061231,-0.0029905522945712073,6.22
-0.06808907340011161,0.023586933999281398,9.77180684438471,0.013548599265848426,-0.01197012531811964,-0.012114537524070048,6.23
-0.10280649127855579,0.017366289136258473,9.9102244000607,-0.007439088418169287,-0.007989496723726917,-0.0017206842228775002,6.24
-0.07022218859520227,-0.13738517685939883,9.853599112102224,0.001655336075192366,0.01678044180012782,-0.0035403873628406554,6.25
-0.07116640606908944,0.09322071613644783,9.912347331036909,-0.009044827388330933,0.015624832157063662,0.0009244578325739652,6.26
-0.0035416045180898382,0.06150733425957375,9.728061735912213,-0.00833608467151909,-0.0013927826407590512,-0.007641167159722553,6.2700000000000005
0.05216724007457655,-0.06947189069390707,9.741186967428527,-0.0032446022088624244,0.0020603565226868523,-0.00665661861570139,6.28
-0.12391274722187447,-0.18747699586579425,9.773249358602053,-0.004793238245932501,0.0032769478921928215,-0.021394786172982884,6.29
-0.15770278972331875,-0.04646506976200912,9.77651845198498,-0.012906901401580144,-0.0005631325251990815,-0.0010725378628609692,6.3
-0.06922192002574074,0.09737690827449703,9.834586450981888,-0.0023939928374113227,-0.008891532960639123,0.00031009595578756474,6.3100000000000005
0.1297365680823969,0.03225701121732945,9.80765209462774,0.004309712597926698,-0.011389250188100764,-0.0010932388517656934,6.32
0.08388364194158712,-0.014883311187796198,9.714695495338335,-0.012276464229221313,-0.01888830276653441,-0.010274733182728922,6.33
-0.2128827674393457,-0.18591806235056563,9.677063575453488,-0.012705680845301125,-0.01545793385881015,0.003661939155266045,6.34
-0.07476515181202711,-0.03737268983549308,9.978655271824838,0.006776727503363245,-0.02156071984770966,0.02059125662826328,6.3500000000000005
-0.11206375777221894,-0.01687729934295572,9.747998018548259,-0.005003097685723378,-0.006504363710188229,-0.002264707814865984,6.36
-0.3187561010630753,-0.09974361489636518,9.70667134199189,-0.012831137473416002,0.016929459369460366,-0.008572289755169894,6.37
-0.1313964582926656,-0.04397840030065782,9.900112388366399,0.0043363761611287695,0.027886418672614176,-0.023575558094461935,6.38
-0.21520338990552973,0.010444613089145842,9.794972118141462,0.01620141733076654,0.0014340413111837273,-0.003282540529190664,6.390000000000001
-0.1903432147161647,-0.051648902608047546,9.804852724819824,0.0008938608401244369,-0.018641239869882056,-0.011570683828388597,6.4
0.031100661734615332,-0.05658855086576806,9.68471748783519,-0.02558836571075265,-0.00628833636675446,-0.023105396859977465,6.41
-0.0293130699263515,-0.08469098511822815,9.853008525439408,0.011870968221394638,0.024194679575240494,0.00871826137150847,6.42
-0.0222124645156203,-0.14006222404316795,9.770211241617787,-0.015455999644096823,0.0008513408399250788,-0.016569691435504328,6.43
0.10676736405999264,-0.16478557376188105,9.87866257620645,-0.019893789145165083,0.010536915479081919,-0.005809819931902763,6.44
-0.08993269197773396,0.04183316298980263,9.812454432804014,0.011759743890942632,0.011996310662061832,0.001518228654110532,6.45
0.029094089072356156,-0.1433011418818271,9.82932261794936,0.005185141546025787,0.0011449156801551122,0.006725213515573417,6.46
-0.07471905580872074,-0.05120266708901699,9.956696569925661,0.007427645096993912,0.00928808836931336,0.0023851189213172797,6.47
0.0628466501246782,-0.04990829778432742,9.996254878854858,-5.3940999254931684e-05,-0.012566730322618087,-0.006603121292255363,6.48
0.0955120445405761,-0.01636701064739737,9.680796614792394,-0.003340082950622915,-0.0028985957858742527,0.0015706500532969032,6.49
0.021995078217982265,0.16221679359617608,9.821208473502535,-0.0011103326544460066,0.0050873638068231405,-0.0028294940670926566,6.5
-0.15565114765249022,0.12949964100350447,9.8646594350548,0.012156406825324578,0.005724772346568183,0.005166449769925273,6.51
0.16588605360864667,0.15739969090433875,9.830584511688459,0.0021019746683949175,0.002750992800763793,0.00932337228015839,6.5200000000000005
-0.022265970240498024,0.040872915249546164,9.669315642387476,-0.018640768511292437,-0.0026204336002704333,0.005512433289314675,6.53
-0.04072511349547625,0.04014524568753314,9.83849076827994,-0.004886937481268668,-0.0012247891904443994,0.005993984125040035,6.54
0.08977354135975243,0.10213574357888022,9.779247420139788,0.013774743178457552,0.0015312216911826796,0.0014562341999344766,6.55
0.009572262458798707,-0.1582840254374852,9.783707919633041,-0.0032199826578888265,0.011981221565901874,-0.02356197176486184,6.5600000000000005
-0.19958126174389476,-0.023316672931994395,9.766881036442413,-0.011222223223842203,0.0010512226581732874,0.014673896852295783,6.57
-0.024935074570649078,-0.043517679706934244,9.835537037671456,-0.0017296962899124586,-0.0013499442284720243,0.007379865333128784,6.58
0.01525813964143817,-0.018373987053675087,9.790921254696569,0.0043418348717554804,-0.007343390315848238,-0.008898519441067398,6.59
-0.07289012449231255,0.04383850630570986,9.732566609452546,-0.00974879259166178,-0.0029184540565268553,0.0028194832281674916,6.6000000000000005
-0.018923131670159857,0.11945502206093613,9.904045000856115,0.003280156473515875,0.012021315330245017,0.010575873282055828,6.61
0.008486353006421659,0.0568924623957594,9.735594833487466,0.019869226520286224,-0.0015551116217949192,0.001260981687470466,6.62
-0.02363660517673605,-0.19454124495171785,9.643499232490754,0.0014157252911220339,0.02745131835680747,0.007044323528323834,6.63
0.013240652568017063,-0.13407680340621111,9.727625401049682,0.006647770505772614,-0.0015386905942317898,-0.013751555941205182,6.640000000000001
-0.17497498420683866,0.11448114435377957,9.692635244359954,0.00815676326441204,-0.015817129323155953,-0.013190577806914423,6.65
-0.028976137096275903,-0.16260628745719732,9.995542749866322,-0.0030170041283060977,0.004608117309299849,-0.0072279566549156874,6.66
-0.03653509048244951,0.06428577705142553,9.804674581000675,0.002258670768535944,-0.01813825232819815,-0.008108827315341323,6.67
-0.05449076149650009,0.04777724380485724,9.822986000471435,-0.0026623752972705778,0.004911391929645392,-0.001001792029708796,6.68
-0.09431067165712995,-0.07407172262029607,9.841802210337068,-0.010799165942730376,0.0030660158427831307,-0.002195757506594525,6.69
-0.005193195911622227,0.02100758136454478,9.848391565045434,-0.007288529379725926,-0.0015045502951569253,-0.021251190364263636,6.7
-0.03136353814463215,-0.1327975533121358,9.679431634268155,0.004398048455990226,0.016013359001676743,-0.0029438701903573097,6.71
-0.07162178520317221,-0.14948548865139055,9.987897399164195,0.0059344785618448,0.010112086934670172,-0.0029611175192760754,6.72
0.026678796245948863,-0.1751504907838308,9.740520187236028,0.004111840593685066,0.010916980999028448,-0.02422875885057304,6.73
-0.02231163598940525,-0.03319307736679256,9.678568083027526,0.0009309088885310659,0.000671247302389223,-0.005328094225780557,6.74
-0.04846167079939963,-0.09812990906733865,9.768451465444144,-0.0017059098909083356,-0.012310113447246541,0.010961662210902142,6.75
-0.09998188062806669,-0.15220131090215983,9.95992437879759,0.012653662667870482,-0.003258765855804244,-0.0032811326893588404,6.76
-0.041025158226447436,0.14390783260586698,10.00128121344427,0.012340241383348653,0.01588353574894938,0.022539318629679485,6.7700000000000005
-0.017495826435145002,-0.14740254698669525,9.840745994159716,-0.02159066697108097,0.0029494545267102048,-0.008297530559286613,6.78
-0.07610029877304696,0.0025609913094744655,9.786533058612466,-0.003113074355500209,-0.010346088838389299,-0.0014813596119790623,6.79
0.046430109879998765,-0.05640106991398898,9.843907744670014,-0.006852069670179288,0.0036635639652587665,-0.004264245925969117,6.8
-0.06397480039883943,0.08417419996953654,9.82931485479132,0.00894794927510994,0.004862886670244741,0.0020695142802610884,6.8100000000000005
-0.1379311571681983,0.19912026909991007,9.868148218111692,0.0172647307319183,-0.0014336562560073388,0.0015076594497678436,6.82
-0.15907633102868343,-0.042788758754507356,9.764497462896735,0.0026376238054491197,-0.0077726980240408975,-0.010936374360888084,6.83
-0.08187856721869594,0.014928222182861545,9.819239235880968,-0.0014626755890880644,0.006298563071610352,0.003642503768990936,6.84
0.12426964678205106,0.02443994665698513,9.95832432921294,-0.009475612115802305,0.0026200653631883505,0.0015275435597912842,6.8500000000000005
-0.04918048792826569,0.02147589641579206,9.766674166084325,-0.0014891124115650658,-0.009966784932755015,-0.000703457232443674,6.86
-0.09679503539934772,-0.0575022881813457,9.771671840329677,-0.020032149680150612,-0.006113600563610834,0.0031911130309194916,6.87
-0.04209723065341972,-0.04908603620548864,9.800216954628,0.008339447354456624,0.00021698859070159318,-0.013307809029294036,6.88
-0.12792508593815186,-0.12261154344268771,9.920214967983865,-0.003796940047586846,-0.003983432182821352,-0.009586444766944284,6.890000000000001
-0.11683079544680086,0.018203986455069335,9.695704672183004,0.0017708464154492945,0.0003683679011382936,0.014452577976311005,6.9
-0.006115779459340777,0.0963617100703936,9.909427689095434,-0.014468872650852822,0.006559198740302081,-0.023290691086087008,6.91
0.10064193303136126,-0.1368836744361864,9.90742230842294,-0.006129103812598305,0.012184668467829982,0.007106713518194823,6.92
-0.038119032639314106,0.013271741976279403,9.562959618801134,0.015233210830022346,-0.009368432977749036,0.008505815860724585,6.93
0.07620452539902384,0.003853422334547706,9.795545370373116,-0.005756385680613684,0.017393148351453443,0.015362412036516376,6.94
0.07968457047715005,-0.09460583745681991,9.889603284797303,-0.007767458429507286,-0.005890944128498711,-0.008090085603191681,6.95
0.09603764000895595,-0.09560985266016493,9.713938066493673,-0.008662241261568941,0.02153674150231301,0.002868777454816521,6.96
-0.07634249440626834,0.1268807071347384,9.882367699648237,0.013029485708090458,0.014771547687425902,-0.009127544547724806,6.97
-0.09696387346891543,-0.14299895646533572,9.703983572372094,-0.001072346184307975,0.015928791909643348,-0.0008929529710655326,6.98
0.013387252877002606,-0.013769787105117871,9.748335340705946,-0.002424267732514477,-0.008941703016079886,-0.005587489004075214,6.99
0.12607751842284115,-0.048477416853836594,9.804921095966327,0.005571513374484125,-0.01137492512824472,0.011436737245994677,7.0
0.10656818852713722,0.16617074703689372,9.885584511121323,0.02142869821668693,0.008602031432836017,-0.014499461574040265,7.01
0.1568179201611461,0.11038923188144634,9.788180111437155,-0.0011243228998072717,-0.010400962402028965,-0.01208429420008148,7.0200000000000005
0.030464573197791923,0.10592037203316687,9.857927825358189,0.004347254645243636,0.00936086591044833,-0.005799528106806967,7.03
0.1470152285811021,-0.05844055934924003,9.910168908921426,0.02122018277143932,0.0005912844505984097,-0.010162210494466053,7.04
0.1258566259256249,0.07165386170091075,9.87800372897538,0.015986877410019126,0.0019481604626887172,0.004298124883398723,7.05
0.06052731652843549,-0.051441150395544435,9.997962385425502,0.0081426024108214,0.0003238883684333003,0.000553843779710103,7.0600000000000005
0.10262516128584367,-0.14719577679661058,9.822488799059863,-0.00016389720985328745,-0.00230414152928917,-0.0063232526059315034,7.07
0.09633164318017652,0.14559651069337282,9.720600982333357,-0.010564227070998055,-0.003249511546622494,-0.008103941197820482,7.08
0.10413418517355096,-0.12593192660010585,9.621845280072083,-0.0029089945732366767,-0.005379147132127883,-0.009737351773471887,7.09
0.09682321346162526,0.016573591309439174,10.038058104693487,-0.024336028398740106,-0.006744395053862675,0.007015826741995474,7.1000000000000005
-0.04387886730020281,-0.03167187384055908,9.731336077613038,-0.005392718989190027,-0.007761005285836188,-0.0032578475056697664,7.11
0.001246248298912406,0.14503215469389108,9.691486027141135,0.006569800203927076,0.008411315143425037,0.01976362458176423,7.12
-0.015064074412135756,-0.07464967576067016,9.806465665128307,-0.012555401878143522,-0.015521991730926213,-0.00656549639022403,7.13
0.05679160534416781,0.0812664511027959,9.988981458982769,0.012663895244769555,0.003647896732990305,0.005788772300442667,7.140000000000001
0.051985333347024903,0.08374438466465176,9.91121110851966,-0.005252870695775045,-0.002728088021249988,-0.01029222925545246,7.15
-0.21302167725749233,-0.04866575991430919,9.747422554613248,0.012717316641828385,0.005162589134000345,-0.006074874291449449,7.16
-0.07698614529216721,0.03584341519213085,9.684668199333206,-0.012285335882829398,0.003878953983910422,0.0031229652943267723,7.17
0.012955104192124157,-0.08787142590360152,9.971401050391353,-0.02349367014750986,0.012652990544084163,0.012345136062832029,7.18
0.1265861283351436,0.14562863145616659,9.784914699065814,-0.007954656423432396,0.008809013786352234,0.022657508282521922,7.19
0.027568521235353305,0.009220188785303776,9.75842741642882,-0.012077951006645358,0.006653125108325879,-0.002015198285591379,7.2
0.0036049615373714775,-0.1380528720616044,9.854495420309389,0.009553884610629965,-0.00015921957640700556,-0.009878738304013706,7.21
-0.044577621176919976,0.04648221165076082,9.746145944131777,0.001160802270400325,-0.009315275063840481,0.005911263687292926,7.22
0.09919951237169039,-0.009994754052362904,9.761283994080607,-0.006476654581056934,0.003936574545956159,-0.009436773368729515,7.23
0.0014863761002080528,0.09789789487610091,9.69243126217314,-0.0011414701657625087,0.004622985378672333,-0.029773900673305282,7.24
0.15121914333281258,-0.05100794749936911,9.781763046699659,-0.004745927701560298,-0.008312770823716401,0.004241876043782037,7.25
-0.1288359705292673,-0.030961601774874982,9.771465541493871,-0.010900479443878513,-0.008886354745717735,-0.0018743205960317613,7.26
0.0427559645065638,-0.014428645481364705,9.883383433260946,0.0014152020839428867,0.015177301888785364,-0.015450087556009701,7.2700000000000005
-0.0870976776557022,-0.02880835333143854,9.88739678758703,0.008566374917096598,0.011502600307997027,0.0048887980505793885,7.28
-0.15986784552220268,0.15333472209831275,9.812510549963124,-0.010992931620177069,-0.012765314092781296,-0.008156701291735624,7.29
0.10874006066617853,0.16878543761332623,9.753003652630888,0.0033284891678313343,-0.009754228247529187,-0.01592290603162446,7.3
0.0050885631706050205,0.017224125405551356,9.914485666383117,0.007241548597301737,-0.001977007663405404,0.004543429238641552,7.3100000000000005
0.04908389958238649,0.05581271988738129,9.674137966539567,0.0023264013793688233,-0.01734620460306465,0.003641217573701871,7.32
0.06103080533767191,-0.003908136948780229,9.744624275916129,-0.003484258569405104,0.001719730061746914,-0.005812447913482621,7.33
0.12886194377429072,-0.27451603943944985,9.75721086924694,0.0013554321526881216,0.003077281885842859,-0.007002203116016403,7.34
-0.010763332999057691,0.037484251661528585,10.106870492917034,0.002332672597693427,-0.017137267733885967,0.0012643732210432493,7.3500000000000005
0.01986605824315417,0.18116901621873568,9.8639679188085,-0.011535057459354512,0.011347989317029817,-0.0019278649906405321,7.36
0.08681499286643805,-0.11681736041737079,9.85638818688572,-0.02260491402006933,-5.837099340498193e-05,-0.00976311365395197,7.37
-0.07896911909725796,-0.05772436403786477,9.852640610210798,0.008778629032658095,0.0012969327996724758,0.007307917904841793,7.38
0.09205803912095355,0.11889708695528234,9.903986393907926,0.0002515277361705252,0.0009167155393794254,0.019297382781257377,7.390000000000001
0.013200887049207445,0.1470640065835631,9.82748598828676,0.004822534614070646,0.00142580355559057,0.013990528119977464,7.4
-0.11624898948828982,-0.020536191469771408,9.96007380066602,-0.0034015265049467075,-0.023861760434214258,0.011008722187170155,7.41
0.10881009496036363,-0.005655627424274868,9.78291161710049,0.0019001648930101545,0.008910702259189157,-0.012533161908274094,7.42
-0.016553693386382948,0.006615218251808226,9.608130295802457,0.002745964357261561,0.011634238621596776,-0.0073992932266847816,7.43
0.018356345872229382,0.18668946754515103,9.810167610772838,-0.006100022368293807,0.02026871621595181,0.0008388098638969683,7.44
0.06367797790268206,-0.10147373597471206,9.861340525032812,0.004248830968051369,-0.0016770672653693888,-0.013124078920987539,7.45
-0.004301083572230765,-0.01745291967588,9.764223904173656,0.004639034495951248,0.0005860329431797192,0.010358011948127646,7.46
0.18015072949790878,-0.0012298780951974745,9.859447740711923,0.014944796185596562,-0.006497886963199656,0.0031110617701065853,7.47
0.01582115855794804,0.047904482626682406,9.8054173858801,0.007608182415688156,-0.0011083369099286241,-0.005927027753284277,7.48
-0.027462841909722254,-0.014631938647072355,9.747635630581188,-0.020421077566814633,-0.012211299811957848,0.007155644660479189,7.49
0.110505337273784,-0.03367502227085869,9.87100821630292,-0.0025508049493067285,0.002889049455717145,0.0063853327561033185,7.5
0.13560189321001948,-0.10625549184389385,9.854052325767087,-0.010956313997438587,-9.637333408842937e-05,-0.0015640033714622425,7.51
0.08615338216530344,0.03836699187266505,9.828110183093516,0.009155060734000292,-0.0107393917116317,0.0016737952291654196,7.5200000000000005
-0.10041526520813965,0.15037291371852224,9.589356894643222,0.00785968271854806,0.012204139690853995,0.006056091908061334,7.53
0.04204382875362659,0.06299325889877104,9.798492128428629,-0.010050897822567935,-0.004642771899222748,0.029857728790881617,7.54
0.07848987081737863,-0.014313392533701378,9.907984483891434,-0.00967767788825642,0.009062403139828172,0.007268725430872923,7.55
0.0002663580995480106,-0.024621580797979825,9.902993982603986,0.015560507364348138,0.007706444332157222,-0.0021821741267543057,7.5600000000000005
-0.0621264842436305,0.004616488203814057,9.932171856846066,0.00026667069428007467,-0.0027385456241202227,-0.0007184297683332152,7.57
-0.00039264954413746524,-0.10687505021961177,9.98924052260074,-0.018318890204924245,0.013556794821045855,0.019086833590155065,7.58
0.0005461750241723731,-0.11190798072984398,9.762015535835367,-0.02692865084465235,0.004805045588531543,-0.012006801236583237,7.59
0.055450506746678896,-0.05702880472837708,9.777402536128534,-0.010086134216336346,-0.00044422984292371155,-0.015677337334505784,7.6000000000000005
0.18134526423791453,-0.05156108190245578,9.857173094644393,0.007434823967193284,0.01588541347002354,0.01858632991550063,7.61
0.08174311379829344,-0.034805261087568116,9.822695049715742,0.008075521944310103,-0.0031145918610269124,-0.006394108707952563,7.62
0.010294578182768018,0.03349183296494805,9.713210523248181,-0.013226903610890102,0.00016342577626709504,-0.008898735549401805,7.63
-0.05977515206783619,-0.0652129236381778,9.680700473979474,0.0012309955244406805,-0.009700595022520627,0.004973683445267842,7.640000000000001
0.0868154871835934,0.09117506975248311,9.818427158745978,-0.001536899914056446,0.007175186359726446,0.0033129616971502352,7.65
0.10259516964247793,-0.05230279375489141,9.869785800285898,0.0035273853570978665,0.01452255511649875,-0.012677591488991467,7.66
-0.012429034333700984,-0.008323088043839728,9.882462709938533,0.010801944605011852,-0.015171479830521722,0.016475268433951976,7.67
-0.2224689093068881,0.06750101290635721,9.795267572583324,-0.006594366207607708,0.004659191652521372,0.005728395100497593,7.68
-0.0012971195375423928,-0.16288402666596477,9.712119357054275,0.0014789213856541703,-0.00042610955151289724,-0.012747179460733593,7.69
0.08601096027144306,0.17128779218835719,9.8968021989557,-0.007521142709774827,0.014318269259831375,-0.014898736047633877,7.7
-0.15878398866628715,0.05745381013733251,9.80678304315512,-0.0007290731704788108,-0.006257608296196724,-0.0028801789487248055,7.71
0.14433677575842396,-0.05987798708554644,10.014780359077985,0.0009275874677987924,0.01028648165442,-0.013699235721224126,7.72
0.05856244438015306,-0.12714854435746964,9.910305416537975,-0.014118978747303775,-0.0008164101889155368,0.021089533311075676,7.73
0.06102390197215224,0.11045234390878136,9.687745488322761,0.010322954877177286,0.004956581806572056,-0.008813236365524089,7.74
-0.0706716955235413,0.10501916739147328,9.897542667768178,0.003167835486497982,0.01530526866803407,-0.003920396684647796,7.75
-0.05854057675070823,-0.025212017463554334,9.795740642870772,0.001873978834271393,-0.0017383506743723213,0.00026594678684812954,7.76
-0.161007002661311,-0.03260193017014512,9.770518666661557,-0.0053054878927684965,0.011516178145176366,0.005822613600002172,7.7700000000000005
-0.024576466551377348,0.0432877622571472,9.709124189790169,-0.005524670372430267,0.003995624584355763,-0.013476940097392991,7.78
-0.03435541314080048,-0.1829874861466633,9.82151505421686,-0.00889954077471599,-0.0013254893402812338,0.023780332167480482,7.79
0.05158977357631389,0.017486491196141193,9.733473253147372,-0.023884101985695395,0.0038415859405397817,0.00761561538584811,7.8
-0.06656493414793695,0.011625054438516899,9.95356442450935,0.010699588057797669,-0.008428907954739794,0.011491747459797686,7.8100000000000005
0.032950255367799365,-0.018695700848901306,9.828498706944265,-0.010542338920160987,0.013241915944046594,0.0012200880963543954,7.82
0.03557724468121112,-0.1252268942801104,9.858692554979683,-0.009883149002343798,-0.0005168065717197328,0.00791671855646718,7.83
0.04843297615296661,0.15410203796925492,9.9147919811681,0.00661227484505027,-0.005691963398056116,0.0054452607304768166,7.84
-0.04314214446659015,0.19467363264005458,9.61355338617843,-0.014638100136118666,-0.004964122567163449,-0.008178294129751813,7.8500000000000005
0.03526383004237604,0.010676290305291155,9.974417660431147,0.01642110513176342,0.006632002514131832,0.007393269797058613,7.86
-0.015835582042097333,0.09542300635230405,9.93165921196043,0.002646193423122358,0.014531050510514145,-0.017798053048356383,7.87
-0.03176785441895175,0.0032897001165427676,9.713307381465613,0.007950900383780908,-0.0038554764907770284,-0.003736082670646655,7.88
0.0104042004527659,0.05828341088207756,9.917846966807561,-0.012438947917998806,0.0038014310534744446,0.001942938846639039,7.890000000000001
0.06975894800414416,0.08614553375670814,9.764902055326328,-0.013078514005843263,0.0018167922714727488,-0.010978984503306468,7.9
-0.04355427709885193,-0.09441539644285571,9.813520129062036,0.00461917944238356,0.0005482036278860187,-0.019310473635363447,7.91
-0.05663936134441392,-0.0031471771518159076,9.713564001055412,-0.0047990936945476875,0.02508678684614603,-0.0006499530103606341,7.92
-0.10137323705017037,-0.24751834697738656,9.883561739877573,-0.0015626806345271802,-0.004345483365995008,-0.010921454998223152,7.930000000000001
-0.14824369087938927,0.156796196446893,9.75536168630486,0.015167995106032785,0.007536445741606278,-0.006196935487783983,7.94
-0.011155573764902468,-0.18003246389347172,9.818798088805433,0.0036175952946334846,-0.011668010474303474,0.007609982537326936,7.95
-0.10215798364972746,0.10363645131010778,9.88071701435901,-0.020148863484665727,0.00033540332482403015,0.007580441599169524,7.96
-0.07011884199894174,0.2843472788573927,10.020510757138204,-0.004401263735365828,-0.007788046044176487,-0.0024622234710004495,7.97
-0.13100053031370248,-0.10381081527027032,9.743194018012739,0.009128034127280433,-0.004168416702575205,0.006292129221975679,7.98
-0.24636888086984549,-0.1818724326474973,9.964450989379083,0.0021576511098324045,0.011856851921826629,0.004481522844106177,7.99
-0.1194373588900441,-0.02022415388470755,9.63670289621849,0.010550860487032401,-0.002842555497223001,0.0062151559649347415,8.0
-0.1551348103538287,-0.15792951032803962,9.767155209956817,-0.005767675084924151,0.0050916827390092255,-0.0024314103126991437,8.01
0.07973287375188931,0.043722457007829535,9.86847964589686,-0.0022349227965180875,-0.002638011394848439,0.0006115146467095201,8.02
-0.11987137131207,0.09733075628278774,9.77546628004206,-0.006585907300516026,-0.008066157855554605,-0.017067999619924723,8.03
-0.17317623405026025,-0.011113135422570579,9.816492851472704,0.006473835833114227,0.0035459741823338216,0.01122152589148312,8.040000000000001
-0.13794286163553166,0.14587719341983105,9.859747775610902,0.0037454071591272106,0.01683381302701677,0.0034907878974383185,8.05
-0.0561739588999664,-0.22999622671925432,9.928436337959086,-0.01240141683236921,-0.007706390468526345,-0.020307586320549503,8.06
0.10059742821842099,-0.19925774242429542,9.634457136471479,-0.004287874581917344,0.0024175869927734075,0.008501299079403377,8.07
-0.13356255038721424,0.05245920528630019,9.867376215764034,0.012709823873372564,0.0001764099340339035,-0.009530131186764369,8.08
-0.13952147557572347,-0.11006212988392892,9.694958398540987,0.007942042047891338,-0.014039136972238318,-0.008683130081577171,8.09
0.11958458064681095,-0.04910846470991109,9.944108344222279,-0.008109524919135306,0.0013754966080012877,0.004080816065856047,8.1
-0.04508554394550546,-0.01852544859127906,9.844789046720766,0.0043227269098761725,0.0033039509121676465,0.0007082856903656043,8.11
0.06836167035160683,-0.030941524649697346,9.866628100574992,-0.014462358370161656,0.024591548508132544,0.010595165939068363,8.120000000000001
0.007667833300898841,0.04801238854845186,9.974333806080624,0.016098688591719968,-0.0032449706823946007,-0.008914491194330885,8.13
-0.08574937716551005,0.010024533105577401,9.749075362584428,-0.006373982588502264,0.013149509363687417,-0.0016802518285588925,8.14
0.09889370848034665,0.05605198642501391,9.865674669092776,0.0007543286428814702,-0.015133454873710052,-0.00820546710487171,8.15
0.045974801608779925,0.10867644127144623,9.596843821977098,-0.0009681142106838298,-0.0017244956641592993,0.00419395518945661,8.16
-0.06594951872849623,0.20476180838315755,9.965222727361711,-0.01606027738450756,0.023712845831145437,-8.198426164170424e-05,8.17
0.1257681265148039,-0.007815447410882189,9.81030953331362,0.0018009944384335553,0.005614386724233453,0.007729452182749544,8.18
-0.12001100692263032,0.009399719421665124,9.976786692581062,-0.008052684628771827,0.007833056684026181,-0.0014780808044385135,8.19
0.06650181096490757,0.08291554216618069,9.779231103510282,-0.013642864020366928,0.004744513450926279,-0.00011907860314690784,8.2
-0.013985018353436879,0.11409844493940524,9.909841971491439,0.010460732170877349,0.000699566647268708,0.004715006836981703,8.21
-0.10249155950751238,0.14147348909423926,9.75013038638419,-0.022351894714290152,0.005061913737608155,0.00785968691239959,8.22
-0.12022066381747101,0.0036688555034060846,9.86280912752231,0.006552863055595405,-0.013542318198216044,0.0012849042770271824,8.23
-0.07801644072041163,0.10616585150349696,9.840747678840556,0.0014976918496538121,-0.00041862942415752535,0.005668930420490884,8.24
-0.07648317498810273,-0.03417621217804995,9.845439946935867,0.004179129088492879,0.00923879275555433,0.008415456314079415,8.25
-0.04601875498957953,0.10887460979756265,9.715188040529624,0.004436396621603838,0.012331623676380868,-0.004870873141508102,8.26
-0.03478451602794221,-0.1641188203939193,9.944173221362107,0.005314077104108925,0.015275204603369475,0.025697317941649513,8.27
0.21045495724622243,0.1070258600888102,9.838512304871644,0.0028999230911777854,-5.7359755029637625e-05,0.004659697743194701,8.28
-0.022991329587958003,0.08544762311895017,9.886282036531568,0.0033251829064552974,0.002901579835790513,-0.008462557674463427,8.290000000000001
-0.06678030858953292,0.07155499311604416,9.755066237997342,0.01564284578228368,0.011363500531461287,0.0011177881217894158,8.3
0.0310483314398097,0.20026677169277543,9.993356027918763,0.012170421250565711,0.0012678987972697443,0.0026520623479118566,8.31
0.14588547174420943,0.06636054714949045,9.816949865395653,0.0006811328194030016,-0.009651939766321874,0.004995403553899756,8.32
-0.040820121859060275,0.02032436573648483,9.954228915548544,0.006964841067383537,0.004088570250935024,0.0008168866033139892,8.33
0.03343818496845362,-0.03604504347197471,9.717633569481539,-0.015400325603301216,0.024127264309865466,0.011077069313317872,8.34
0.07368489899058547,0.10150595944007455,9.900263556928623,-0.00813958091286595,0.007672923203073483,-0.009944259335021344,8.35
-0.06416573651038089,0.02607923035161923,9.698135035483688,0.0015818292191865605,0.008027887818753257,-0.005396795195576013,8.36
-0.37370675455557967,0.019996592750758664,9.856524021695938,0.0027277446598329797,0.005798958369888068,0.015217572426302577,8.370000000000001
-0.11918052473197838,0.03549100147357698,9.821555304545912,0.002316177472618143,-0.008420443228409619,-0.017607970312282707,8.38
-0.08557036090558298,-0.20927712557705014,9.933548329287408,-0.0024069087149918757,-0.0013676463591004654,-0.003604425669914317,8.39
0.1481177720128996,0.04610177239303148,10.003431185453312,-0.008254275765486874,-0.006465133898534247,-0.0038553819355226643,8.4
0.027991273132805885,0.006268683756015906,9.767095914032186,0.004056567041970895,0.014932619158465162,-0.0008014712482118282,8.41
-0.11556789916427451,0.005356475512123535,9.75139702789455,0.0034282302184026267,-0.02742866007985738,0.0107837254899922,8.42
-0.021068872987066875,-0.045760940571134175,9.695728594598576,0.0010928625894829742,0.0028551446718665997,0.00045540954159532305,8.43
-0.06984109890827749,0.16587964463250024,9.696164372512097,-0.0068694073449517765,-0.015478396314297694,-0.005131993918643576,8.44
0.022750446716517755,0.12105868224664594,9.768760710965843,0.013392608184470309,-0.0013562150014442024,0.006888709092962289,8.45
0.0778070888054482,0.036536158535951706,9.870710729971952,0.0005103459204315862,-0.006093139036547813,-0.003415495374222205,8.46
0.002175668902824989,0.10269998504448599,9.778182896914478,-0.0020560147142486126,0.013370422921644936,-0.0037504496343596567,8.47
-0.18368536608228164,0.13069823517354257,9.740317364362562,0.008194071979024418,0.002528567370666074,-0.004536725828471437,8.48
-0.10841451454797035,-0.11931377345676651,9.81843442473372,-0.0015984623629407618,0.011989234641735581,-0.011323063426471821,8.49
-0.051623117926949014,-0.1807596788487561,9.777415765550222,-0.003326587293770181,0.009158300870422775,-0.006257516063664295,8.5
0.01812519001653887,-0.05031905160775764,9.741148662965458,-0.003606405327587359,-0.006332495394705609,-0.006404650054869377,8.51
-0.04842126732842398,-0.03259682296237556,9.827596510686645,-0.01049185863390812,0.01501887631110152,-0.002423441369436748,8.52
-0.18517404329960774,0.13283638414868687,9.99940631842955,-0.004462544990434099,-0.019597474056717724,-0.007977455758415866,8.53
-0.11198708234795814,-0.11203973326874353,9.892388291859906,-0.009529722418648148,0.0161156419244904,0.004081173866846129,8.540000000000001
0.09103875399822638,0.04807823306970321,9.886950461399485,0.014583866469523475,-0.01914852803456379,0.011647287583290773,8.55
-0.04166119781417048,-0.010465090968636114,9.836563789739055,-0.004102990045496208,0.0017076958814795185,0.00900412406671622,8.56
0.0457402336234978,0.06644426449700307,9.80931112567563,-0.014943870753076537,0.004625922735166543,0.00868044555667813,8.57
0.1502041549954797,0.13136534032459096,9.888972805701231,0.009581311635356547,0.0073757955291764155,-0.005914981751522592,8.58
0.029929430862715514,0.0707711573496396,9.78100303562965,0.01341818437797078,0.008537331524899008,-0.02794926204584415,8.59
-0.009369158532150972,-0.005473179292561263,9.795975406182684,0.012602227394102635,0.011132731498368824,-0.02507015487522743,8.6
-0.039088528965524755,-0.177835114831437,9.792186279757278,7.541342207709943e-05,0.0065062559775318305,0.002999848968602523,8.61
0.05616359228077668,0.18707922750796982,9.647760479011527,-0.0010981753988920243,0.0038607015568382958,-0.001401781447317518,8.620000000000001
0.14031331856039805,-0.04937815389976416,9.883421009566892,0.005806234954478676,-0.0017113016957055922,0.008916855049433464,8.63
-0.2132403411728368,0.021894962125941733,9.653069084795295,0.000307740591334,-0.015828233421279737,-0.007237343507104957,8.64
-0.031844565595588785,-0.14795899290962083,9.76194239980445,0.0003281502946149825,0.0017603799928722957,6.226129345326908e-05,8.65
-0.1420962423309243,0.03625481513482959,9.834330127008148,-0.004695233811310239,-4.354661521535147e-06,-0.030556072049854333,8.66
0.02466168828877951,0.07605903667965337,9.72662128233577,-0.0004009929996626925,0.011201440675758623,0.001981072033547541,8.67
0.25000859101189926,-0.048710506053588704,9.754240802434625,-0.007269657886262539,-0.020034216865784202,0.014825070116961388,8.68
-0.07350629130852712,0.057246607130186235,9.876136645804335,-0.018523583431049463,-0.021229327355848086,0.009643022631674365,8.69
0.019905648635194825,-0.02827724182230569,9.852719918845644,-0.0028923407842380918,0.007014106798610225,-0.010794353827498042,8.700000000000001
-0.08620676419187362,-0.04235812799910003,9.742133073818732,-0.007944979801690965,0.0043487931572747445,0.011894987594647728,8.71
0.17584862670926324,-0.06262881967001149,9.766326753725199,-0.005253310454563872,0.002570904316450973,0.004230829215664837,8.72
-0.08237690531282565,0.06315664150309967,9.77581557053301,-0.005827711927712658,-0.007229447474921463,-0.008170171552874098,8.73
0.07135215799835788,0.088740949850591,9.828507495786335,0.0004306766944297418,0.006189414325532792,0.0019113656831171331,8.74
-0.007955369695533796,0.022712237521302282,9.703479242745095,0.0020643628684168655,-0.002287766314474628,-0.006784173246400582,8.75
-0.10040801482252448,0.31646378550930676,9.817766017811415,0.02640026858943316,0.009685190211989724,0.010297684257606927,8.76
0.0445889331870069,0.008740806879950554,9.899489736074909,-0.00751933783506626,-0.0009091563341684759,-0.012063547826380342,8.77
-0.20411362904814856,0.03774198666751318,9.891883202174975,-0.009134041384794787,0.0023660418630027167,-0.006529264166058746,8.78
-0.14753210295522182,0.193989406696209,9.673638342720448,0.0015593093262077657,-0.0011151296219627537,-0.004031076951479061,8.790000000000001
-0.03745530458799128,0.055076819765898746,9.748808364507903,0.02239125362041764,-0.02562632905881669,4.835414625358115e-05,8.8
0.02027020331499496,-0.010917888034284567,9.849895560742253,0.011973830567773023,-0.0011161051339979766,0.006060131589494958,8.81
0.1267397611815033,0.0449445984283387,9.756884378813895,-0.015344101039416467,-0.002236704011488467,-0.006158932025262173,8.82
-0.04457678920698941,0.11755431516794937,9.81869702329638,0.001705898297956503,0.016071304185968468,0.001417717548979805,8.83
-0.026709772622402397,0.13190080034132265,9.979720784343217,-0.0011180728161423,0.0030688954253316504,-0.013924663023667141,8.84
-0.006052520853170785,-0.13094349858374346,9.773707601038419,-0.00553152491487873,-0.010614097894656407,-0.0010483718039852787,8.85
-0.01565853434996586,0.0409221773440854,9.736836520736608,-0.02669241567691012,0.0013455560136263376,-0.005136475784714896,8.86
0.03475905996079145,-0.12014299796694844,9.720194833490563,0.011463561336016883,-0.0010900663103647781,0.0034971437785906835,8.870000000000001
-0.23886229509992551,0.1644846724701734,9.863016887196602,-0.0023524910102479817,0.009868359251196852,0.005148765023201148,8.88
-0.02359549189719844,-0.11963719021476511,9.838144056137759,-0.0007007155333994757,-0.013236256698042563,-0.006101499887671584,8.89
0.03005608056630134,0.11525461629898309,9.686004220541799,-0.011028238831132006,0.008297056875513182,0.010401509447466794,8.9
0.15516479312705767,0.02983781259518077,9.586216433716396,-0.004061053738811068,-0.0031347628448998607,-0.009473382619724106,8.91
0.09693291311651943,0.06921234909349887,9.967295330687877,0.01256469845066277,0.011646443495322914,0.014196829459663468,8.92
-0.024812616465854705,0.1122584401445753,9.978498800585099,0.004295058663226501,0.008144855617412013,0.0023265270831701514,8.93
-0.03758139921979791,-0.2665127352272604,9.894322974472683,0.017556277951089796,0.00010489619910075043,-0.013039477550685654,8.94
0.060217685243605205,0.1897851215059095,9.804060837840808,-0.005227875692582995,-0.009767788993408966,0.007973152193761622,8.950000000000001
-0.01688776232250602,0.16294552935198986,9.957636604190649,-0.0007809448812176831,0.008633669879709626,0.00514957633261271,8.96
0.11948284124740578,0.14701130133902537,9.830886755679227,-0.008724952366843808,-0.005174856435060002,-0.013558173782919111,8.97
0.060150091281254196,0.040126602553777445,9.797606600745063,0.003806058872636751,0.005589252653638981,-0.012430508658616862,8.98
0.021974017743738,0.0304272471262672,9.902841504956003,-0.020110729210802765,0.017366995825967152,0.011640592466076604,8.99
-0.03871950295189584,0.07570804741196387,9.603125717966956,-0.010974293795850899,-0.005804462613299962,0.0033739882562451237,9.0
-0.14638850914178766,-0.16241402572332214,9.960494362285818,-0.005970176971440395,0.00487175370880419,0.001101011817719256,9.01
-0.00633349153132436,0.03202773428049435,10.001749600589577,0.004186028552979064,-0.0021399783991625913,0.011039679359323715,9.02
-0.10495842494767887,0.027007841708605363,9.707594195824305,0.0027021461637319185,0.015397050316878696,-0.003326523564837123,9.03
-0.014676496009011705,-0.10374577872420672,9.848428344988465,-0.0033490434417538318,-0.0151678986779349,-0.008653868225370634,9.040000000000001
-0.01404155569506052,0.10844949309368562,9.857122603041645,-0.002706141023537823,0.0014092301025334908,-0.004300656399532759,9.05
0.03290714871159233,0.034713982991959415,9.693902170145265,-0.0025863082043129978,0.004445908360737964,0.007960848038116577,9.06
-0.051377436380986956,-0.0035981822748169102,9.748353121452082,0.001151136070625636,-0.006089330874087805,-0.0004495457850121786,9.07
0.15871819095457443,0.006775400583950765,9.836395578726105,0.005904464541631387,0.002584772008556849,0.005285594476052674,9.08
0.0807525618856884,-0.03740839905028135,9.948526108746442,-0.008735285139121947,-0.012335183895467401,-0.006306741217999408,9.09
-0.10940583981967378,0.1291588521498495,9.592957369368253,-0.019646587975598952,0.0012667962860782498,-0.022950648117960822,9.1
0.0015806932118855883,-0.0054718416320590525,9.796310126169114,0.006745044265573177,-0.0020303400074462574,0.0024296783610255257,9.11
-0.02150050288401041,-0.013684412898415547,9.81699036873717,-0.0013503827666775986,0.018652547470397053,0.0005174215237658146,9.120000000000001
0.08205862130210138,0.13860914788047932,10.072763476512316,0.009583724905366643,0.0010175729148236177,0.010879391970911185,9.13
0.003001461491906894,-0.052953190513637574,9.671354056383576,-0.0004358414989395045,0.01174173484296642,-0.010832102001712763,9.14
0.11035125241185575,0.05050645825125393,9.933745318572447,0.009917192301371044,0.007570747680947892,0.01043085951274205,9.15
0.034478970643060075,0.0701498338002021,9.833172869111294,0.015257201705126225,-0.011365574292585483,-0.0003557903770671012,9.16
