ax,ay,az,gx,gy,gz,timestamp
-0.09992960347765813,0.12506396623608126,9.732174667276054,0.006655420890663872,-0.0027010547128315018,0.012508009919075738,0.0
0.04588958660861011,-0.03349391460449839,9.701602978435705,-0.010881821334021194,0.0024748257314744656,0.004228648167746386,0.01
0.11518287379593183,-0.18326478807133356,9.852123980923306,0.0018620064188397227,0.008823508900414697,0.00563198841014433,0.02
-0.09903899704175961,-0.13733619915885273,9.87858840194617,0.012286557072464673,-0.018210493213615377,-0.02162625253484543,0.03
-0.048692398661554684,-0.026276751472284438,9.751756149425912,-0.005434382524078909,0.00322635497359212,0.0015675137661789033,0.04
-0.08303298200662557,0.1605134491539434,9.691161194508817,-0.006893395688103575,0.02026658788284825,-0.010379116466402554,0.05
0.07965348836149425,0.05464422641523675,9.811856534198986,-0.021150113071901577,-0.014182447271892759,0.004369929542128737,0.06
-0.042159602544029416,0.1265012826478257,9.762580679321713,-0.00806595672614974,0.006228630278251681,0.0008102293839137016,0.07
0.07087865678146428,0.09157846238132145,9.77288259099752,-0.006582359363913929,0.003621473767309139,0.008680217101335846,0.08
0.0081725216357248,0.015692280164506262,9.77682435688852,-0.0011791485520253637,0.0013323711885475451,0.004230057491935434,0.09
0.02066600395618212,-0.0697114495183767,9.77801326516803,0.006813818697454249,-0.000409682690803439,-0.004172799742683924,0.1
0.16942366614665258,0.038721873247824654,9.870632096853754,0.005252221633808541,0.002744912243235328,0.003156610736742278,0.11
-0.08454480330134378,0.08258155006605966,9.870158404631425,0.014229916260209427,-0.01067483696919227,-0.0008498205929555602,0.12
-0.12088555050681259,0.18403307666263416,9.738352341678963,-0.0056282401852008265,-0.011191956608311933,-0.002730954360713148,0.13
0.03699781372367527,0.2713457420032554,9.755443944142785,0.010636873412506518,-0.0040368151409166135,0.01690540856421682,0.14
0.01744079265295156,-0.007011534760261763,9.880605366911523,0.0029573836287371674,0.008094853406248756,-0.007071258989910254,0.15
-0.06764528852702249,-0.06653906979586224,9.625529557848227,-0.010682825979335873,-0.017841247581363295,0.0091428347473859,0.16
-0.039585032443493456,0.0516969004896714,9.811896506429473,0.0004582201432818214,-0.003804323056910914,0.007148113074315078,0.17
-0.07014932593062483,-0.047375368091826825,9.7099182858603,0.0005419971286562863,-0.004854984228533166,-0.016742795880748566,0.18
0.077883829180579,-0.10825983489866098,9.818087530702437,-0.005679879525179005,0.0010836517681056504,-0.0051156778265780845,0.19
0.12488230479598783,0.13390392861475156,9.871782693484533,0.003643723845919919,0.016770581644549327,0.015783138390317294,0.2
-0.06474979567418526,0.10050938146642914,9.813569528643118,-0.0031685937716896947,0.0005949273583032372,0.007528872379690898,0.21
-0.2310630897808293,-0.19050696054418936,9.73427291408002,0.011196659683811687,0.012917198299099614,-0.0009504703866473703,0.22
-0.04281503365097174,-0.11879614081452715,9.83821520765515,0.005332986833221087,-0.0005986871324958026,0.009331427736224272,0.23
-0.07679628644333089,-0.011632838249265984,9.76953850884601,0.016946231185534292,-0.006325748816205905,0.012949172856746145,0.24
0.2173455886284418,-0.14888821150216472,9.820405176302726,-0.001502336186042471,0.014133021379163358,-0.00834150016984004,0.25
0.023521665906498714,0.025126639342742747,9.772084879015194,-0.005817244760105077,0.0005086826423173874,0.015308094956271143,0.26
0.16516415128709552,-0.10555407484398337,9.836755544151753,-0.0025055254342765156,0.0015327593568650294,0.0020417417870075166,0.27
0.015011848556742547,0.16029257265992958,9.67317875479852,-0.004220194431864479,0.0165708115677176,-0.013357088548152379,0.28
-0.24378274409200654,-0.0022683972232413825,9.893592990423953,0.008944834417102521,0.008384075675625843,0.0021185725341066855,0.29
-0.11292776490710257,0.05044553104816229,9.769342677345632,0.0001488853901495702,-0.002357309410652648,-0.006340877492860877,0.3
-0.05350272497051178,0.1026522127745619,9.79746244508696,0.008971211356346749,0.007906297193413821,-0.007927387590715184,0.31
-0.10394309013133161,0.017342828223162503,9.920680023286645,-0.006376418224608215,-0.00869148908289687,0.0005839650867061536,0.32
-0.03727441734476566,-0.11106484868590534,9.99737128192859,0.007555368752200592,0.0002535044150701733,-0.010016130117331053,0.33
0.048913690214740464,0.12879382699240835,9.835065720354237,-0.013213484387517222,-0.004285761812073987,0.011396605047940392,0.34
0.08941838034759751,0.008037813145611828,9.943345491241104,0.011022866037657736,-0.004122359671790208,-0.006909633016809809,0.35000000000000003
0.05455590962875732,-0.0269989158567083,10.000595606274603,-0.003359293487412524,0.0040181880707159555,0.009887914705296123,0.36
-0.018147211895062753,-0.14129732734402833,9.855864057476403,0.025444715997671074,-0.004507697052517899,-0.01079476608412996,0.37
0.024137337682375623,-0.05741990384128767,9.745115964394264,0.004262386848797042,-0.009627153792261254,-0.004073201143572178,0.38
-0.13187459330120782,0.13633069730409594,9.882679752414298,0.013849263974515098,0.0033969592834493553,0.00815121839810371,0.39
-0.07219088429386934,0.05649745107339887,9.765360263880366,0.0032040324047594875,0.0016767311612087452,0.004174467267107141,0.4
-0.07970464529829063,0.026828296178738373,9.736148138335446,0.0018142909788077617,0.002950562460222727,-0.0010777082396690835,0.41000000000000003
0.01934096715507435,-0.025397014305371626,9.770515762855156,-0.0018659181065737095,0.014718988531519166,0.0010593794717985048,0.42
-0.00217027852014146,0.0028539374487451057,10.037136084530674,-0.0028499544289803088,0.012473761859827487,-0.00759697434893865,0.43
-0.0026036456050145037,0.07154875432325526,9.77386300575817,-0.024944471518519553,0.009085247084013237,-0.01778802099056241,0.44
-0.18882539832243672,-0.1673417741678947,9.920350550808951,-0.014827976431832491,0.0075246988157389606,-0.0006970431585152697,0.45
0.12029752771005818,-0.04390184177004103,9.927495481163982,-0.0020660241024038697,-0.0013043527509503108,0.0019383240030759355,0.46
0.14943693522638496,0.21380328771939558,9.965746630925807,0.0018674169879201864,0.005035817788070736,0.006328744563644156,0.47000000000000003
0.018820601501627898,0.14425384537421765,9.776992849832663,0.005337915976617897,0.0019400415094895987,-0.007163527842223951,0.48
-0.16303529628098823,-0.04065906470032604,9.875842379216081,-0.0020793066945346797,-0.00364671072729841,0.011475413249201198,0.49
-0.09798703053420732,0.029066181059109367,9.88885170686595,-0.012111439660765007,0.0010432901761227892,0.010561847507238872,0.5
-0.0031995559930422033,0.036651378214740016,9.919848141899209,0.006402264010806064,-0.003732799440697794,0.007639142589794137,0.51
0.032022211475940254,0.05545233932438453,9.920356758685283,0.0037516441247839112,-0.015683654729475825,-3.715449530939041e-05,0.52
-0.009494205021236636,-0.10825861108590179,9.622220429707696,0.013839013601388703,0.010821339979721838,0.010517532729763902,0.53
0.01107784085771156,-0.030867718377345667,9.667721438804005,-0.0012511140902397692,0.01996311414887165,0.004539591411086912,0.54
-0.00045746778463349016,-0.1200595624001649,9.775264297920517,-0.012075079065798076,0.005004858334181252,0.0015243116552585102,0.55
-0.018528495313578832,0.05307005383032892,9.925346615989486,0.0016456368756314547,0.00669778847144142,-0.011162287511988682,0.56
-0.019155966489530944,-0.06613306999322431,9.81004243492192,-0.0124029705261104,-0.018549001353287804,-0.004370199119388782,0.5700000000000001
-0.05930849951902689,-0.028039328561852307,9.74662357361267,-0.010424561406650957,0.00803716841197492,-0.007171131546982385,0.58
-0.020394104839354936,0.016315133057348354,9.825321869374749,-0.0029818981548651504,0.0034280705160262544,0.00969539846466578,0.59
0.11452860576244006,0.00013194986629534857,9.824028227868187,-0.000401530694832004,0.009927685078025678,-0.00841108146010007,0.6
-0.00370345574942859,0.03068532358742587,9.804852644623715,0.006554431134943313,0.009117959281915649,0.015512375264067974,0.61
-0.16225570841712855,0.04927103620427241,9.893218185022949,0.009862174284932794,-0.008019154392969578,0.0010588059525878737,0.62
-0.01911007284953555,-0.13578825374938527,9.742854914336482,0.0016959551730794326,0.002370191488656581,0.01032566581462006,0.63
-0.30356859525411783,0.03599214302660452,9.819109330377836,-0.014308732773122087,-0.004241994463227247,0.006778642204437206,0.64
-0.09567266742337349,-0.060077203820626174,9.849880114331823,0.020516741334222346,-0.006970424869831533,0.004822106674850223,0.65
0.024767123990550165,0.1482596885772367,9.685653359218499,0.01893839367275011,-0.0020289110836698605,-0.01348554772264029,0.66
0.01652729719217745,0.06957791087661391,9.792819761954025,-0.004672190656947615,0.0042397319034289315,0.022085596356619344,0.67
0.00027205940889510094,0.08791178888057528,9.794575369599823,0.0019120201271246304,0.0028776371663851554,0.0004091857478018615,0.68
-0.005493592161200735,-0.01887783614677822,9.836478379404333,-0.007917577000039913,0.007887127219387452,0.01864357288784059,0.6900000000000001
-0.016836170997653385,-0.07686149693258044,9.627957886373341,-0.002917297883321272,-0.008228520803572656,0.012641620098981454,0.7000000000000001
0.07394947113619213,0.05606570729697024,9.919913890517488,-0.014411675045514305,-0.007596580197077092,-0.00038534059473140634,0.71
0.12778148055753002,-0.1008041676807135,9.843668999819052,-0.007969065211402568,-0.0021735934775897682,-0.014471969126443445,0.72
0.3093259026670549,0.22718037284555115,9.69057992500227,0.001484986624262965,0.0011710021081521057,-0.006335175199107443,0.73
0.0792592269252798,-0.08499047171951231,9.886897967775022,0.01018229419012084,0.020601830747543844,-0.0009513542406332705,0.74
-0.02274988519879529,-0.13870793349813224,9.862108223950806,-0.005882359050882384,-0.0019947817452835932,0.0020433927345471577,0.75
-0.07579681420171452,-0.08902891832798981,9.789321312268,-0.00991262612149156,-0.014366766432386971,0.01133841820370281,0.76
-0.05496630626852104,-0.09929714265413378,9.936894611966979,0.010199542783979726,-0.007257608553507876,-0.014179904951881452,0.77
0.020114124312494736,0.05131220574789872,9.541840156452498,0.010133037136763185,-0.003376203989819337,0.005016913258991963,0.78
-0.09620806468094029,0.0023832999086680004,9.982487150248156,-0.00013621544064934394,0.005131101356535662,0.0016063845125925474,0.79
-0.003983318255419289,0.0034823639398601767,9.804578463573932,-0.0071522842193292085,0.002725202518544544,-0.01074430781996341,0.8
-0.0009539785536658491,-0.022232571019852723,9.936777215308666,0.010304729769304228,-0.003769819379829144,-0.018696130847339613,0.81
-0.015792568209675478,-0.05414566877619619,9.938877323122702,-0.004338159115370345,-0.006982288413893899,0.011639237351587544,0.8200000000000001
-0.18238482188714805,-0.011600530110477387,9.842040944237386,-2.566153097363309e-05,0.006624691526184105,-0.010649142503378149,0.8300000000000001
0.021744981714931177,-0.06707835638418594,9.796806856786375,0.01102482787957286,0.0045141271349760275,0.00015871168772566284,0.84
0.062222604637392265,0.17511504258744173,9.91984336689968,0.008885559349695545,0.005882298622997149,0.015502479924280492,0.85
0.1288821362537885,-0.15401026962861222,9.64902677463364,-0.012989744951158266,0.012160530958804377,-0.008617535334065658,0.86
0.06074890962814327,-0.08252748483198928,9.730791782439146,0.002521448220655359,-0.006766495122616039,0.006573458922629244,0.87
0.010434105154344389,-0.15207493563098526,9.765910802316597,0.024353323507876144,-0.013026506936011319,0.002352704259126534,0.88
0.060185165870950436,0.18401400086517286,9.89486200862833,0.013975428568046747,0.0004968909613300126,0.0010659020251369959,0.89
0.0038505923302752697,-0.024706898637135058,9.827431017710225,0.00299158823270379,-0.00795583411345814,-0.00449732917052825,0.9
-0.10111645190753214,0.049839700441132936,9.790297684817055,-0.01579120154543773,-0.002375657463687381,0.01265685782134614,0.91
-0.07396865884476882,0.017096059617411057,9.737484937391006,-0.003259922600949509,-0.002112452010651729,-0.006165670246453999,0.92
-0.029605036848744742,0.06970786827241338,9.818382188911434,-0.020188661524632136,-0.002536838891054438,0.005720482965653414,0.93
0.0772767972665867,0.11438469095238678,9.912734487887676,0.0010723970722568096,0.009677522414592701,-0.0006826180144454433,0.9400000000000001
-0.04597231909772088,-0.016800151211742647,9.812355501151721,0.01350635625400708,0.01588106774967085,0.014177685960377063,0.9500000000000001
-0.11523345744362296,-0.2629642819509265,9.648616955575365,0.016971168520051778,0.0056500758732419675,-0.0048433925124969695,0.96
0.05221309604978609,-0.025924412762060218,9.87533937156774,-0.007810333357829779,-0.00543836489635611,-0.005775510276823527,0.97
0.07276970444418467,0.05827461433507315,9.827505497826746,0.00793615536736652,-0.0017948157433730844,-0.0026327730770550313,0.98
-0.10413811050497031,-0.009074267359645132,9.747950586413893,0.01966897910367529,0.001335269404563581,-0.00178970001383281,0.99
-0.07180547435478019,-0.04744803195022418,9.809193281883575,0.0015770937473520144,-0.01380512029578594,-0.004733570286208242,1.0
-0.042677598697103,0.17310102746223727,9.86147196848042,-0.0045970051876640305,-0.009091412582800353,-0.007183823585417564,1.01
-0.11075120121780882,-0.05328861617876244,9.735424786871334,-0.005454603103061968,-7.479400753123744e-05,0.00017195043853366544,1.02
0.2418337901450813,0.11580452483408368,9.883882756414161,-0.021462631013553345,-0.001977663191453175,-0.0015338175559381436,1.03
0.013098400912305276,0.007370366723978632,9.717697616643678,-0.013666796056245224,0.008034653637713666,-0.00758422432970984,1.04
-0.0021111361766880123,-0.08781753107435601,9.685631065844355,0.006567485788494657,0.0009408090990803622,-0.008325860545024842,1.05
-0.20519304030259705,-0.06741793951689264,9.95684591417379,0.015099679122621498,-0.038371076056479686,0.00762114338395336,1.06
0.10467701798960663,-0.07713054003185787,9.868290065247725,-0.016664817190679606,0.007229234573787759,0.0003457915058113515,1.07
0.035406888949574805,0.026505790497720994,9.83568460301241,-0.012487180044794918,-0.007435276088037085,-0.007338010776488059,1.08
-0.04217216201810967,-0.05743361162391484,9.875722897232174,-0.003321434869803527,-0.004164196235074094,-0.005842535320469467,1.09
0.11444771071389864,-0.10723979261182681,9.572315807125387,0.00550002753620885,-0.0011506530869325854,0.0064309091987607625,1.1
-0.1746403581521483,-0.04659173985335997,9.663808999011874,-0.011801615414688934,-5.72001009373809e-05,-0.001910497201733032,1.11
-0.00784303391066138,0.13321068851774506,9.725187104735163,-0.0012578152383578805,0.0009553623812785795,-0.010547188762390747,1.12
-0.09280845831109164,0.053370507749354645,9.562608030308683,0.016130809816476566,-0.01537700190384701,0.004388963355977322,1.1300000000000001
0.07784269380615112,0.037372999125743094,9.759543050014171,-0.014401611271613306,-0.004737987630398222,-0.001619770791118655,1.1400000000000001
-0.03511532928901203,0.05738618677056975,9.839770235831155,0.004419830385222049,-0.010196502900938735,0.0018295608043529844,1.1500000000000001
0.00272745927184237,-0.03681314913931866,9.901973521672758,0.024047319479685043,0.008848298478681293,-0.009552150633983944,1.16
-0.017944356956289285,0.05424771520111156,9.861237549830124,0.013495480254696672,-0.003010271485782801,0.006807902496086861,1.17
0.04930145661690797,0.07599064316499102,9.706262661325,-0.005793092730707969,0.008912162176676184,0.00047250220397319963,1.18
0.20440390618110663,0.08662991366937144,9.973820493912681,-0.006489900676145339,-0.0116745034572759,0.010450088925666498,1.19
0.15866575980902126,-0.017841427011538957,9.761580983970397,0.008008691124410699,0.0046708189567939455,-0.003464105181052349,1.2
-0.1232039783016351,0.068921192247399,10.018216071481215,-0.00031213314023508497,0.022592030987351647,-0.010788677550770058,1.21
-0.004739359922434995,-0.22951577019165548,9.799776571716315,0.0041778925472042774,0.00912908758931218,0.006707409359440898,1.22
0.2584237596329792,0.19241628340772754,9.754678569083655,0.0045396990395639904,0.02506301173323528,-0.005318012024460203,1.23
-0.014487936503875101,-0.10992060782264779,9.730842307812091,-0.015729301328358133,0.003973503654623316,-0.003685435776921974,1.24
-0.08222522208812286,-0.14549160681664344,9.92510005558203,0.005260015140425746,0.01709380172725059,0.00406026389943425,1.25
-0.07294034156711601,0.014797533255195101,9.810871671979541,-0.026392561195177827,0.002462914438918243,0.0032653808164910744,1.26
-0.05086051957945455,-0.2008046019682034,9.907399076797288,0.006299775593073005,0.010677269638445213,0.008898970329905645,1.27
-0.031690218501589144,0.15062067453287267,9.897149197809322,0.002134253931335673,-0.00026452632928535984,0.004746324202971918,1.28
-0.08874054159711753,0.028059749973633325,9.756763372479817,0.0005006244316772829,-0.008091702152487676,-0.006984978273570388,1.29
-0.16813816445776475,0.05103514368294735,9.913261454795272,0.0006189919238650246,-0.0017938167108630199,-0.0010456814372638628,1.3
-0.04733826335235049,0.003497472024511911,9.927434498498485,-0.008369993777044098,0.009798624290881816,-0.002035966515603986,1.31
0.10761516204844226,0.07919313862692302,9.79238549439112,-0.0016640330674306419,0.0037973980791451306,0.016805176879091523,1.32
-0.04273618791502855,0.11189558088067256,9.793013201463351,0.005283852719110212,0.01342511047805954,-0.005108991208690116,1.33
0.024405718170894847,0.1685816502204901,9.840942138778077,-0.004068993398145406,-0.006506718637391077,0.004929728233831836,1.34
0.08936155884505857,-0.08820236413959522,9.831892481877407,-0.003917627495001971,-0.009765812084291465,-0.005191908701147128,1.35
0.07138621585502793,0.03939039232247596,9.837926219677344,-0.004017430092559188,0.003582191102727894,0.006730528488785403,1.36
0.18314616229553765,0.001818860854994443,9.666990947254032,0.003996913946925778,-0.004404004184897161,-0.00011522033101141367,1.37
-0.035988356908756756,-0.12078754269075205,9.919748724416916,0.004528351281688992,0.009224864204517359,-0.0006098964979484452,1.3800000000000001
-0.12401534591251294,-0.16372674097278658,9.876682149270323,0.0005432540015380006,0.005585995124891155,-0.00010067951093664655,1.3900000000000001
0.05462020830605228,0.022189825392875135,9.792463698482184,0.01182328395650075,-0.0007472778827703983,0.009499214108506905,1.4000000000000001
0.041778255849965105,0.007482998679899131,9.892871340790661,-0.0043663487930283885,-0.0032066190463929988,-0.00022261317784379723,1.41
0.03815107736101084,-0.004422517899222507,9.841261572333403,-0.009775989322662935,-0.023805548976199166,-0.008815885830406149,1.42
0.006237312810599252,0.052014994656601914,9.851720423307725,0.009842136887146266,0.007729276090640788,0.006715146541515813,1.43
0.0019227683370550105,0.04314266814083657,9.863408642744018,1.3417239609440213e-05,0.0016278590806478555,0.007375836595968353,1.44
0.11386022574405258,0.028065058418338385,9.910432544937388,-0.019755595449970808,0.00985324715914112,-0.0051394174156042475,1.45
0.029320755794693423,-0.14616892200517725,9.644615428005848,0.0019809766877811295,-0.006397864342456014,-0.00946171724439731,1.46
-0.04195263188949872,-0.06689870873150225,9.822667118701723,-0.01134179785369453,-0.003418970089582334,0.01971418783752762,1.47
0.11095637241386846,-0.07461526950172583,9.813958408781307,0.0012722482245529827,-0.011727601321974415,0.007342005533917137,1.48
-0.06072908802583591,0.005973227817087344,9.786267322708529,0.013674765474952746,0.009765451996890944,-0.00311900744236889,1.49
0.14214575348870537,-0.05985316614350701,9.766897327537466,-0.0015533773557236527,0.003119927010043514,-0.003597122477755424,1.5
-0.06853262079037029,-0.045083607174710806,9.83016364720501,0.004542206914112462,0.0083638218669918,-0.007192629378064154,1.51
0.09034289733391089,0.12205879981226564,9.700326497211522,-0.005457369116049567,-0.0015434084557877411,-0.0021244293431196665,1.52
-0.14071853017803468,-0.05136060271598282,9.756697422059624,0.00356666316981333,-0.0018166433360023004,-0.015854667259906644,1.53
-0.08287477043957774,-0.008464989272534617,10.024753118371722,-0.0018626474068052117,0.0077937492120599226,0.01612601348717194,1.54
0.05667368541609888,-0.05415440874217225,9.588316805180567,0.006113425883178991,-0.0069524561699721875,-0.008158257722602001,1.55
0.07917463476338127,-0.02913635055803329,9.967681964078206,-0.01349152967787018,0.0023715362395131507,0.022471016101050786,1.56
0.03953493671849242,-0.15663610420441484,10.03216035700628,0.02273091409850779,0.0023437343414295874,-0.0083967677041915,1.57
-0.21214662946113771,0.09337206621829468,9.83145315495274,0.009883937719678267,-0.009791596063813628,-0.022156970532906616,1.58
-0.1719796555199858,0.11762839784796174,9.803335631260339,-0.014755624626572648,-0.011612374292855833,-0.007210331189442043,1.59
0.12602672600637516,-0.15842140785362993,9.767528353927126,0.018688453850886477,0.010086983583312953,-0.010845649438422802,1.6
0.13282378820897212,-0.03137725353142662,9.919989766571915,-0.00041176836009184465,-0.009298174169958207,-0.002262119541718415,1.61
-0.15882322155517573,0.06368253716360812,9.96050387894362,-0.02558133978093685,-0.010070815011936813,-0.0010802316735692965,1.62
-0.03403572730385703,-0.08224378202942478,9.799438108754458,-0.0002626311425405973,0.014688175457890052,0.0012668005336004314,1.6300000000000001
-0.04922714577213661,0.02620300980587097,9.785024414301395,-0.012327133488864819,0.013363249997519042,0.00022482963042807556,1.6400000000000001
0.018878921266335603,0.020606090952084176,9.523374430318265,0.004230995648755626,0.00044062546920705325,-0.011235576704754951,1.6500000000000001
0.015919035057251254,0.15304574607393828,9.727634033339502,-0.0006737826496745719,-0.010764899905651505,-0.000826163988483001,1.6600000000000001
-0.007707275515116657,0.07422950197669427,9.868360970876056,0.012975802158764075,0.008581627814675847,-0.018453693920079516,1.67
0.056298023187478646,-0.08384439003636918,9.773133659478562,-0.00847886476663898,0.01692749468364532,0.011190761847816772,1.68
-0.022371383221887028,0.079666774793657,9.880656842349877,-0.0009508689247210176,-0.008595933209355044,0.002139536219462096,1.69
-0.05983076702447482,0.025889383352275447,9.824225879296167,0.002665018433571324,-0.0027781090368024937,0.0049901316310508766,1.7
-0.01972643902539327,-0.09130612139168634,9.937957655626699,-0.002055991486896883,0.005851354186783108,-0.018148792410742666,1.71
0.16081074637583995,0.07121878029002388,9.893597679803436,-0.0003245247776615215,-0.014644174394087115,-0.010251059724387978,1.72
0.12526926194465696,-0.015528154364388556,9.756358112335722,-0.007145420550449088,-0.01686762672280352,-0.000947017125406948,1.73
-0.01118882322243289,-0.02946207852501236,9.893561612224435,-0.011097671691479542,0.00874282456886943,0.0013142299153661645,1.74
-0.009578901886958778,-0.09483168813435823,9.701093796364546,-0.006257531062848411,0.0069819381434789544,-0.012312647452953778,1.75
-0.06854002592742868,-0.08965194636509327,9.834732521435537,-0.00033908006305003526,0.003986640599386113,-0.007546957662966516,1.76
0.16365907123724963,0.014323936388073609,9.865470169983778,0.004521379108474771,0.014455334189863169,-0.0005449275140788696,1.77
0.027605274430809013,0.02101317025974228,9.672977833777125,-0.0170947449478393,-0.00803457662590785,0.005532379072982615,1.78
0.09204992743144587,-0.10083495148200657,9.850739526069635,-0.005505518195734843,0.011232215149328388,2.338723564314779e-05,1.79
0.06470185278524775,-0.025520814527412297,9.625626012494543,0.008553333590596533,-0.0113665264792818,-0.0013168924336025736,1.8
-0.17238657818766978,-0.060186920423458745,9.750500380321915,-0.008300357889386895,-0.008550416619261916,0.005146721318229693,1.81
-0.2456226296572308,-0.26096800897490724,9.878191273708714,0.007598904493511264,0.011683413808251789,0.0077511353021637785,1.82
-0.055900416089057436,-0.03745985119582584,9.81990287812853,-0.0025645806818586927,-0.008063116716773048,-0.008522840054027252,1.83
0.056517860769586904,-0.09197880557603398,9.806296167862586,0.011311688524472587,0.0023325740071761312,-0.010152936544226492,1.84
0.012434212922393538,0.04775550098388442,9.83210172873637,-0.014172030476277806,-0.0008662207076714439,0.021336132832010496,1.85
0.007690622413633958,0.13753954118506323,9.940181490175897,0.007291305456650838,-0.020808899561326172,-0.00461772496111154,1.86
-0.052322248263653316,-0.10938167200186255,9.768918724717821,0.0012626918410009833,0.004381017394701286,0.0007634463961051778,1.87
0.040044082553189836,0.11149889006077385,9.794088891643307,-0.007860291960958131,0.004839523906993228,0.006083834732376321,1.8800000000000001
-0.1468889258432981,-0.16334891241147043,9.726389070981247,0.012004169376930735,-0.008435863301245515,0.01385178450362823,1.8900000000000001
-0.09841178532255887,-0.09649181962004695,9.889166799976831,-0.007859070896800543,-0.010177964356439305,0.0014808024840788033,1.9000000000000001
-0.08021430662864817,-0.0629237933561645,9.822676186047017,-0.014310586957781785,-0.006189422767372705,-0.0017577470612392182,1.9100000000000001
0.10909611370157363,-0.01138826322534746,9.862490343987185,0.0012676508254869717,-0.014900273421526977,-0.022682505840570615,1.92
-0.058109606307896855,0.006964897371797316,9.716311620520601,0.01002822900999233,-0.009046244916309412,0.009934401294051765,1.93
-0.27188179535671964,0.1478788626484739,9.840746611764699,0.003999618594448192,-0.008374688957031345,0.0017918810755422213,1.94
-0.08408579091274423,0.10838471739235052,9.757619371295984,-0.01207772438340349,-0.009991609591520553,0.005558111105169219,1.95
0.08707929548407539,0.2752845935256756,9.889171000296736,0.01761590062987881,-0.0033808168152328812,0.01073298492108086,1.96
0.10961570280630056,-0.13824108237786856,9.672224482696969,4.0406141496762616e-05,-0.0033782964016287652,0.01091885940156231,1.97
-0.008116132219660812,-0.08370638059891208,9.912585875608142,0.0007602920487275228,0.008082196069531884,-0.0024181458729281673,1.98
-0.17238856008159298,-0.0682024566565068,9.85403904062519,0.016050626139985626,-0.001983115470291894,-0.011084571824560484,1.99
-0.12979949252480966,-0.150104922272658,9.941705932086863,-0.010583330760908874,0.019003810722766284,0.012573084790226024,2.0
-0.05993574101990239,-0.16507279536706007,9.786256663462149,0.008047569926417418,-0.0004909162214967074,-0.001000625100142243,2.0100000000000002
-0.10187356349390936,-0.04472972703643825,9.769636578101803,0.0029151750151458766,0.019677158526869815,0.012514850823045787,2.02
0.009898759226636418,-0.04203043944676635,9.865767648657249,0.01698324704013397,0.0037007871667807204,0.002379625947330622,2.0300000000000002
-0.02599801905437445,-0.08823640074849619,9.671591702501308,0.007489413769089255,0.01400399641479021,-0.00692883639176761,2.04
0.007568992025438236,-0.07606310545457877,9.566612997939172,-0.01352014921895214,0.005028621405599802,0.009475411625496978,2.05
0.1499958441050144,-0.044623472071857996,9.791260946048585,-0.01468271140127261,-0.009693825648675877,0.016628057827019798,2.06
0.02185370446518488,-0.22227558183670376,9.67463577362287,0.0008350578157146031,-0.004710399376624296,0.003140840828043956,2.07
-0.07000937895549623,-0.00874763282509293,9.949157450113354,-0.0029445109678015746,-0.005672890185784916,-0.010668097837082915,2.08
0.09859918924456608,-0.1738201878916898,9.712057018789965,0.0040590436986632505,-0.013430033102142379,0.011465069163357358,2.09
-0.02408527711230765,-0.010469467026701734,9.826300756557215,0.014189055519789004,-0.017072539826315555,0.0005334698408907297,2.1
0.018764936230729178,-0.10588680917486773,9.87410311676862,-0.010222218489707469,-0.006846446467167917,0.006425476052091048,2.11
-0.06668066981141955,-0.01921086850079667,9.74192410301901,0.0033302556646532884,-0.006197809738036678,-0.0013869235087268891,2.12
0.021288817943017888,-0.12618310111150127,9.685855886896256,0.006138019383142801,-0.011254857097151537,0.00433650605773874,2.13
-0.005436457633262857,0.09838309986259969,9.912322369565198,0.005204250544009045,-0.0028988947269950804,0.014727861792665758,2.14
0.008701029836343077,0.04024086389707149,9.881465952560433,-0.0036642177260473212,0.006444806602666605,-0.0032777805880913565,2.15
0.13624951722844034,-0.055420091315382426,9.726820072167648,0.0016098558413759545,0.010080800634237906,0.011763517502621657,2.16
0.10672510151223942,-0.07597369120258002,9.875574642575955,-0.008580578381834646,0.017773348518808546,-0.012652734970666255,2.17
0.056552859636691426,-0.09737827754174669,9.884073767528172,-0.0006948007430639283,0.002853359099032189,-0.007450715351537249,2.18
0.07010273584303812,0.04418600955863124,9.841480177687991,0.0024244368312763167,-0.006088686121329254,-0.01195604918949273,2.19
-0.25103963328916346,-0.0676038093545957,9.889334308393828,0.009784524594965925,-0.001926005871758588,0.006950250090638163,2.2
0.025401277392132878,0.011362588942758156,9.921168225196498,-0.004046940967388657,0.010677127262717863,0.023192708464368172,2.21
-0.14593653824067473,0.09242635063599591,9.731083692809767,-0.0002647590371394899,-0.004990672107977659,-0.0053524703396679455,2.22
0.05558881229293117,-0.11052636831946253,9.832908447078314,-0.011783616131651463,-0.0006609148009508449,0.011259181720358032,2.23
-0.03785515493706239,0.10012310735868257,9.859316720752057,0.004643917721840528,-0.005438736995870111,0.004628590764623079,2.24
-0.07581969720850229,-0.11043849098676864,9.84287946105932,0.009030421599302238,0.004789372977658905,0.006525274323801652,2.25
-0.001283450578415126,0.10938400081942762,9.959636867301127,-0.006145863031308171,-0.012179622091150918,-0.009176015561007982,2.2600000000000002
0.05927398063187933,0.03546125656854049,9.955705467859081,0.007140522661689094,-0.004934019403988272,-0.002197529716103059,2.27
-0.15972874133085777,-0.04124194297222147,9.861315506309367,-0.00048264261644298583,0.0007545584002576393,-0.016218098883446372,2.2800000000000002
0.057002262488440716,-0.00020706918000129514,9.74385450004895,-0.010249959337076247,0.003626586358498175,-0.000785730597035128,2.29
0.010223189050550141,0.010358493351000354,9.724932916515176,-0.006257360470619353,0.015660513627507415,0.006583206348190667,2.3000000000000003
-0.06820098483310814,-0.10108888870923838,9.694271009057376,0.0028931873584777143,0.025879149006719598,0.007284830898296802,2.31
-0.0676956406487839,0.09099337692327075,9.920290245818148,-0.000916561433633149,-0.0011707737921383167,0.004600549775662539,2.32
0.09515431521305592,-0.05060100613924299,9.917117094216648,-0.0066506639631499975,-0.00022199853833113984,0.013314697728602698,2.33
0.020628188812717302,-0.123004242408465,9.933922466904884,-0.0009463945107157926,-0.009829238282759493,0.021347407780856736,2.34
-0.06704832114508867,0.0030354596901624176,9.726032102537001,0.017308713740767243,0.00479253177239075,0.00874754068051429,2.35
-0.18461182129955261,0.030168189689322986,9.824543687195638,-0.01425126100893892,0.00726203697450366,-0.0054121421103243104,2.36
0.026258829470452584,0.17940462158851223,9.806530112678152,0.003686759776647009,-0.006110822326701337,-0.008765284314473003,2.37
-0.13494915747624084,0.036385507957013806,9.720643901336361,-0.003976410257882147,0.01802837195839399,0.017126359562858393,2.38
-0.04086472092057137,0.1245918445877564,9.723723167861756,0.00020691788970762117,-0.014476332805288853,-0.008075685179024843,2.39
0.15009584306026919,-0.062496199881699216,9.834639452586854,0.003136856384253226,-0.00418710202004663,0.008928172249675683,2.4
-0.05637734059014076,-0.0590818640653074,9.817699915475927,-0.003655899375889774,0.009637921186199494,-0.014047297914574737,2.41
-0.12019168930247277,-0.0228952300046793,9.775649634863601,0.004334186326958967,0.01601681352982119,-0.01470760565776409,2.42
0.01756554895950911,-0.0454449436240002,9.782085968957954,-0.011332171026330926,0.005795324614363361,-0.006469812573734337,2.43
-0.016411887221930956,0.00052142549305691,10.030323396462583,0.0033413986885308116,0.006876596104748309,-0.01602410281909707,2.44
-0.06796746823848124,-0.07320286878552855,9.755554201338894,-0.0014414292780585004,-0.013998251433047091,0.001993817987916944,2.45
-0.0076859687359341795,0.10266816517274169,9.716315336166886,-0.0109033117197741,0.005515411719034149,-0.016422280192328838,2.46
-0.12123944763576103,-0.07672289062527676,9.93353589687047,0.011859727537882636,-0.002732696878713591,-0.007398598060918717,2.47
-0.0211210259299509,-0.03336097026590842,9.797278553923222,-0.00936692491102024,0.010243338786112133,-7.41457673693479e-05,2.48
0.2024719922334436,-0.10225875999640799,9.749258388968487,0.02325943532056384,0.0011620306760517123,-0.018026897014875462,2.49
0.14647119535996242,0.20072693530413513,9.80235525299801,-0.006397666992090953,0.0010521540155549658,-0.008279557432755179,2.5
0.16870412784064426,-0.08828986632783409,9.665783119101977,-0.012474357446106015,0.0005283021357980635,-0.02651649501293675,2.5100000000000002
-0.11534824568605306,-0.13493223241236205,9.772205402220257,-0.008134742348011106,-0.00763221728647336,-0.0008985268495001555,2.52
-0.10363398328820828,-0.06913831050053243,9.81185670263119,-0.013872706086815172,0.005811471250605565,-0.011063290661600564,2.5300000000000002
0.03445747406064678,-0.01945057563115604,9.928667696693006,-0.001108117356520691,0.0011098942098756428,-0.007130886028927806,2.54
0.01768638453465325,-0.11174998236942515,9.95243708442458,0.007321338535869503,-0.007392847971281227,0.005033613231832466,2.5500000000000003
0.1342291996296037,-0.24462808212243609,9.791382592265442,-0.004094673654418049,-0.005426957361197017,-0.005230291655182641,2.56
-0.061657529902790824,0.05073344750091944,9.816678941244067,0.011770682771058312,0.00687642001780704,0.01278199895780628,2.57
0.033280270610085365,-0.01914441150335656,9.773172470829516,-0.002382573368053007,0.007019708821235787,0.0004593999817203491,2.58
-0.05928430337592142,0.09354475315546223,9.810793220058743,-0.009595611872586481,0.024833298697420875,-0.0011485298238363747,2.59
0.06214349682647971,0.014107748875125765,9.817221750075895,0.00823142412559797,-7.36287384266834e-05,0.004768313648230046,2.6
0.06667399323836948,-0.10559052884068242,9.865979591695636,0.02015566203109249,0.008527407557250035,-0.0019138537004441314,2.61
0.22485485122392534,-0.10843236198185102,9.761286048626896,0.006534745512699125,-0.0039956565678964705,0.017497105488503296,2.62
0.018963328665303505,-0.031077255760212516,9.820089137587699,-0.008622071770564314,0.00979844835333393,-0.027434549388309692,2.63
-0.10310299027324155,0.048659796734975905,9.837297117766813,0.0076419893144662465,0.0001362557146476425,-0.001078736350858378,2.64
-0.1161625795280673,-0.051513925963724706,9.882411776594228,-0.017992942443536945,0.008096661579009946,-0.006947999985147432,2.65
0.13882985733700035,-0.053222593259885764,9.860527610967575,0.000947420074224609,-0.00020305664285962574,0.010919253704098577,2.66
-0.1436900158718485,0.06902310844231618,9.861097716946833,0.0014205208499170868,-0.007480947051826914,0.0054377420786330365,2.67
0.004272194297242671,0.15182393024217047,9.74730533867937,0.011619276790188938,0.007317298174709601,-0.007046433315009809,2.68
0.06763551272241657,-0.21803466060800056,9.828526579295822,0.007043642311657681,0.009227675507866719,0.010766052948528653,2.69
-0.07135158634969929,0.06428545364086168,9.714429082489216,0.01322549814341771,-0.015054277983402083,-0.0008851068399625663,2.7
-0.12647861616273395,0.22960611745709947,9.817542593333677,-0.0009183210016344676,0.007518975626398397,0.0041822372181866884,2.71
0.06001430472717546,0.12801663079393538,9.651060186103646,0.0004475370775424023,-0.005613575243876269,0.0015489152961466585,2.72
-0.0007796968010018079,0.08099100708699752,9.687399573262056,0.003638536582819012,-0.008978314462401776,-0.004370200956014953,2.73
0.10619777197896461,0.04018520869392443,10.01389622659328,-0.009328024996178805,0.002612773249078114,-0.012595585185620354,2.74
-0.0959691907923112,-0.0001309458732626618,9.888860737572374,-0.0036094058920947514,0.008284804789895402,-0.015318123434151459,2.75
-0.020058348792340412,-0.03015514097300803,9.842227231579871,-0.004412592019735664,0.0018418830579347764,-0.006806638601778575,2.7600000000000002
-0.07269558589307427,-0.00933082020827061,9.760618899432613,0.00868622264196304,0.01922649010780381,0.0014296478498959332,2.77
-0.06999794064303602,-0.008783641582469111,9.772358187210568,0.002799519603777816,-0.015110668231676921,0.02751439242613883,2.7800000000000002
0.0022528463920342785,0.12457003252899926,9.748670837999825,-0.010280216741102941,0.008441150225581506,0.016348054937117735,2.79
-0.1168704211760236,0.016306727686929437,9.718765182443734,0.011526417575639861,0.0145665071921092,-0.002518619712333012,2.8000000000000003
-0.17789781035898858,-0.11353132710614733,9.84502972521871,0.012644817591596458,-0.002321923008680461,0.00889230132856917,2.81
-0.021985080365993167,-0.07689552330141847,9.69487068026153,-0.008901063469460875,0.0009654644994613702,0.015475462289823532,2.82
-0.08498758134893192,0.04830201614365057,9.738800819190313,-0.011838685326429422,-0.020792220166085975,0.013813590052828595,2.83
0.09361515084281519,-0.01364215170470792,9.885391239376725,0.00022713014406541287,0.015170574589672605,-0.008570949871353624,2.84
-0.00715269995768968,0.09407846174270007,9.650837381814673,-0.019699700717114493,0.0006766014946735455,-0.006168734487389699,2.85
0.09298844558530595,0.10501351016663506,9.868686287190775,-0.008783234764170677,-0.005480426121804246,-0.0007556706810838904,2.86
-0.09649631077520922,0.12179274453332077,9.886963116233616,0.01109115420026722,0.005142951660773852,-0.005363013501485614,2.87
0.04231580126653965,-0.04651874801584813,9.903101493361683,-0.0030144706534225058,0.007436316930502157,0.015417070326955893,2.88
0.01242433400804522,0.05962358191966142,9.93607844361818,-0.01068906403529232,0.006902164618150308,-0.009423099319089476,2.89
0.0069696608147324386,-0.04469493459640199,9.861863060583438,-0.0022332695754553704,0.017311858007647243,0.02166856426602645,2.9
0.11245574225386057,0.03131739949497336,9.732344371208226,-0.016902030069806315,-0.006584708101222306,0.003851297424149524,2.91
-0.28784500577465394,0.03448149168565456,9.804551412728463,-0.010661879952746922,0.008780107369825018,0.004135655551624939,2.92
0.17508408465850578,0.017693655343409807,9.746581610264219,-0.008151915831646315,-0.009500199300028938,0.000502572519068454,2.93
-0.022297429848395372,-0.016230653310627393,9.834665506394662,0.008467730187358904,0.020829499161216854,-0.0024574834007569848,2.94
-0.11681211633580012,0.012034222123113208,9.646659326140526,0.006101977628940845,-0.01847078996126325,-0.00652979750367026,2.95
-0.003871392970091196,-0.04130049991249452,9.925188077664894,-0.017190088278985074,0.01572241651617786,-0.008217421533370331,2.96
-0.012633221325225527,-0.021361685060449703,9.726904336963324,0.029170863952612116,0.011610292250733208,0.004140090336162345,2.97
0.10609025615790202,0.14868689402006185,9.798668191961692,-0.00021846364471478534,0.03390568101923341,0.011569047881118793,2.98
-0.0858634490054831,-0.06767496263606232,9.877427159443137,0.0039211185102052595,-0.0071383568890253995,0.010894425449877792,2.99
0.1998309535246292,-0.07959680539429813,9.828641579383545,-0.005778068793843709,-0.016648157861257708,-0.0033559306373109107,3.0
0.028409405644535653,-5.8006723789389825e-05,9.78986424452409,-0.013031723967859444,0.0025464616138804676,-0.004490987135958188,3.0100000000000002
-0.01155130406828479,0.035135840866834384,9.816101922419953,0.004356488026250323,-0.012500110588767249,0.01444499856212272,3.02
-0.07308366940312187,-0.12205144975324629,9.859436102866038,-0.0012278831039094894,0.011373908757528792,0.009336057943147076,3.0300000000000002
-0.0007719109855938208,0.10745760797356857,9.68216520961643,0.006097671080895135,0.006623341715247587,-0.003463132782993203,3.04
0.16508251368732144,-0.1767574913913797,9.866143772963696,0.004415638803255142,0.006594151575445236,0.005614800508485145,3.0500000000000003
-0.010059902438582216,0.04413226821079061,9.988526962869425,-0.012380131282569564,0.013250502541594784,0.001781764039973712,3.06
0.13096857999264713,0.17623665865765142,9.884883655248734,-0.005143180694385268,-0.001605698596446572,-0.0034514090734447567,3.0700000000000003
0.11522135326094743,-0.09882406434076058,9.726534391873813,-0.02019974891190461,-0.0021680027076135516,-0.003311931434957149,3.08
0.08721383292375771,-0.04720811132456207,9.918272519938863,-0.02337040734182311,0.015960243600708447,0.010254218134536102,3.09
-0.10222379263548963,0.02312644837506258,9.636150938575836,-0.00442455988682007,-0.009288198539406588,0.01185419779882679,3.1
-0.08481508426509239,0.1581421355414731,9.81185699072473,-0.013588036677285467,-0.01066979204971323,0.010122458177253832,3.11
0.1433639502155956,0.028531688830760946,9.745573948885772,-0.0050448419651510775,0.005463476883169786,0.009733157490365631,3.12
0.13518693817985322,-0.08280066640532595,9.909768422340678,0.0028902321051967185,-0.005577569726999635,-0.017008981706368356,3.13
0.09741654575369951,-0.032440301147670846,9.887824400139172,-0.006230871134834204,0.013720555931089862,0.011987797168982173,3.14
0.003195901068094592,0.08541922941826964,9.809588626587995,0.000236106524339963,0.0140966439701543,0.00849976554458773,3.15
0.014663186655081668,0.07174854764026398,9.748773958119479,0.016899088373946932,-0.015577219752302935,0.001994578244012871,3.16
-0.046540527729558745,-0.04259885627981476,9.899909143258428,-0.004605064024281138,0.01202625838161666,0.0009166694740034699,3.17
-0.07202767481896988,-0.061062245600335935,9.692211016763933,0.0062503867787203704,-0.00766506304821561,0.011820370316005304,3.18
-0.055662532201442454,-0.036747274570639886,9.8810445638755,0.009573047526677923,0.003984368109842261,-0.00546884259894402,3.19
-0.11716039435210644,-0.03001173682990432,9.915842727505611,-0.0029181350648229847,0.013567203705285451,0.02076049285455329,3.2
-0.025619555488481743,0.03446815441703858,9.803630441675319,-0.00697461321172493,-0.007791225220917599,0.003987340581156267,3.21
0.038600790500662244,-0.08389796981205938,9.81054199961859,0.008738177051790813,-0.002269678714209638,-0.0009025971724131677,3.22
-0.04272352511114614,0.08950639446833734,9.905439345664243,-0.01469847517936333,0.008541827113648072,0.012488314881512225,3.23
0.06228864286949998,0.14687021677093795,9.71352034289711,-0.013377295252447012,0.00047418991799597565,0.00029915351358758156,3.24
0.0031749272022290366,0.02573539209492326,9.901051916091479,-0.023106483022741226,0.004658710518947736,0.011693389039248046,3.25
-0.006160012312122785,-0.05867241916095631,9.862589136244397,-0.01969817408269835,-0.005926218451869199,-0.00014567909156728434,3.2600000000000002
-0.06974824210570031,0.09330174894106935,9.926175920469332,-0.012301684601216105,0.0029629727291866294,-0.0030419306071472626,3.27
-0.13821755136202096,0.10154534107481512,9.816860298122714,0.008306492120091142,-0.0022074956600488266,0.010183418394774222,3.2800000000000002
0.026146121669173347,-0.03412263849457555,9.994099768651449,0.004474591596223069,-0.006627208412324824,0.0064702307397741235,3.29
0.21690074141987126,0.042017015615810296,9.5923031439777,0.007300256740974603,-0.00757278091932912,0.008079953023475181,3.3000000000000003
-0.015656342513813325,-0.06314298271187943,9.685998439890946,0.00565980915937144,-0.014720376071368828,-0.005572160789043538,3.31
-0.05986474421691571,0.07571653068009179,9.830862927807255,0.010885441257242721,0.00017271392271154274,-0.0036255383159717394,3.3200000000000003
-0.03148669774031073,-0.1255920652071993,9.839067847589188,-0.02336961728597986,0.009020985950286038,0.011274157315551628,3.33
-0.2242247705430514,-0.07691138189610815,9.803076953217285,-0.008216357852908593,-0.01085300838344188,0.01292164645874814,3.34
-0.04477844361155638,-0.09375472521976543,9.818615915808543,-0.000663967703180052,0.009239062106788811,-0.004190618070262165,3.35
0.23066665278989085,-0.025677365311163155,9.807754398769704,-0.0015208827336062123,0.0004429479021064535,4.294674016773701e-05,3.36
0.10005106826105577,-0.1345956386430943,9.72503940874374,0.0026803161895774686,-0.004696631078733668,0.003159545905705233,3.37
-0.05754787511896972,0.02192510733101718,9.814378439395258,0.00361893928469267,0.008104064781111739,-0.024945798341093374,3.38
0.032084156223139905,0.02357504656379252,9.828687585902635,9.206252720209584e-05,0.018152038166600905,0.0017119277198181198,3.39
-0.06070010490266325,0.04381180078204223,9.693989070563537,0.003235768921754007,-0.005012467754481465,0.012419468190332229,3.4
0.17178856245160576,0.013908457786991173,9.89410949073353,-0.0009021220513782852,0.004783862903655839,-0.003629515210976458,3.41
-0.178530861280251,0.11255174941075269,9.87930659030363,0.012103235078014068,-0.002140291774287746,-0.00801267725871982,3.42
-0.05280709888131292,0.031961187086300746,9.881444834900288,-0.002595253815038438,0.0020174895776720247,0.0029577922718405686,3.43
-0.10541924925916724,-0.02653170409440816,9.763473109824773,0.002643984210349701,-0.01371163675565257,-0.0009534642248722064,3.44
-0.0126105286377393,-0.055799899457608604,9.78657793534231,-0.002105121110042578,0.00536383349540423,-0.007591173543346734,3.45
-0.016618338925524077,-0.15606114759505424,9.70388725640327,0.007348552777744048,-0.0028132523662542552,0.00017137650977645008,3.46
-0.0833320887677677,-0.07760916405836721,9.881145631026858,0.0020251904429263723,-0.012771819310183544,0.006390137637500022,3.47
0.08051051540548836,-0.059551346898521956,9.723985084350263,0.004235816539842177,-0.0025145741827233056,-0.0031330903612499864,3.48
0.08654302792054484,-0.03617571437349334,9.833579283830183,0.01701845666646052,0.004868965413998252,0.0003634082662016401,3.49
-0.08501407136981912,-0.09966588118832886,9.866382658667762,1.8176034946844663e-05,-0.01082679679685265,0.007484413453817375,3.5
0.05760283742048457,0.16044344635024546,9.859684676643214,-0.0007666966327707997,0.01202657911761415,-0.012206602917170276,3.5100000000000002
-0.1166305709187427,-0.10324267350253201,9.701260795719495,-0.0036756100388753354,-0.0020751097742002633,0.003619509420662408,3.52
-0.007741886168196791,-0.024962469162223347,9.934578822505006,-7.142515836602956e-05,0.005204328379527658,0.0010712460987152787,3.5300000000000002
-0.05083109166181557,-0.045009793765580716,9.766040272659637,-0.013473056626811553,-0.006891064777317782,-0.007053582028825233,3.54
-0.020765574269948007,-0.03345837808878731,9.804383947170603,0.0066557056373091625,-0.007833161895505186,-0.009438567836389734,3.5500000000000003
0.04365337705168745,-0.008266051283988862,9.733471618225707,-0.003535572802291063,0.012342753793363508,0.0046786587678379465,3.56
-0.07124790433193477,0.014215040133902146,9.777709741478079,0.001660495898401882,-0.005546905482852401,0.011954225315505329,3.5700000000000003
-0.06667200489406812,0.0627309382501116,9.711030756950544,-0.012025880416254124,-0.00918888515793694,0.00012854058377073207,3.58
0.11484275788614476,-0.1992191223672002,9.88643636957437,0.002798541545684039,-0.006158003575525488,0.0001063525093874514,3.59
0.09962427045711253,0.12609798256614707,9.716574298048183,0.003800112590495075,0.006149947636540181,0.010492289839664553,3.6
-0.03841547383432007,0.042644823420623965,9.643072266829591,-0.008826747422197691,0.001858796550844931,0.01244533801385507,3.61
-0.0779212368435973,0.11251761814087324,9.647787415827345,-0.006704745793164112,-0.0010533485327373039,-0.007337807309006398,3.62
-0.03929475705346283,-0.043137669803982766,9.915438979173636,-0.011063318558177986,-0.00476683865136381,-0.010228468143101466,3.63
-0.04756693732976413,0.09379146324540616,9.925030097342038,0.003357762494350453,-0.0180802637681782,0.0013332591059421826,3.64
-0.22156727113673325,-0.15369262230343236,9.74074231778527,0.0045170302829138816,0.016973101903072323,0.009800721867398526,3.65
-0.05851110514109828,-0.11678904937208703,9.5562581901782,0.009052462842360501,0.0015567251618066877,-0.003628016838406348,3.66
-0.023161973052468813,0.10992523045162013,9.78880684139623,0.008804333574630825,0.016790508789360434,0.01700560972028315,3.67
-0.10743608211093703,0.04307362448149812,9.653463990657992,0.012853910184885638,-0.0018273325711959663,-0.000604556761860419,3.68
-0.05526341306987546,-0.06926035239366245,9.875288395580379,-0.0011596889030670644,-0.0047827241743964,0.010630819335420913,3.69
-0.08338890596043051,-0.005778610591099777,9.779056174987156,0.0066939359813548436,-0.01329231153070231,0.00783049925779691,3.7
-0.12932063183437012,-0.0004108449130964587,10.026403388112675,-0.0024867998002085262,0.022450782373806263,-0.008974195177482613,3.71
-0.16046191128853082,-0.03822786665609868,9.626487823128578,6.492508071910366e-05,0.0027500327531068017,-0.008602368604492629,3.72
0.04173825594373781,0.05741619218563923,9.775381259193448,-0.018174489051258794,-0.006770715886091389,-0.007689220371506825,3.73
-0.08534272547257596,-0.06394162782695338,9.781713373037732,0.013153318270004275,-0.015481931708896491,-0.013298340950377342,3.74
0.07076695069718499,-0.07392355924841361,9.66823043286024,-0.020850633565538464,0.002068817578727134,0.009712737480421134,3.75
-0.07275700733468224,0.00848615860056581,9.915839874835093,-0.01086818115265075,-0.006879497803221646,-0.02213020848939337,3.7600000000000002
-0.02052264502390659,0.06730669425010863,9.93811144421015,-0.006624149421678601,-0.00728722510449937,0.010038830384449896,3.77
-0.05166134854519205,-0.09670929881711071,9.937386276470916,-0.007801998261372644,-0.003226216797418974,0.007699556179083725,3.7800000000000002
0.0362203202672349,-0.10610929081417907,9.980694924261169,0.01930893767093658,-0.00689861652780367,0.0018527066725679523,3.79
-0.08595340742609323,0.037662659384926224,9.8243151784042,-0.01054208857297787,0.012088894902429965,0.021123486241485374,3.8000000000000003
-0.01358002321171056,-0.043638506106428596,9.907716883350082,-0.003703894344126895,0.016140233802896146,-0.001619032157625863,3.81
0.0060842588364844,0.15327847415387752,9.944278935230031,0.011492285881206167,-0.00013315655605308503,-0.008696715289868168,3.8200000000000003
-0.01722775537512473,-0.0983204765968348,9.956393593729146,-0.014218701879959866,-0.002524128572697263,-0.009954765451728681,3.83
0.011365024476786487,-0.03638693203142176,9.88113775996233,0.0015764022575613327,-0.004373657661902708,-0.0013001439382562348,3.84
-0.018229968988715983,-0.14656162765477462,9.738130856191832,0.00643055827915488,-0.010459821210416302,0.00966925186766523,3.85
0.14078188246345016,0.064192029761851,9.885328599969613,0.0009444574694464235,0.0014031304882100016,-0.005623588929121407,3.86
-0.14956200897762592,-0.12123051910379488,9.659311652337637,0.01311887122702149,0.0010914608412748506,0.006817619280619382,3.87
0.11684398412690329,-0.28227411778591815,9.733860450628715,-0.01820090191788826,-0.013007735567892436,-0.012385796197078506,3.88
0.018364437091651798,0.053322267225573663,9.893957884082978,-0.0008830978592552257,0.0013208732051580175,-0.019666310598512857,3.89
0.11216803701552039,-0.025065589431615527,9.888436477463982,0.00495063794102037,0.0002941901279138342,-0.010709662989272532,3.9
0.03921989863408887,-0.046635854778348716,9.860214126703427,-0.0023312063738545256,-0.0011675580908218238,5.974788211053051e-05,3.91
-0.2636408751540084,-0.060446596978279254,9.707295294330363,0.010049373825550767,0.007356909151378148,0.011588521730200767,3.92
0.011374745497071473,-0.0002442263950911736,9.777418747298224,0.008383664646168082,0.007218057283533301,-0.020149097686209948,3.93
-0.13708019375079303,0.05291110134217333,9.660587644666162,0.010769496138707193,-0.008977606777577241,0.0007885380554806314,3.94
-0.09019503630940932,-0.03534442193538601,9.727058408321888,-0.01478018784659661,-0.003775501331833558,0.010924612205886409,3.95
-0.022335403904171644,-0.02965295030871677,9.715647958218527,-0.004680684086737595,0.004811122963398611,-0.00753210372881983,3.96
0.231018827144594,-0.03894797542672257,9.743210853841514,0.0026498590427379066,-0.0016366391312760986,-0.008272417179676634,3.97
0.23350564785908287,0.1650861939969538,9.888533045701092,0.0019481738432702764,-0.01185343237849398,0.003588161035514839,3.98
0.08473392155185858,-0.06989664124115573,9.694387146419905,-0.01582085582069307,0.023413375579998723,0.014300248818680106,3.99
0.0909116718075253,-0.09571338385864991,9.703279469025082,-0.004365046171151946,-0.001999744581988148,0.00572570761686219,4.0
-0.08678720215377637,-0.11134903920775407,9.913493855538263,0.0069611641161886045,-0.0015720555111085586,0.0033965482097247967,4.01
0.01249578574022489,0.021350335633012998,9.805490379023125,0.002763162047958462,-0.002229538990573049,0.001615324162455492,4.0200000000000005
0.05979305766681342,0.13515655966298187,9.832950408822207,0.006193887587966755,0.005660482299781225,-0.0061570920126264965,4.03
0.11084425558094656,-0.0410303312103315,9.850074234440669,-0.021459557005485453,-0.008952859997097492,-0.017519393561630684,4.04
-0.164446737154128,0.0610051100915297,9.867309271549754,0.011298142508635254,-0.024736611228025097,-0.010711809181260077,4.05
-0.06683201731566786,0.1282844511684711,9.848600444003957,-0.0012629575117606723,-0.0002122520645423926,-0.021150792967962732,4.0600000000000005
0.0476550038238918,-0.002210665382301635,9.944776695591594,0.005238685729576205,0.0035969318898945776,0.017116766136348504,4.07
0.030973399668156522,0.10059049205015524,9.832514516638312,-0.0020181685724490962,-0.004529084950531952,0.012330610762331825,4.08
-0.12111531752479963,0.05289544205091271,9.897465503193107,-0.010084184849514755,-0.0029991713700081545,0.023141335557086903,4.09
-0.20819121637655305,0.14778290946461647,9.665949577553846,0.0030094393554915538,0.000611956730513572,0.021116840677278422,4.1
0.05354567424612257,-0.041951398334003666,9.916538552027387,0.015027226201911244,0.006863622658485181,-0.0009863436601389368,4.11
-0.05737766029862223,0.09184262662258066,9.939345510259004,-0.0038672784670950307,-0.002090533080112152,0.0005435788087889821,4.12
-0.05566190996258202,-0.08149067921395375,9.701264290304353,0.00017835733587916264,0.0021915905785129365,-0.0003741445666644803,4.13
0.0997478237952759,0.023437126435598088,9.797847194016112,0.0036643223255726654,-0.016980338675179535,0.008963895020920924,4.14
-0.012123511909692864,0.15395576446806408,9.74904633495861,0.006423918635088106,0.0034940852355418075,0.011676538270939682,4.15
0.06623478769298062,0.014295720756856612,9.630637491581682,-0.015552064990311983,-0.017353272081537703,0.012786655345509821,4.16
0.019774018727409873,-0.194805686938576,9.916193728724044,-0.026109712151841862,-0.004205992793629754,-0.005453933226205251,4.17
0.10695265885896924,-0.0959097609183342,9.681453653609355,0.003455139158547157,-0.013812425088369981,-0.0012580951340486102,4.18
-0.01310436976413352,0.029936909820700266,9.75599494646907,0.007902727660157857,-0.010596097045780276,0.008363016874067649,4.19
0.10809321245981268,0.18990584295894875,9.775291891155485,0.00895777554768408,0.01003390172018026,-0.00371140835742197,4.2
-0.048957856021070424,-0.13565092727139022,9.704327732899435,-0.013956909656124082,0.002903445689583091,-0.006298064429136119,4.21
-0.09737070012051166,0.11870261082345815,9.856269680122598,0.008262261330708969,0.014096732249725472,-0.00352727993765402,4.22
0.04930898683919114,0.060877965952253026,9.723417655730087,-0.002717650509006042,-0.01241702465636084,-0.0027877385284378127,4.23
0.0027849173394771647,-0.07566636040031911,9.789199886077085,0.006625063770321954,-0.0014029239660456347,0.018184535413410526,4.24
-0.000751727797573249,0.02130967534778602,9.58750239193307,-0.01547963329503314,-0.0006438566680915471,-0.021468177833977968,4.25
0.02348014232830667,0.10346112760771174,9.893282643272387,-0.00899752397257964,-0.0015305876799834902,0.004496003762681935,4.26
-0.08228366550040189,0.08364209960442795,9.819097970339211,-0.00541647145562301,-0.010976385092223213,0.004808726365395965,4.2700000000000005
-0.051033437043820885,0.04581191883889547,9.739310905418877,0.000935740444813584,-0.003595902881908165,-0.012193315795633018,4.28
0.07250298404654332,0.07134364440580995,9.893174624934481,0.00343320554526574,0.005846004265775108,-0.0033636161931784687,4.29
0.0419429953711958,-0.0880998173224236,9.774128323017234,-0.002695757893845409,0.010190960897991678,0.0005607390561414614,4.3
0.12872328396895258,0.06300911838897637,9.8288638555131,0.009280517061148507,0.009874054162976527,0.011182211818509593,4.3100000000000005
0.06664497710722737,0.011304190222865697,9.877770548632062,0.0004682855178604134,-0.006716692274262826,0.009174203798780875,4.32
0.1067967721451954,0.1557087608386301,9.85462857272288,-0.0012662290310267211,-0.01018359193022668,0.007779493339603645,4.33
-0.09821553292490716,-0.0851899601137803,9.875207477083944,0.013053646133228161,0.0023862646074937184,0.00046596527720456945,4.34
-0.07686224519180575,-0.03668836545265511,9.874761621337893,-0.009752989548444498,-0.003996774480689179,0.003024259920467473,4.3500000000000005
-0.17177405558946168,0.055754210060688536,9.86772108242972,-0.011812208532500772,0.004390333638099216,-0.016554250918502295,4.36
-0.16248316671522114,0.01339113454348159,9.758554598986024,-0.007819239964410777,-0.012995966361826615,-0.004629539465856071,4.37
0.10292360061462258,-0.014909845718805437,9.865096587773472,0.008457120975093524,-0.009693344515276566,-0.013931695087452827,4.38
-0.16690390694920407,-0.027100923076931373,9.755281724243272,-0.0081149600552623,0.008975613295078705,0.0004451831369247547,4.39
0.037245198543853636,0.02369508671927118,9.833016592871779,-0.004983847775329621,-0.014637492406044589,-0.007743280861857568,4.4
0.006898546024746362,-0.165612708924877,9.800206870861022,0.012767886642790872,-0.00025435950303021526,9.145890887998678e-05,4.41
0.060975154933597335,-0.11771030788882902,9.789008819652045,-0.0034293722104933194,-0.017681576429213898,0.014314855123748414,4.42
0.009541903420820522,0.15483025682471024,9.73414674816376,0.005563704681877758,0.01564170642246023,-0.0003167456087212675,4.43
-0.07339338041316358,-0.004535197962474295,9.946458888858698,-0.013981441575985017,0.0028598353967296364,-0.01331320005097022,4.44
0.049770202753463756,-0.15457997070885895,9.781017053265067,-0.014619846957074302,-0.010848513411290641,-0.003343786472017884,4.45
-0.023957408483906473,0.008150937204624278,9.815300850799279,-0.005966416068699317,0.012561396791744218,-0.0026736383900401377,4.46
-0.06967497779768796,0.21512536893776782,9.860730474528738,-0.020648112832920677,0.0007599810143697195,0.01448998977467648,4.47
-0.12509309025272192,0.0077220718912665316,9.897780297973805,-0.01982206787293164,-0.004649114510083525,-0.012038296212082059,4.48
-0.10330100519609842,0.10899844364115872,9.674365145400671,-0.010375452288453579,-0.0029308511907612527,0.0030814335286700164,4.49
-0.09872927128310893,0.11844996411093978,9.781929051151053,-0.000731903277324674,0.0025768302033394347,0.0007302634128856069,4.5
0.033795266833324025,0.13206399130381938,9.680457982820005,-0.011339637268231324,-0.00952998166314363,-0.012961558255075525,4.51
-0.0016895525735960435,0.025161691159909978,9.781788863073098,0.012074790189436808,0.003615715407801244,-0.008551728563649994,4.5200000000000005
0.0008368961438843104,0.0770953323149498,9.805995913365784,-0.00514524772357755,-0.0021206748778166327,-0.0049334003333661525,4.53
-0.13659765814739833,0.11636193187377847,9.892308380186543,-0.004213632558464644,0.008931152544289207,-0.010852728684759165,4.54
0.162163390829158,0.1418493330596021,9.783199605697321,0.005358014429330613,0.0018696168564490037,0.004683264820501455,4.55
0.13146257206929762,0.02791170645030185,9.939955609371138,0.010050638350563504,0.00309621928959323,-0.018644701578579902,4.5600000000000005
-0.06050507657476392,-0.02489687156771101,9.826556162977463,0.0027343763219007363,0.004100933560047249,-0.0012423789939128961,4.57
-0.0927115394698824,9.67602642098128e-06,9.685927636704333,0.0008704542140442799,-0.006448040362747295,-0.0061173327021382074,4.58
0.0041894472464991004,0.017517542826097365,9.735265758955787,-0.002255737539034615,0.015309769434950698,-0.00216401046219723,4.59
-0.11668732126595148,-0.043309354395853955,9.701886346608045,-0.00039628985517234887,0.013375616259200895,0.006985330450525065,4.6000000000000005
-0.06127995175316693,-0.07286015250495533,9.781399033298712,0.01442901213514826,0.012437689296726322,-0.00100480801699873,4.61
0.031834280198203,-0.15161806798038435,10.00106233297413,0.016214193742589218,-0.001845552627502606,0.007268652957121885,4.62
0.019938921538781677,-0.017191282130183644,9.72630807237142,-0.009894142828302711,-0.0005920417243022374,-0.011193668980643253,4.63
-0.04765067153919074,0.0651562542844228,9.780705507826475,-0.008967717620069813,-0.005110119207471763,0.0113340930014981,4.64
0.13317258259927622,-0.0011439195214302548,9.849655258692719,0.001985881608385985,-0.0014279427002254087,-0.032344633855706253,4.65
-0.03740199822320962,-0.009280861105773022,9.650345440391195,-0.005268466618171742,-0.014499419433137197,-0.007944989272307051,4.66
-0.024177132645083883,0.15523398812509692,9.774307208893102,0.019351629032180854,-0.0039562098212320256,-0.007031258655689335,4.67
0.009335139742461937,0.03648324678676166,9.577447324553694,0.01134113519904214,-0.01002903570991616,0.0009500731334225768,4.68
-0.07256899236489123,0.08823453522906707,9.772265201232113,0.008253173607420668,-0.002025443252874381,-0.006209830781972688,4.69
-0.04252369000863969,-0.10198154150973948,9.852299202053976,0.012352480789224182,-0.007655956288350031,-0.014919307855352311,4.7
-0.00620041720849503,0.063418666444965,9.823483968959716,0.005049571626054315,0.006271320100164922,-0.014048951220456627,4.71
0.152591431656235,0.02888331175330343,9.796979043417844,-0.01706318238000141,-0.013346099754774137,0.0017045737077859625,4.72
-0.06938669947821645,0.038238143207864624,9.693703089902073,-0.012231179511211195,-0.006286850216581575,0.0006689352379464651,4.73
0.07297721774075863,0.20043240104718968,9.918421621732872,0.0198818172177356,-0.008490609243806737,0.004356595993121586,4.74
-0.11281545553161249,-0.03204322339925564,9.903971195952657,-0.0025430847759390605,0.007404045621412592,0.012807496806279002,4.75
-0.18393262596291587,-0.13990703606079755,9.819855383385358,0.009024231825155557,-0.006758355091327453,-0.020986585066816773,4.76
0.14313316522215802,0.17052441767838722,9.811965763777119,0.0021929780786475775,-0.020933531130623063,-0.003043799243066909,4.7700000000000005
0.043586669808979905,-0.05638768390932663,9.852286446998235,-0.007228101212225726,0.011233496583798288,0.01243327165792292,4.78
0.1274017750451314,0.10026095465846366,9.738825552233005,-0.015468153482404264,-0.0039028606531745056,-0.008791237679470317,4.79
0.13712856831366418,-0.04129240155692023,9.777466844290364,0.00784525164772081,0.0032425012239463494,-0.006478847941469102,4.8
0.15244801652532372,0.06804888207676485,9.723888700092985,-0.0103936902336128,0.003288538194365336,0.006359630023721578,4.8100000000000005
-0.01896534481897199,-0.06899627706023631,9.728737691455029,0.005371284806784005,0.016904111719278466,0.0072666195272398605,4.82
-0.0046592127688033745,0.03151358459518834,9.87223637968247,-0.002952668627641902,8.150901085236902e-05,0.005442255587714852,4.83
0.04493840849347552,-0.16654686136812197,9.72013706789119,-0.008362086956691361,1.5284991578179173e-05,-0.0057492858602871824,4.84
0.01804049051937903,-0.012191673029945753,9.812324847389394,0.00452332205312935,0.00795044702026411,0.005730094439905068,4.8500000000000005
0.05034314340557688,-0.2066334685943518,9.653691109440045,-0.002133105510523085,0.004901837922578748,-0.006298315804502866,4.86
0.14195903129979173,-0.04955498563195697,9.750718719960348,-0.0039227255816878725,0.0046430854338883314,0.0075118263571799385,4.87
-0.03969760491283077,-0.012301427945818915,9.918079802814487,0.010278634396815756,0.0019742491056173963,0.0071984929709810195,4.88
-0.18558771744958774,0.1040672195433926,9.670560061274275,-0.005706527751133264,0.010980454025250774,-0.017257904030555896,4.89
-0.14363576858724106,0.05565423379806116,9.866511902234633,-0.005937813947632995,-0.009278354529927047,-0.00569095147061102,4.9
0.1070608259706216,-0.08501689580564527,9.809219895087487,-0.008518790641225533,-0.01566324601903423,-0.007984637197513307,4.91
-0.08340910991455819,-0.08865163204903757,9.811293111933276,-0.01954096897205655,-0.0100593569449315,-0.0014934500165322353,4.92
0.07771110847085977,-0.07816090558600057,9.89410088286035,0.008185679980308723,-0.004079058079725772,0.007312066860374314,4.93
0.13310416670480918,0.04530900622536229,9.772403079874012,-0.005805431951361135,-0.02053030059618716,3.637473904180921e-05,4.94
-0.07071884904477314,-0.01411664980341921,9.918092358402426,0.001583001143729414,0.0025940891807725926,-0.014651357318211235,4.95
-0.04933164810420399,-0.10853813243120672,9.795560605847783,-0.00021789740533783368,0.0004423990284461812,0.009060108106154008,4.96
0.09494562259055596,0.11163623254049522,9.832930595483392,-0.023705819996588134,-0.017826511164596565,-0.006828700160578078,4.97
-0.04576623881701564,0.10538980931007616,9.75854332269385,-0.0029381648298974624,-0.006497261411316381,0.00561129867631867,4.98
0.017015397151959596,0.053686154975672876,9.860286779515487,0.017960965017966436,-0.0017428112008764573,-0.0011101086625600076,4.99
0.029833332808403223,0.059159700158359696,9.74457016003272,0.0029026916122908233,0.005200123796519339,0.004406602268423287,5.0
0.243502159304488,-0.1169122927912619,9.675589234282842,0.005652946978889985,-0.002771919996135547,0.0085925875562238,5.01
-0.06403156921110094,-0.012530669327947214,9.797798879768798,0.004562441889527309,0.015187012224988852,-0.01166167905569695,5.0200000000000005
-0.13369231461929051,0.013265993561891669,9.755685106901494,-0.00695560593095429,0.011790266768896447,0.011718704716263075,5.03
0.0052651365136548185,0.04188810385992127,9.753022464318754,-0.006686292698400399,-0.0017174396059403308,-0.006123563636644528,5.04
-0.08030329698773259,0.017326059199972262,9.625425513270049,0.003485053477078153,0.002222976528844202,0.006805376113753333,5.05
0.026248196911313523,0.23657465131141417,9.904640338676925,0.013783460550197652,-0.020755114145779543,0.001018792533287516,5.0600000000000005
0.03493625033431601,-0.0482511897805452,9.71432139222605,0.014386344705368868,-0.010303072832767322,0.00943968127577785,5.07
-0.07340983288749006,-0.08021872673081257,9.667997905218508,0.004329520643750346,-0.007910435121379528,0.004771689325488259,5.08
-0.04392814531869659,-0.0010610194706990495,9.836367615107045,-0.004549822248894354,0.00016032857809076056,-0.008659544350368115,5.09
-0.03345254240314887,0.13485978276416216,9.729978301006033,-0.008055958792503941,0.002182625350996642,-4.6192526718222106e-05,5.1000000000000005
0.13715938127529456,0.036534197874468294,9.733359333017237,-0.002807568474524712,0.024622170542472482,-0.0015242792489351563,5.11
0.05749728432664322,-0.12825373290466274,9.814249915583995,-0.010803193782429776,0.02279944214363622,-0.001779341854388131,5.12
0.08662652808819758,-0.1744135934549478,9.875907851434704,0.009130660889081897,-0.026967078593414438,0.004517606057826168,5.13
-0.08618571707747286,-0.20816015840302132,9.632225732455781,0.0036700984808812273,0.018644501510675857,0.0010692420943715104,5.14
0.07793113099903098,-0.15559843007066554,9.738483125735938,0.005773131975741229,0.008546680751681014,-0.005365975525569455,5.15
-0.03540963350113613,-0.20735650299154923,9.817788297681188,0.00497416855690471,0.016447700050788855,0.01369670344438846,5.16
0.006637531060198834,0.0678558385547291,9.667666420578866,-0.002104617262548031,0.000454045499861016,-0.004411840195371418,5.17
0.19064083743782953,-0.12664560257633906,9.851825804990032,-0.01139885673811026,0.023790988809228662,0.006571930534316761,5.18
-0.011220808991866784,-0.02650637939321608,9.65310012168441,-0.0006491105498544454,-0.012254607342831297,-0.019999205724114653,5.19
0.0028706603353159266,0.024866288262758995,9.694114991956095,0.014000118301241586,0.0066983826519013655,-0.007987265091524136,5.2
-0.08613014014727424,0.10177787589098566,9.913577505841122,0.006415894749738147,0.009163898028867955,-0.004516930667735949,5.21
0.04265824589533954,-0.14985745942775086,9.676223269786144,-0.0031730735081144396,-0.004032645799096202,0.0026042021605317727,5.22
-0.029525046946553418,-0.03448606106487725,9.842096058756125,-0.0038429296281825226,-0.00507969503898968,0.0007089220570186871,5.23
-0.05369248727128079,0.011430685676445701,9.740430038143035,0.014379810211636729,-0.01239792091845499,0.009336237187420889,5.24
0.07278321637197321,0.14470673291236552,9.728017855411737,0.004286072904902782,-0.0042095251915387965,-0.01543684217944169,5.25
-0.11014541771577241,0.005348025144345039,9.734728943183743,0.01362805719514562,-0.010251000121684797,0.009169640189651286,5.26
0.07783613248836245,0.06982978123239403,9.857308277027288,-0.013386238206545296,0.0037756840128408066,-0.011620283374503387,5.2700000000000005
0.10220019716207124,-0.09591614635362379,9.82769541232113,-0.00842102322774394,-0.007294260992787911,0.011221622217604062,5.28
0.055437899345083475,0.08663867258987422,9.743664212743308,0.0004761966957261998,0.0015213631011360093,-0.005396249569078034,5.29
0.024760264140952132,-0.026179282809057482,9.919351896883937,0.007439647562052573,0.018254623019294584,-0.00282622918816081,5.3
-0.0583749788872843,0.052818302527757835,9.757601319059377,-0.0038383547095493893,-0.006532123505619757,-0.006497015122535549,5.3100000000000005
-0.15516545960086747,-0.02661210281019277,9.845182847898416,0.00021566156064563896,-0.0027193310437629687,-0.0002541616105479319,5.32
-0.08414454205987376,0.06823340560243739,9.78704226330137,0.013066147002727796,0.0018810392278894846,0.0032748587838421707,5.33
0.12056868597239373,-0.1359030928792001,9.729548247382079,-0.0028182364812657603,-0.004372937740982543,-0.000959033936491517,5.34
-0.14298553570923164,-0.07074666850127774,9.789840327771604,0.0060145170909814095,0.01263129930981538,0.02242356185535037,5.3500000000000005
0.0726581534388289,-0.09881808807588481,9.907719005858604,0.009794348618990796,-0.016465579631260826,0.006418360127920142,5.36
0.03038878142957881,0.13927760037943748,9.81246752678934,-0.004440331445530711,0.0026775244323275836,-0.014767315261504524,5.37
-0.005184141190104156,0.08695543681413294,9.747895717152598,0.01105368728239074,-0.006987860212260333,-0.001438637939806354,5.38
0.12413784752914894,0.026697479729251617,9.81555817961846,-0.010072420042896695,0.005153909041778765,0.011176099786694068,5.39
0.09967527881157758,-0.1652650327156762,9.827936555232869,0.005404138228047503,0.0040454008032475616,-0.008623094824199618,5.4
-0.06741044732658404,-0.00660425808569517,9.688152796843816,-0.009373833490361628,0.0257348398478164,0.015082796615396316,5.41
-0.1195216043624551,-0.13425735914059547,9.762201590782846,-0.008284481694230782,-0.009790771139249683,-0.0064056102730439225,5.42
0.10332419139720306,0.0270220150738308,9.948498984812185,0.0003281974602234278,0.00016916024838343335,-0.0010876844210816227,5.43
-0.10333961506803735,-0.041451075718932674,9.8700931496564,-0.027333242638564008,-0.0023763529309766634,-0.01129041528330904,5.44
-0.0037534580619240886,-0.026047286177254814,9.811379371779635,-0.011808585104001021,0.007672295319183328,-0.0145601469176469,5.45
0.025292539921396698,0.11669218038312744,9.938922033999368,-0.014744451137743878,0.01767050949665628,0.002231788976979143,5.46
-0.07265578032596094,-0.08647231374563062,10.08585143152164,-0.006293378898595841,-0.0013804018325466322,0.01723297786813286,5.47
-0.12236351670636623,-0.004786655400923035,9.931198636863297,-0.005064690991217248,-0.020096991580643438,-0.0050875977915623835,5.48
0.1601138780643894,-0.08031813177582489,9.753675001787116,0.011740639719142954,-0.000565382410927569,0.0034637995995380156,5.49
0.06627020282648911,-0.05039437691202563,9.791198807708858,0.0075296676108149874,0.015171372703421145,0.018911945676472867,5.5
0.02952343443471956,0.16705678937419977,9.781980644349757,0.013265759467700792,-0.0006435810256153313,-0.001939716331428393,5.51
-0.04570843873849063,0.10608002696298709,9.80572518679037,-0.003867217591903709,-0.0008354828861483932,-0.009465834471470858,5.5200000000000005
0.1951807039235262,-0.08268938086193782,9.76205486286142,-0.003061439819498404,0.0006097824873421088,0.002388511743271962,5.53
-0.15292888560131537,0.10351636251040151,9.780915794431975,0.019103040896778025,-0.015729779609741177,0.013905906344517133,5.54
-0.05615316073560922,-0.0300288380436119,9.815151620826834,-0.019379177136477473,0.009409780479952121,-0.014191292869763356,5.55
0.01738973570815616,0.08392667981309158,9.83322627264991,-0.0008179588079413765,-0.0025887363593001633,0.009757384141678047,5.5600000000000005
-0.2346653864097339,0.2240789986793114,9.74438183057764,-0.017306414631497288,-0.0008909568569433913,0.0006650680613333771,5.57
0.06250250466865012,-0.1004376429881567,9.863114482542217,0.007725039784874163,-0.01270577081526178,0.018219356019551214,5.58
0.035948857621715145,-0.04067091745653106,9.803512315491927,-0.005426242470531508,-0.0017129940758537116,-0.005448250815120657,5.59
-0.007910495432976379,-0.08949379183353005,9.776109453992806,-0.0008424435168013177,-0.004989891166792211,-0.009047430814937344,5.6000000000000005
-0.11247010316113946,0.02866037293225472,9.97147707648419,0.009470627472840411,-0.007361968218258662,-0.00365224577939064,5.61
-0.0007788875920234362,-0.006366061330540046,9.977854754327762,-0.007521969122608729,0.002076153982463941,0.0036088357601538564,5.62
-0.06075595758994034,-0.029468432434411752,9.777089172508283,-0.009993655278964567,0.005291762299542633,-0.010274371708723879,5.63
-0.04369739676027574,-0.02805128041650112,9.760989237958436,0.02049279956185545,0.009976395873288817,0.002483594175152436,5.64
-0.00023552443416770968,0.08582002418514856,9.745559350284474,0.014476763337364201,-0.0012816522127556166,-0.002361648390959498,5.65
-0.17049760709990505,-0.10808460753147714,9.738819861666311,-0.019897352994023215,0.0025754828247541483,-0.007065328788149806,5.66
0.09635138760182847,0.020183183751900688,9.779821082761636,-0.021923757972684414,0.004468803443041893,-0.001398755817113518,5.67
0.04305620389782143,-0.12316101498796378,9.945626694972253,-0.0005991196153708848,-0.002458083416962299,0.008423613091188768,5.68
-0.07099340989610892,0.1407725932137174,9.640945317729036,-0.009347468546053532,-0.03392222099361837,0.001462971484220991,5.69
-0.09151987444463422,-0.03651974701253764,9.675826883252357,0.00925776774273683,-0.008005463871731594,0.000292605822658155,5.7
0.03139050450591738,-0.10402368757890319,9.892125501315235,-0.005637235238989143,-0.023129013048998816,0.01407493474174293,5.71
0.18832949054356826,-0.06997650030185598,9.868624166109477,0.00022635979245899752,-0.00014272783892899237,-0.008098402729295082,5.72
0.15470074421847885,0.11557217917223189,9.733234873319915,0.00710556033884382,-0.00941195029128579,-0.0034957995887561705,5.73
-0.09553703954053072,-0.14301829178303516,10.012712158786204,0.0093473124260542,-0.01011119093449031,0.006629527357841946,5.74
-0.09054879728965383,-0.19481350715351153,9.850676415474277,-0.005180745162731114,-0.012898516591599615,-0.008311640283391677,5.75
0.05396668915745592,-0.08400374093136931,9.981022407792707,0.011200636510654886,0.011876121465083702,-0.004487810300012397,5.76
0.027925820202713204,0.06621818841321547,9.7812440595709,0.005741494235962021,0.0025740885249009586,0.01274858456916925,5.7700000000000005
0.06195466122596347,-0.07826780585005927,9.887642173201328,0.00044296668343969415,0.013740091688498463,-0.00037415608828697094,5.78
0.002228754812609439,0.03643930373433356,9.733433524678325,-0.00275207271512044,0.0015465198047866365,0.0004198032516889545,5.79
-0.021979090202354386,-0.02134327226539458,9.75763392299117,-0.007030273910723079,-0.008021088968803533,-0.0014646967112122552,5.8
-0.0015885507510723302,0.1231456290818413,9.880288382787015,-0.00654081731129684,-0.008546868811891081,-0.008720100904379621,5.8100000000000005
0.1544966414108518,-0.04399741817450509,9.701182403782385,-0.004865802194202915,-0.0020352718765722128,-0.0029868228363615786,5.82
0.10841456803721213,0.10465928446328535,9.948986620221001,0.018063441617324764,-0.0039797813531990125,-0.0017677604400550473,5.83
0.05952605441038057,0.08910030757355974,9.748721831811192,0.0038764078904122423,0.0034170225620250376,-0.005196948888375537,5.84
0.06005572532109347,-0.07093745373144907,9.997091690033365,-0.005043747826169476,0.010850032811634104,0.004598228629874371,5.8500000000000005
0.08719418762352898,-0.16564434659881433,9.829525499022653,-0.004833498642327022,-0.004484791779627847,-0.004735653251612368,5.86
-0.11670691922569934,0.07363449066379046,9.556577524430478,0.004144131806943807,-0.008593753881729314,-0.0019292294169779118,5.87
0.09955256762979836,0.012067869682549923,10.031442293307931,-0.0011282851023353547,0.033047159103539905,-0.015809916380995305,5.88
0.10796244042742827,-0.03168616774166497,9.809028783715924,0.008499579747037606,0.0012390282790683388,0.001235083138722964,5.89
-0.025603315512381725,0.008588032214896846,9.929074469330939,0.023903062963222883,0.006344713639877577,0.000914873696719968,5.9
0.022686122196019447,0.01055571040187295,9.786056191373744,-0.005564446811084264,0.0017429725161472271,-0.0008478482967659246,5.91
-0.06215013266302898,0.09671625659160754,9.811759636381158,-0.0038095198757543782,-0.012639419642307026,0.00837654552417066,5.92
0.16464649726560754,0.11784981829944959,9.84258043021282,-0.015430274092190594,-0.00325075445883735,-0.0030590841918739717,5.93
-0.051287437129601425,-0.06329479893816867,9.838344478456882,0.011193311623779937,0.003424226650431521,0.008740888690237382,5.94
-0.0012533409671794719,0.044170811241904605,9.526181960728278,0.001924806991309963,0.0025702961688861842,0.004793605509389807,5.95
-0.108812026147313,0.09318246459493668,9.719267908642099,0.012801847398311826,0.0033956308293420557,-0.004207270100089874,5.96
-0.12576854292234285,0.028113834405313398,9.736948393235888,0.005022814640315013,0.012502807680244704,0.0035855542472424946,5.97
0.1431815675216267,-0.10557951978914493,9.771327792415638,0.014366892404589705,-0.02326178982172587,-0.005016456014455446,5.98
-0.09411380218250495,0.1596283857490337,9.769636578600757,-0.0022453658550181856,0.004863812253778962,0.003270765748631731,5.99
0.09687797901898758,0.09427184523117721,10.07248967227155,0.007528617032843334,-0.008692042768773247,0.003826023454820577,6.0
0.09797206206746588,-0.06616734771986406,9.726914003763328,-0.006938085003166276,-0.0005160313704162619,0.012250602572629865,6.01
-0.02435870483708671,0.18226927827704012,9.89780011967285,0.006090531835213225,0.0118153633974136,0.008953230347267763,6.0200000000000005
0.11133083102461937,-0.07853970372838504,9.835158325637874,0.025633472083772146,0.006055010108487654,-0.006295719729691827,6.03
-0.10462821703968522,-0.0408616806056882,9.606467137011194,-0.01327841960205244,0.014542881416497134,0.004752936842210288,6.04
-0.03369700169750262,0.020289341308119446,9.862561539104554,-0.01730018697528178,-0.017319680354735256,-0.005246576496545636,6.05
0.05145393496760994,-0.011844471213317696,9.654775018238283,-0.02017114331625363,-0.008372008284841241,-0.004101630084323885,6.0600000000000005
0.16529432969548502,-0.003414666269516082,9.937557352830007,0.013856493227358558,-0.0327768680704962,-0.0111969259340425,6.07
-0.06993742115035666,-0.046066834829194964,9.812940887412365,-0.009885701369690714,-0.004012533045473802,0.001609290818586429,6.08
0.09570524338951858,-0.0015190118294224168,9.885702035161344,-0.0037610097458204697,-0.0019774088857421558,-0.00014580674306677473,6.09
-0.2202119961230634,0.1367390063679865,9.857675680485494,0.011150667576739095,-0.007647028393168843,0.001886920959610053,6.1000000000000005
-0.11352337543954881,0.06257240507878352,9.865995089661517,0.0015451973810681017,-0.007230485506146272,0.0030163525783145025,6.11
-0.14729520033299415,0.06710872949093814,9.850424675081136,0.00389034565355756,-0.0019490831377267435,0.015005922526730765,6.12
-0.1389544538923595,-0.02906906928581651,9.942907989127784,-0.01583562669358667,-0.004757859402157299,0.009838577105890834,6.13
-0.056690217902391794,0.1004401021656861,9.75723472418458,0.013056098128342804,0.013893561658084386,0.014747695145579125,6.140000000000001
0.07087582851436615,-0.00850469511770805,9.567967349099481,-0.011381524401184832,-0.010960817061461726,-0.006346057331018537,6.15
0.004637986189496705,0.11876840287767497,9.847213335237841,0.002836844961570535,0.0044387762281191305,-0.002968630464064622,6.16
-0.036568217169647525,-0.0412989533632628,9.692876932038919,0.0028445530731137803,-0.005458017933447792,-0.01643505054498324,6.17
-0.13197949345313617,0.0771770938989783,9.787805833949157,-0.007812758807656289,-0.004612923885379406,-0.0013985391827961247,6.18
-0.02753799444528135,-0.08978751927321221,9.91428539666892,0.02038576635401252,-0.0038197699528485984,-0.004637172143941575,6.19
-0.09020956731555824,-0.05125583171918194,9.783394973693637,-0.012194574850652878,-0.015008436361112524,-0.0016791676683705673,6.2
-0.09989051373110903,-0.018919334060573348,9.705923506596097,0.00462740014978163,0.007667059312179572,0.008462554762089134,6.21
-0.05272217654294963,0.0796148824167062,9.748277261250543,0.014093087383637602,0.002384366947506666,-0.0022926060867093103,6.22
-0.13421149671961627,0.2530757502112592,9.929477501309488,0.015458070190396774,0.013430137022108712,0.0012482703770374036,6.23
-0.08481137350559984,0.053644345555812226,9.755837356211973,0.006390027233019064,-0.0039689244190683134,0.0019007319023891399,6.24
-0.1667874558986114,-0.11324001989580229,10.079161610773562,-0.001216650201378115,-0.0014016291143004384,0.024945475344622756,6.25
-0.09066051873945667,0.06828811143707744,9.56600517116515,-0.013673541094827185,0.012386361620333502,0.00520114897226683,6.26
-0.04946707968173092,-0.18555106701517646,9.807240479199118,0.005585820047444706,0.008998549064263648,-0.011732198239927494,6.2700000000000005
-0.06558952989245238,0.08058155714766821,9.87067080534521,-0.010115998294820863,-0.0115350975871867,0.026802299785091493,6.28
-0.025362682656775173,0.0634716188850822,9.889300373422873,0.005888311663832479,0.0008174416265604608,0.009295551621417526,6.29
-0.025890657462750447,-0.015117784175130714,9.900453731501841,-0.0030535917214943174,-0.0070521680333289795,-0.007720928156785512,6.3
-0.12461048796318511,0.08419575474913546,9.772529073951427,-0.0032659418174554944,0.0004836593903154903,0.006505896939247393,6.3100000000000005
0.026628796384086773,0.06496939528658859,9.9457546167076,0.003224770327245118,-0.0005245063348070244,0.00224988408614518,6.32
-0.040077208336477044,-0.10799293513913753,9.836106955532536,0.023108105466527206,-0.01581667712570099,-0.010489429862210757,6.33
-0.09629990748681033,-0.05050535461857706,9.913636694681651,0.0024676639731257637,-0.0006932248293740498,0.008462543067379523,6.34
0.11660543778382629,-0.22646695735516575,9.897868344668952,0.00245417308319121,-0.019431206366087347,0.00939221792080444,6.3500000000000005
-0.15924684100347986,-0.07165712356778561,9.880037542227486,-0.00816057850350874,0.014374399577033228,-0.024943498797941357,6.36
-0.1337180648413282,-0.15341598276334956,9.675605403943779,0.012067788765159062,0.0001964072595231516,0.005726090268857454,6.37
-0.08715813751432964,0.06963185431932038,9.8114951048991,-0.011785384473357115,-0.0099806794031768,-0.009600898494585716,6.38
0.13596256079203864,-0.010323522356829942,9.77034314788622,-0.0025822152742549713,-0.0049261074240563646,-0.01731128001635998,6.390000000000001
-0.20856044557831221,0.0347027306391093,9.958587452101249,-0.004584684148080187,-0.009691299232139374,-0.007587952329477476,6.4
0.029145335097805276,0.2572469807631875,9.804436335210962,0.004320104676663006,-0.005165741219475094,0.00861987117711663,6.41
0.021671908139375827,0.023462592261977777,9.67440311652147,0.010192947665769043,-0.0025813950756177983,-0.006726511216276573,6.42
0.03842137342207943,0.019363710882831835,9.646661310809078,-0.01829380658141561,0.005195019963648168,0.005100932298765861,6.43
-0.06746005255719978,-0.04802825243706011,9.57247816654303,0.01678034792821656,-0.008444685536911516,-0.005363475217583383,6.44
-0.10194473931391218,-0.042229351557091725,9.926738259490604,0.02432507023578426,0.00047085467608185726,0.005142490332035047,6.45
-0.07627686437020086,-0.06017990971283056,9.86223298051745,-0.004396913569428079,-0.001846810689468908,0.012266717578788148,6.46
-0.1736298078125047,-0.05726718694033015,9.94432928710981,0.0015536431019863841,-0.010652851742146243,-0.00048708563671194917,6.47
0.08942854487462015,0.20648444518750184,9.867888832724539,-0.017699467991723596,0.0038199520013582466,-0.014962567689118883,6.48
0.22805553513753507,0.031537271885474456,9.629785808265192,0.001830138079664527,-0.02190121984092952,-0.01072560973790265,6.49
-0.07386280184163498,0.0783775720706638,9.881729548503648,-0.015495710647785786,-0.0026756782295486504,-0.013502278791035757,6.5
0.013909173578284362,0.12884187626808258,9.794938033301259,0.011248719529418041,-0.006499354481508064,-0.00020408730577291007,6.51
-0.059062825298176594,-0.04392537861101884,9.796235722025447,-0.011957987185025637,0.009946605736234621,0.006659415429912817,6.5200000000000005
-0.02369094081298194,0.003682073709095416,9.84332193357231,-0.0006481557856481019,-0.001853123169158581,0.014180205474790356,6.53
-0.13463959730091155,-0.0020026748135355717,9.744716170454677,-0.01367799007366569,-0.0048849814974275246,-0.007976816408398408,6.54
0.005249703730604919,-0.13850553404661828,9.863532808716519,-0.012412193269886742,-0.004332935847794305,0.002029002886289661,6.55
-0.04258785848419637,0.0011096450844669023,9.633118370597794,-0.008802506936839056,0.0025656037207262643,-0.012272251189640055,6.5600000000000005
-0.05491736920790772,-0.01633499251694778,9.885189415211025,0.004379675943710353,0.008335938165414078,0.0058876875226228885,6.57
-0.06452034795623707,-0.10391542029708732,9.924662443385635,-0.010706108143024475,0.006040340951572576,-0.0032126105156319164,6.58
-0.036757742923794905,0.05099808621038805,9.817734159011184,-0.01104914424086598,0.003242749170007779,-0.01148631688345382,6.59
0.06464753939671652,-0.003981017661807346,9.765301376143507,0.0039796344503599,0.009548336414298088,0.009114713476325914,6.6000000000000005
0.04584837435956739,-0.0927113640687968,9.600931103286344,0.01178324034046143,-0.008709927492388393,0.0015493578042930223,6.61
-0.006446088030502079,0.11665937850563779,9.773316710842773,0.00976740912215866,-0.007515278628066627,0.013319894917290687,6.62
-0.07209519860498666,-0.07270551679292506,9.99573570672427,0.014121787430483262,0.006564684615965495,-0.010877320364475475,6.63
-0.09750106578934103,0.13825401837597903,9.861634402985633,0.003330569293555048,-0.00761473648361894,0.01143334636049862,6.640000000000001
-0.05826064705376058,0.09193573207394776,9.744167271476606,0.009204712213070978,0.0187805234204251,0.004199110082179132,6.65
0.12491276459900441,-0.18703565940807695,9.981314019508865,0.028056460764233106,0.0011984515070278658,-0.013705086165718723,6.66
0.02968437738027842,-0.08039386807792044,9.958130158491423,0.01289336026431527,-0.0036377910704219712,-0.0013389434001679368,6.67
-0.03438336636563009,-0.0839446072526987,9.864021356965585,0.018185600768262512,-0.00063742311631686,0.0028921692231710155,6.68
-0.01954298972218827,0.03623479117105509,9.928310872960937,-0.0037425855344093784,-0.009460756827894209,-0.006165475786912549,6.69
-0.11191757649964462,0.08975221735204275,9.846976447364586,-0.00976282511434042,0.012324861520224566,0.015194767783664258,6.7
0.04772046746679362,0.05338237689003936,9.712769312417441,0.023965583771062983,0.002742765595040102,-0.0014415359245715628,6.71
0.0524561830681452,-0.1042484091651099,9.90354382401689,0.00379977959374642,-0.007406946705254935,-0.001156652104483146,6.72
-0.0028491552803905323,0.06518471733843127,9.885259835940008,-0.0025259302726740635,-0.009076326824501655,0.015881698147774514,6.73
0.022482661386808322,0.02489094263945112,9.828267479153887,0.016505744755977495,-0.011791472005630974,-0.012306134353421556,6.74
0.010038058471587098,-0.06069248360963311,9.783620656450706,-0.0006856176883446436,-0.005344512951984331,-0.01561986269225983,6.75
-0.07542924074497658,0.10818734236623062,9.76659955088197,-0.014847963172282975,0.0172359157980154,0.0010279556646441898,6.76
0.0020569281732296845,-0.11951325680662683,9.918133080618318,0.003574708570389728,0.0025787695503693875,-0.01665939752452797,6.7700000000000005
-0.14262502484008163,-0.08609164262388659,9.600934885747664,-0.007723627070494375,0.0076854229282534315,0.018837065932960244,6.78
0.008199731454406728,0.11770050277281954,9.769899843856217,-0.01656968229953504,0.00036715373364269103,-0.001590650533852325,6.79
0.10686707154694491,-0.008926348766750719,9.7992125870273,-0.006862994693428537,-0.009191781648887324,-0.0021358823080046643,6.8
-0.17022020491361609,-0.09447660231017035,9.79086578203709,0.006147158801873172,0.011935678128772163,0.0033373253398139777,6.8100000000000005
0.10012930457796564,0.05568756567469179,9.913196573100096,0.0028354660974974585,0.0071001843929665975,0.01275159494193782,6.82
0.13395022438792484,0.08664189158202218,9.925274192209718,0.011278773833058822,0.006676061999619014,-0.009920852214726097,6.83
-0.032817478737347715,0.0414628053385758,9.636316253704686,-0.0035111618379880835,0.01109557054717103,-0.02409385709960709,6.84
-0.1641480399056924,0.14066406832265638,9.985083453615337,-0.003585004106744401,0.0065906698490249905,-0.02062534807723627,6.8500000000000005
-0.106093857131464,-0.0680223392769873,9.718357764476552,0.0074118682887283505,0.002086785840818225,0.004490480204057973,6.86
0.06936545819325647,-0.010450846035640981,10.022235031367103,0.007853977054452068,-0.007028944884425082,0.016756424197270043,6.87
-0.28908208330050206,-0.01693499391364707,9.863965252447912,-0.004067855562459883,-0.0059738727302656915,0.0076205508177679465,6.88
0.006721930565535961,0.02063078577531884,9.923121326418658,-0.017004836991483304,-0.0028170377340109238,-0.0027091128996662808,6.890000000000001
-0.005594282807414235,0.018450415813372784,9.78961418680057,0.002687820184787528,0.0010411839283357774,-0.012982527204180425,6.9
0.10201158479695654,0.09473278816761048,9.873713230179385,0.007299519763779575,-0.006500795145055891,0.0042002137943569825,6.91
-0.11033257171702633,0.060827707469625125,9.88155935247226,0.007878560211363192,0.024572220170196713,-0.0018185380101239151,6.92
0.01563349363312185,-0.04393592611113713,9.811216386037879,0.01337512266070732,0.0018148997520410165,0.011413692690612013,6.93
0.04252034210899955,0.0505436547774169,9.850897067431221,0.01237165971697046,0.005332122277154707,-0.004390666529711094,6.94
0.024822629117571507,0.032317174865748984,9.82670401516835,0.0027115767395820877,0.003388452161727371,-0.0011107094804634796,6.95
-0.11109143611771094,0.04761065141767018,9.94373743527196,-0.010398058308889725,0.005840260953844473,-0.0076772462441686675,6.96
0.16144615801680592,0.009485441126813902,9.76398459529714,0.0010145685912532358,-0.002908657815135967,0.008126019812521361,6.97
-0.1905844158613078,0.06283071846455797,9.916967956445447,-0.02386736854182695,0.005592527738869288,0.01121355722872115,6.98
-0.07096419321416819,-0.10730937684319813,9.663993733301565,-0.01365423493180861,-0.009290159027836626,0.0012732700053112629,6.99
0.01588490416358161,-0.13339474024411777,9.952350044435658,6.144083258186526e-05,-0.010538035662944662,-0.011721385086388236,7.0
-0.1064166364467169,-0.1405099985710073,9.872227815097522,0.001967133386920332,0.0009034129351584634,0.0077441220235234,7.01
-0.09930754254663922,-0.13779862683683217,9.667591711830411,-0.0036214124435655186,-0.0005258805561933091,0.004096526068301042,7.0200000000000005
-0.12749784567064495,0.03148120024167554,9.787637672133055,0.0021456333998446705,0.018214129012091122,0.009561422984306421,7.03
-0.08440516532504688,-0.15757157161536106,9.929626724044873,-0.012890504239731228,0.0032326122714330108,0.008638533178843178,7.04
0.13191299097099005,0.01958112055966223,9.77467538635462,0.0023303468772875374,0.004267311611883722,-0.0053433159256008125,7.05
0.010253833221113019,-0.0008081766564643758,9.753134613945418,-0.002255339911542715,-0.02599306324050281,0.006951770262793824,7.0600000000000005
-0.1113517745480342,-0.022105838745688867,9.896386394977753,-0.007409364517813592,0.015612633747072233,0.006480192537029388,7.07
-0.09473966249978287,-0.015374688226732545,9.76503598983459,0.00611873386818184,-0.0038079772795553872,-0.0059906687103046,7.08
-0.06968702493697275,0.10664319003095456,9.869178057412974,-0.005229613085337797,-0.021939159886641604,-0.012222384210472045,7.09
-0.06267352680874591,-0.09211819137543195,9.788740260300946,0.0044132124730362704,0.0012854006346354808,0.015100505778417218,7.1000000000000005
0.063304137617281,-0.139391434145766,9.8324552777047,-0.008251239371483834,0.009711918654480458,-0.007461950757099573,7.11
0.061127660942737166,0.04226227053335648,9.549594909511994,-0.004148612275616073,0.004430368790977105,-0.0060295888562464095,7.12
0.10295982499368853,0.007061511566237477,9.77917262971597,-0.012836032522719126,0.007880448308860675,-0.005959851424609007,7.13
0.050412282122702205,0.006035111349424288,9.773795338260356,0.005788442678865878,-0.01401416629658989,-0.006114242963006821,7.140000000000001
0.0003519738802385263,0.049570703705581004,9.593731103791924,0.016928793811159307,0.005575316801869671,0.012795597278288814,7.15
-0.23572165047141125,0.041444394682190216,9.695019181581982,0.013233205302701074,0.003906283688252558,-0.02043075671824447,7.16
0.039979801593788514,-0.029511796130888775,9.67382747012718,-0.007102852767111673,0.00614136858152317,-0.0021659461404667083,7.17
-0.04110465890277488,-0.0179574850001748,9.885983577310546,0.008275467479271305,0.005643648203257379,0.00851727675320792,7.18
0.048520649381776026,0.022557203723340066,9.858034908677249,-0.002400368550162978,-0.006215970940857848,0.012907930195189161,7.19
0.03425811208881085,0.014804982233545398,9.877809052684677,0.015506745271052677,-0.015216146521075218,-0.00939179480859225,7.2
-0.15648748678592336,-0.0755804259904943,9.871678329352491,-0.0037624463319514763,0.020380433192730828,-0.00827056465677976,7.21
-0.07147106097628576,-0.04842600207991679,9.83351040059917,-0.008243145640083204,-0.016920527912259592,0.013147768408707673,7.22
0.051511135282846336,-0.10776333484306094,9.600241215382244,0.004169435635565115,-0.00874830825443096,0.0041088122147641855,7.23
0.07446473781858977,-0.10144130229602609,9.851293174270712,0.010955217114554617,0.004247088986750503,-0.018050024872598772,7.24
0.12232840345328995,-0.030927404037759006,9.75517471506098,-0.012325417362864426,0.013481550566164721,0.00965821041927343,7.25
0.12448823772078306,-0.10369620172273322,9.694287661591746,-0.009754700343810558,0.007972295965043738,0.004190181708916202,7.26
-0.11253400701001653,-0.035626959775307616,9.88048088595112,-0.007232944140127445,-0.013651644108883119,-0.008308334348959385,7.2700000000000005
0.07714289820865998,0.10673625396412181,9.801983178461454,0.01622772776312556,0.00868062727718712,-0.01578389983214044,7.28
-0.06866877949016037,0.1027433343464913,9.763823187143917,0.00010016314929574704,0.0034812349137967775,0.001752094985337779,7.29
-0.0676359387199502,0.004244117553249937,9.900737687605034,-0.006413427942682301,-0.002163520537936557,-0.015377273299733272,7.3
-0.048286157527686245,-0.001172815403684568,9.807729346170492,-0.015374144328390975,0.00723789422140992,-0.003241047576734231,7.3100000000000005
0.17910086239513975,-0.0013750687268604452,9.93822394313236,0.010445163110066944,-0.005842496572542423,0.011951395032488484,7.32
0.12050818498912164,-0.13327422585051643,9.70228767396999,-0.010497023819729825,0.0002721767739238874,0.008286588509035167,7.33
-0.1337755715609824,-0.005726603950386635,9.784030695030074,-0.013314035427631026,-0.004383745632087133,0.0036530486423750415,7.34
0.03643544868483703,0.03791474127223315,9.769524677377023,0.004353638064076399,0.0005750159681218545,-0.018670861894371886,7.3500000000000005
0.18866164383156164,0.0373304210271141,9.537806316311983,0.016377489604401548,0.010138222337805088,0.010409090956289287,7.36
0.14168123038372643,0.015774950722989275,9.882586277374928,0.012170621404242113,0.00011565481143325503,0.007111914591025055,7.37
-0.09081302195050142,-0.033827312192716216,9.99136689092309,0.013022095482341083,-0.001652931149001017,-0.008598053027789076,7.38
0.09730041647236269,0.033791519702046545,9.803824951264911,0.017384393185801574,0.002212290623974265,0.004757113759460107,7.390000000000001
0.1768574408715808,-0.08500377891029628,9.739528834101952,0.011743412355048466,0.0069426726585690825,0.005196797259554693,7.4
0.12635012981250318,0.002221462953319225,9.795183738941537,0.004331355685044747,0.0017746634230970844,-6.720142823025446e-05,7.41
-0.09147770563295926,0.06528323026858068,9.601282183493314,-0.0018414750920831694,0.007767646932160233,0.018038914333149282,7.42
-0.022125490208859774,-0.06822057108167559,9.728771248826725,-0.010631015228145684,0.0055180530433432155,-0.005375624615888803,7.43
-0.22286897686168358,0.059489795638686685,9.810557625233043,0.0187171688181487,0.004340837527185314,-0.005079211352684275,7.44
0.1157224793039487,-0.019929776711910395,9.775639975257688,-0.0071590306363069865,-0.00036169217751095336,0.024899718634418134,7.45
-0.03434198962120197,-0.07569662109882941,9.872258503924133,0.010825584110338238,0.0034208666227119123,-0.0036451010620081464,7.46
-0.16017179957348834,0.0853513670080074,9.878927774749398,0.008451524561394867,-0.004109537521425392,-0.026145145702635965,7.47
0.08170700810567542,0.08683690451172754,9.74925120115999,-0.010582112481767547,0.008639465410724904,-0.012499230983094377,7.48
-0.10957332271590568,0.07612389953964817,9.90231628891414,0.010532818011616046,-0.007124632099429068,0.0033980691511881116,7.49
-0.0753035540021004,-0.048093832071279534,9.990466550165738,-0.014163209456976314,-0.005534053177080999,-0.0030058484918141825,7.5
-0.04503891839464057,-0.11293498162362443,9.960066140307541,0.0032003360750479048,-0.004561401495603788,0.011266607338371948,7.51
-0.1395233418593667,-0.11057078655144346,9.923964300767423,0.004450488325149494,0.01014286919555659,-0.016425521547455392,7.5200000000000005
0.000433573473465899,-0.16976729931152143,9.803685037613445,-0.0038424397674188733,-0.014743043233381523,-0.011578802221349575,7.53
-0.04412135528848616,-0.0830469389132536,9.835612533327245,-0.0015469755695412832,0.007220471730586572,0.010891552027300733,7.54
-0.15681401505088283,0.08858353121239514,9.816896546029584,0.0048276012796544315,-0.0027372340697554426,0.004614526774856336,7.55
-0.02452996843468964,-0.17423491753952114,10.02412497242908,-0.005190031994812346,-0.011414138178724852,-0.022733807480210554,7.5600000000000005
-0.056229862655035434,0.05503430153531838,9.872527544892801,-0.004898937956907961,-0.008379125861118598,-0.00992865888150293,7.57
-0.008614447460776619,-0.032338809665536254,9.856962128097063,-0.007339816020354178,0.004755011617914548,-0.005266582377199567,7.58
-0.031438855977682846,-0.04651238980386919,9.78751120622964,0.004393112773659188,0.01445584111349131,-0.012003368075834171,7.59
0.06603498837355491,-0.05683045445735774,9.854270875616027,-0.013495975271712111,-0.005872417915850818,-0.006633204469108727,7.6000000000000005
0.008276119682817315,0.021916002253415987,9.959235708661417,-0.01618098439352801,0.033499435443290856,-0.008825899675268409,7.61
-0.2511856852894952,0.06694187464190669,9.847874708191492,-0.0012919766552116204,0.007523623144749115,0.007694481259458375,7.62
0.03061630562004788,0.21222560202448337,9.80245421377799,-0.00023400106858910538,-0.002627543019812142,-0.008108295250790772,7.63
-0.10348581497873224,-0.03153131278666353,9.75208564590555,-0.0023876945969364812,0.006242315924898361,-0.009510636962048524,7.640000000000001
-0.2648966593312334,-0.06553675867113791,9.796283168736323,-0.00757567535072058,0.0009990807434658866,-0.006494264427004158,7.65
0.09821803583144667,0.08722998268776828,10.03981900376161,0.0037232316648399483,0.003189711864407103,0.0010908132963170097,7.66
-0.210764701494954,-0.14417410273232809,9.830637202289159,-0.005407098888299041,0.0028216954605778805,0.010954145149045968,7.67
0.06596802763871189,0.012483334684674881,9.775356414827533,-0.00756976970763271,-0.001703840347108693,0.0004454979766693164,7.68
-0.014886174036367467,-0.16324208003902826,9.880373574842597,0.014461910722173336,-0.002228838348460609,-0.011565150332548884,7.69
-0.08544483780214891,-0.0448601414070136,9.83291228642682,-0.004417517977654958,0.007370516485065239,0.004558404348858203,7.7
0.11436213729323647,0.04444354101869343,9.986809254369232,0.011929250627806972,-0.0157976859924511,0.004454795833281418,7.71
-0.06971544929814412,-0.10947107638519166,9.852957123262543,0.0033527668469903616,-0.00511174577599231,-0.006054222455422928,7.72
-0.011742767503454335,0.14860511310090552,10.00254319419785,0.0017113454272892493,-0.005457824341186412,0.003768347061344689,7.73
-0.1245329860913546,-0.144830252816304,9.723687062362558,0.0081056461225042,0.008164992982812223,0.01551870899432065,7.74
0.011849552333701026,-0.10029436382611845,9.851028568321734,-0.0057519551520875244,-0.0006591105888889215,0.005097908606518487,7.75
0.34671217124347176,-0.17686490466903126,9.798175758947146,0.0022663204485189182,0.021004258307458053,-0.006055135132969286,7.76
0.1993346474853465,0.07741414969704616,9.786078512083472,0.01834278239723364,0.0021638629732579706,0.0002697182704268586,7.7700000000000005
-0.0037824981659518205,-0.2432409932323706,9.87096804314635,-0.004175574779059508,-0.005192958006887824,-0.0009754763854534557,7.78
0.013924804971785497,0.20022895341542124,9.96029461843849,0.0009986506166507645,0.004155224739370976,-0.00822279535655842,7.79
0.029171264687929556,0.25147517749647436,9.831379257304912,0.008924341423498131,0.014591761728126627,0.013257167633535185,7.8
-0.21270128001001623,-0.05450686778112989,9.723790404879416,0.00047456788584380273,0.0029510533463911887,-0.0031235400884645366,7.8100000000000005
-0.09013309510819965,-0.29380818917222545,9.642211160624575,-0.0019405403985261378,0.008814591370942934,-0.005108860652415617,7.82
-0.1349580595386251,0.0026408890348466434,9.632980901558371,-0.027066463713387647,0.02715654878092173,-0.009553654270166169,7.83
-0.24100895139071354,-0.002871218226503129,9.796898378667002,-0.007441113609678224,-0.004583925091129844,-0.004538657354856263,7.84
-0.05717202058015567,-0.06809259988821653,9.75799392544008,-0.01746847528547167,0.02269471672088137,0.022058598963633384,7.8500000000000005
0.009594189383962932,0.05317001600902216,9.83986690793036,-0.00470179169067178,0.0014198240097092437,-0.014333057136552028,7.86
-0.02607469998131337,0.26587506162501556,9.843030976198152,0.004277537257152607,0.0021364365667183353,-0.01141901243520032,7.87
0.05370919336550528,-0.05031883113954988,9.76581328483606,-0.0031224715812399086,0.006861278741952199,0.019154890345343067,7.88
0.2028730696193132,-0.07065629155420541,9.729426954820125,0.008408175949263432,0.0013854098081195396,-0.013178500355313932,7.890000000000001
-0.09942614823211621,0.07341166902578984,9.710619293422448,-0.005346252055763059,-0.006116966667934924,0.010415783053055407,7.9
-0.06864170291107284,-0.06158809289587443,9.75121175852797,-0.013771028986815245,-0.0003462848833829715,-0.0079870135949435,7.91
-0.14990137401614878,-0.06358636676090815,9.989495292495485,0.008960447841029836,-0.007924034443941358,-0.0014504145254898588,7.92
-0.04240650066263247,0.03847437323307994,9.720944510108005,0.012066326912485298,-0.003105824030590521,-0.01350136909339698,7.930000000000001
0.029732908165799606,0.22695235736941038,9.867788119743569,-0.01679029721024201,-0.002604279440687139,0.018022657756193616,7.94
0.009335398875247715,0.1070853758353413,9.779507667206968,0.003476679827853806,0.0012336155061808702,0.0009910866289569817,7.95
6.354540934416363e-05,0.010644229950099638,9.761061301811203,-0.00278378459022555,-0.010406298300442592,-0.0020150601764162917,7.96
-0.05816503962358971,0.03224985766448968,9.792421643909206,0.0042388264255632906,0.005854259912997901,-0.00862087890883746,7.97
0.11806542155389683,-0.021545863824122085,9.691102461228567,-0.0033841210182112874,0.008597723716134702,-0.00019513781155823908,7.98
-0.06726744997422503,-0.05179729689305194,9.893748779774803,-0.003036955903721399,-0.0010619097934871865,-0.011253454141795556,7.99
-0.1753535853688583,0.10964400972328439,9.937105576940834,0.013431319147102381,0.00318495559273705,0.010039987687419833,8.0
0.07201222024226293,-0.02694605067245467,9.85433816561985,-0.009333031907413965,-0.004721270036958994,-0.010273910072150784,8.01
-0.027594909081421377,0.009735936855936775,9.882338934568924,0.003485478511493902,0.010585678401074603,0.015181976532098388,8.02
-0.037276452795314684,-0.11345725783877306,9.739683836669494,0.009232659897722036,0.012935401919865815,0.008305729020122636,8.03
-0.2553041370222795,0.03223591490961158,9.925660545843488,-0.0069325534006665634,-0.011937541961764256,0.00029301128230580577,8.040000000000001
-0.008695685213676712,-0.022014787295637692,9.866089925749003,0.010928735471835727,-0.0008140236490030016,0.006117087911548075,8.05
0.000350545255153596,0.12137887189861073,9.83906696150527,0.01620714651952159,-0.011786582771049544,0.00340640855778573,8.06
-0.06709985606778573,0.11262843403535544,9.840499486077423,0.017716183861750737,-0.01723911162146193,0.01588655623913918,8.07
-0.11618931112596727,0.15744411262360575,9.877595255772476,-0.010870276230547203,0.010140668633049629,1.5739364042968225e-05,8.08
0.007060948757930979,-0.15618961952251076,9.714561432263999,-0.013308086304998475,0.006766274283952382,-0.019761098100935744,8.09
0.10475103745072385,0.029598877441994065,9.650917157761846,-0.0036306095997338836,-0.006985879874006454,-0.014561340307184884,8.1
0.07180226229210475,0.024918737017371673,9.760658581630855,-0.0016481772838596925,-0.004169411974847737,0.006227167463981557,8.11
0.016138722280605946,0.06876255388041642,9.923983347122677,0.003266601890401944,-0.005103011246297666,0.0057719808400413086,8.120000000000001
0.09245076263433982,0.02315525713768091,9.86582204769838,0.013616461097387485,0.009504373218774521,0.0041522283114130264,8.13
-0.09366324427322004,-0.03982563726766321,9.758344288920433,-0.01514048162581712,-0.002560400385420196,-0.010278158550221196,8.14
0.13493814715907393,0.018951168012596692,9.70552300144511,-0.007433118203810989,-0.005746917144449538,-0.005218967606862142,8.15
-0.038240370186544,0.0435804237214546,9.73493148800914,0.01646064980173437,-0.0023665530160237734,0.01748501902947929,8.16
-0.052697215759988925,0.07200632538095364,9.776232812083714,-0.012351180128336733,-0.015385702408688685,0.010040196339502176,8.17
0.09641219861541366,-0.1926405106639122,9.820681784117514,0.0260752451333246,-2.9005649183806918e-05,-0.004890933602772376,8.18
-0.07731937504151908,-0.07690667103932988,9.803303549618258,0.004178184132176163,0.02156684345718891,-0.007214885883945134,8.19
-0.024847267622600373,-0.09629724846917566,9.877588812780202,-0.011252281453528076,-0.002300663414630837,0.012238175021573022,8.2
0.010655198463701606,-0.010187717746645678,9.717131961516168,-0.0011895147819653363,0.003137304760683517,-0.005311470446112372,8.21
-0.1453663372985063,0.05153157801777767,9.911259516104076,0.01200623858623852,0.003463145062006605,-0.011339576835804763,8.22
0.06854714121345706,0.012925684579241424,9.947492078043972,-0.0015566250702753477,0.0027780645009753634,0.0065706486945048635,8.23
-0.07721448191745382,0.14553026055565002,9.794118012102295,0.006240464884290776,0.01022983806826535,0.00230616445078798,8.24
-0.03772565876674818,0.0390533351112793,9.650749250566513,0.013489860478382581,0.0026433730610074934,-0.006974441398730319,8.25
-0.20401308739177312,-0.06530906226424334,9.682635321215034,0.018658604918567183,0.00997843110278562,-0.010655862110855983,8.26
-0.11283854031675365,0.04448788728749853,9.745834349407293,0.00855599241239426,0.0027304233027451484,-0.00039739092569194065,8.27
-0.026022917507433165,0.15189209804567455,9.91364171793166,-0.008219717944976796,-0.010023078606007152,0.0016755391070679704,8.28
-0.06812886019807057,-0.05213141240285995,9.875123764631683,0.005417752926205566,0.005658400072641061,-0.0035961939360881034,8.290000000000001
-0.05461680564437245,-0.05601756321358118,9.926716557730561,0.002691763420096421,-0.0017206866968827001,0.005634341945951434,8.3
-0.12024534668558547,0.052146534540357725,9.707147720643926,0.00015044048635919893,-0.0011702434412099506,-0.005692492171600636,8.31
0.1744463242179538,0.08806644590657466,9.89474559930041,-0.016331121269338167,-0.019160076630987618,0.0014572994144586176,8.32
-0.033402610969589276,0.11038053666189823,9.88220132267911,-0.014678670633792884,-0.008072401834647821,0.0013588106860381794,8.33
-0.033410476535799045,0.07462406402906847,9.94462662048703,-7.434410555854824e-05,0.0028787672669828026,-0.005427890144083443,8.34
0.13780966614246679,0.08098697928418934,9.825219622523562,-0.012590052592401575,0.005648254776627748,-0.007849208946539087,8.35
0.0009809038482588765,-0.2172573099695328,9.765344029647142,-0.014888638842273061,-0.006302467710642315,0.0009416842598204424,8.36
-0.053603153694712816,-0.013141133859827249,9.839457101007195,0.01761958231817299,0.009660058430293016,0.012566974595731138,8.370000000000001
-0.05122985508878525,0.13696528910749395,9.740532190731944,0.0022074964349699517,0.0032573650626024414,-0.01763874673915064,8.38
-0.021164591035783237,-0.06331520392057523,9.8609274075551,0.010138033233718376,-0.0008394467032905499,0.014396404408148645,8.39
0.20563308434248906,-0.05638879060696576,9.692776577409315,-0.005950515589989411,-0.009303521766314982,-0.0031953069046363586,8.4
-0.04017737701606095,0.2690798506448292,9.767560793312287,0.01523461990997272,0.0052763814773807835,-0.003021510324392014,8.41
0.1602789907362667,0.2689918154123112,9.593563596686554,0.010351693621797177,0.004211686356138255,0.0013457023183418477,8.42
0.10905809297528775,0.03252704706565236,9.913740019755886,-0.017061787100006578,0.018574623909158396,-0.0032211586515390046,8.43
0.02275382929235026,-0.028266139033227822,9.90608099646867,-0.012047660910167731,0.004168963778786187,0.012571954716774,8.44
0.10082503634924589,-0.14880636991610277,9.923410846219236,-0.005167031174907053,-0.019604270302252435,-0.010773791861974327,8.45
0.1557174842517037,0.00748917938321279,9.780078853222271,0.012291460631614333,0.009994597310176257,0.0075629990275635295,8.46
0.11504897656428295,-0.07112074567264969,9.642666659795816,-0.005783860604023102,-0.0025204849158207364,-0.002646711294998347,8.47
-0.04708329020813083,0.012105761336644802,9.93956300644856,-0.022555917024422244,0.001137261600773004,0.0004256915626298513,8.48
0.01154567971868763,0.16980373350328629,9.802828729416081,0.013241421938168452,-0.00574822552388801,0.001515248323849124,8.49
0.06661629622847529,0.11237845802364475,9.672940950904769,-0.009070048221337817,-0.0007347290835261922,-0.00617667606007895,8.5
-0.03242934588732844,-0.08183738467959185,9.80970452182877,-0.00940793523409287,-0.0007760590882834207,-0.006795621134482406,8.51
-0.013046905263489112,0.02097255833976238,9.615854011635482,0.01413025977499631,-0.006408959783280259,0.009386244966404975,8.52
-0.057508425869323844,-0.07201965396515388,9.945778020144234,-0.0015577883145058908,-0.02596097564337071,0.008336001765136873,8.53
-0.12397384001449462,0.10425146607092667,9.841820334216079,0.007240351243992242,0.0005990454347811305,0.011632394175039898,8.540000000000001
-0.06459707456073369,0.03887809192613597,9.793292469297862,0.013606388548611334,-0.013558284995691526,0.014011292580735588,8.55
-0.01580922312810806,0.040417497413459805,9.850905443617483,-0.006666843616886773,0.007598176413414576,0.0008388952033701229,8.56
-0.031405573957475605,0.045755198729370804,9.84910343002035,-0.008946880943892293,-0.003745501545086948,-0.0032717395457278835,8.57
0.04644182285640616,-0.009377945156264486,9.663584644240204,-0.008423754915756239,0.01425297235314565,-0.00710928672326775,8.58
-0.10200256464077524,0.1146479504012046,9.71723696350444,0.009884554451297638,-0.015652181753292235,0.010809744412488649,8.59
-0.08747353819441217,-0.057589714260710884,9.83945870497489,0.006088642072445733,-0.0016790802805873404,-0.00370090183022711,8.6
0.1265876955291062,0.0917331117732341,9.937402182789171,0.009745855317244733,-0.00590378927821089,-0.004555730716619272,8.61
-0.02984799988899521,0.040441574983793846,9.812586326360318,0.008488882458479072,-0.008748958700273549,0.00016695946233450575,8.620000000000001
-0.018192982563757534,0.1743117791999936,9.727105800894991,-0.004886529893252817,-0.006480307352049151,-0.006555336175955821,8.63
0.0968411377831168,0.10398569079594454,9.936258194784235,0.0032690225562888265,-0.008680596456681226,-0.0072292512168851695,8.64
-0.08858991812287063,0.07272228806044068,9.613430040043848,-0.0021142382585161144,0.00018370246543162846,0.012554116319806512,8.65
-0.13350050884093176,0.10442532309849235,9.867927618775628,-0.007818795917889306,0.00652626799687081,-0.014402006823772039,8.66
-0.11992632919804509,0.1359619794890041,9.888127591567347,-0.0001826582130543192,0.0037533875751888384,0.009650097683371653,8.67
-0.09967698551969824,-0.07830338574828095,9.781802414080454,-0.011456935129606074,-0.025926228736779803,0.00745577804995649,8.68
0.15384679293911113,-0.27412027335233086,9.717837780964098,-0.008058861945504788,-0.01060903355056614,-0.004128589917293838,8.69
0.1102210304645708,0.15781976512928572,9.722239343588097,0.002194485963219347,0.0015493919201138545,-0.0004024874240982258,8.700000000000001
-0.13256157902859242,0.041314997150077915,9.82628554771388,0.01828248373989831,-0.008716362212846206,-0.01180675695682929,8.71
0.06510658065159065,-0.07118634733540113,10.006502531341226,0.0028897430254692723,0.0037291587189127937,-0.0023296181187033864,8.72
0.1681657872033918,-0.00934376359656105,9.749387213686354,-0.014147922147758793,-0.00398675872878828,-0.014219856338281925,8.73
-0.09686077753772583,0.18752929839587912,9.781602597522223,0.00010639237043566258,0.011952094439987626,-0.023440856676284653,8.74
-0.042153319134878645,-0.033911000917707976,9.905786297508888,-0.006862986120259066,0.008152952603015696,0.00386961836481707,8.75
-0.06636279938150591,-0.21096479229078458,9.892293639824985,-0.009814273083303826,-0.013913201825355707,0.013324287734320171,8.76
-0.08888586966839684,-0.1831046893185153,9.772902444606185,-0.010361337539239757,-0.011051604559317427,0.007802794460195988,8.77
-0.04179216497932036,-0.004735019014445183,9.635911991492685,-0.006140223759027304,0.005232431194671628,0.015087056705028872,8.78
0.10638506180825807,0.04043616581579917,9.928371759547673,-0.008041439530965642,0.00701978469834947,0.005981039127229982,8.790000000000001
0.012300927528712221,-0.1667261362386577,9.633129096782035,0.0011619992002481084,0.0043810237886184825,0.0036045604019362097,8.8
0.07441481389296661,0.04619136653500828,9.857878069521009,0.010615918457753067,0.011576192549088923,-0.011671549595309647,8.81
0.01096776029075272,-0.0794886334932571,9.762941021174322,0.0038733243907484185,0.0026532821000952835,0.004627174921762978,8.82
-0.004003708187059648,-0.1654402254150699,9.867160664407022,-0.010324555080041136,-0.007379205098764033,0.00480544350766892,8.83
0.028430446519067454,0.003603704320103571,9.873444998470665,0.001130509920007301,-0.002365947414608006,0.006033187291365839,8.84
-0.014665312994605398,-0.1947292537162419,9.82604563874721,0.00871228524662616,0.017569003963480996,0.003713281831035689,8.85
0.1831897818586351,0.0715398438422682,9.82490278296374,-0.0015801752110690965,-0.006021860804138062,0.003727793386474444,8.86
0.15766140125804673,-0.047655013245210265,9.848958107607183,-0.0017079761970082094,0.010314590905332112,0.011014192498046025,8.870000000000001
0.027864909671805722,0.11280267694855123,9.64253929372753,0.000891587333677797,0.01505390600861397,-0.011922373905312672,8.88
-0.029806741635621383,0.04961167251135265,9.829775793013496,0.004654957246915644,-0.008655248854967903,-0.003522216501375064,8.89
-0.01543465154991241,-0.012608310325897907,9.802955124473526,0.017190224122306624,-0.003018196067101801,-0.007265016601737073,8.9
0.02200108152716985,-0.07354836544901774,9.722167746431928,0.010280032233508232,-0.0053060311086012635,-0.007632674402241906,8.91
-0.1816622369662255,-0.0636323220386884,9.915363844224336,0.0006870070068944408,0.003301716950509992,-0.015390737293344985,8.92
0.15094918833453558,-0.060769513496871444,9.71341621595126,-0.013296356024998181,0.006607408215609832,0.005034311492384127,8.93
0.0763418340618004,0.0038781231615496307,9.863343511482858,-0.0019295087467683708,0.0031740698055284424,-0.007226979731407909,8.94
0.15872947966295167,0.06393444417719618,9.8022109024928,0.003026889148577688,-0.012711126940177647,0.01059885182508476,8.950000000000001
-0.039124158815627606,0.05737715256429912,9.721079366369088,-0.006014164749399888,-0.003687501633153483,0.002548430088374797,8.96
0.018814276253043712,0.07564069921475984,9.67155467637776,-0.012290186957480216,0.0027185817842790903,0.007170193317177403,8.97
-0.010916678782794951,0.146110104213934,9.62017315297949,0.026952316459245375,-0.001603528025648047,0.014475185330620732,8.98
-0.044918259152043206,-0.009029486675959163,9.780564830914976,0.008538935136923357,0.012269365043420584,-0.0035550819925080496,8.99
-0.07828493770472042,-0.0038820076362137412,9.951653616072994,0.01297924528950987,0.009642151629525104,0.011680754115197041,9.0
0.14197316993175632,0.0427424451886068,9.929075339125903,0.0043253499443394105,-0.033766156535755786,0.0013224637954191067,9.01
0.11766189743483013,0.19974754066118722,9.742487822172533,-0.009601728896805373,0.0029582797442603893,0.0007222457608191002,9.02
-0.0917108688554835,0.07255759386535814,9.651306691147129,0.005563012608295582,0.001515690334567804,-0.002417896466447922,9.03
0.028395099302388857,-0.15705516026277166,9.82613227981243,0.005134762831691273,0.010955446141590249,0.0022675589843605395,9.040000000000001
0.029371838468737768,-0.05578850724484083,9.828050385576157,0.012134767352710461,-0.010122537414811008,-0.007094255634174177,9.05
0.15692834885586335,-0.07029352260914017,9.686691661065428,0.0015924927499933678,-0.001092024628946277,-0.0023869911475594657,9.06
0.04358294522622,0.016670422855799834,9.869069072888172,-0.00394855898487384,0.017097808852937525,-0.0005708894412303415,9.07
0.01996413804889654,0.061127366741603684,9.847020650278397,-0.0015941053042695264,0.012769612378199123,-0.0006270605744878697,9.08
0.08250605818488718,0.036771998857875424,9.838575061398103,-0.005190994340086032,-0.001967277795690535,-0.002414138862467696,9.09
-0.11247200145262393,0.0922119867760609,9.707925935843246,-0.012470103876613957,0.00885409747809143,-0.007839079938658436,9.1
0.01118372432902929,0.006603699069856109,9.819484665315088,0.0017861136084531362,-0.0009105419998529347,0.008970205637296709,9.11
-0.07949369598837702,0.17583195671020777,9.778612114220005,0.008066273529801273,0.02098827327771957,0.004239637605975475,9.120000000000001
0.21184520982071453,0.00974157409388352,9.991043050960583,-0.0008370273899960718,-0.0032739563929353684,-0.0006064369624108229,9.13
-0.038982524914574046,-0.004154128021323743,9.890133672436788,-0.014344323012484115,0.000980553509002161,0.006841257194662013,9.14
0.008695473804150483,0.01825071183421087,9.81467602963741,0.0036047815528832895,-0.013168077436010396,0.009432403031081128,9.15
0.01250542528622268,-0.041131222060689254,9.745004804490689,-0.019721282876391983,-0.014606527292979204,0.02400975605343946,9.16
