ax,ay,az,gx,gy,gz,timestamp
-0.12079846796757177,0.0288425704971587,9.885483321608318,-0.010625355925888083,0.00754558421080356,-0.002846868914026311,0.0
-0.0436471844091265,-0.08543851958365281,9.817718522711148,0.012912048838254227,-0.010750551467833477,-0.0018464282743785804,0.01
0.026490172510002602,-0.11278339467316903,9.849080910923144,-0.0017342350690954524,0.007631859753815931,0.014627560495879773,0.02
0.04665248482610173,0.23621025941227694,9.69603245414478,-0.009098018390980712,0.016647298869509258,0.012666341370861825,0.03
-0.06172855858391471,-0.06567583409934155,9.870074517961893,0.009475312094009614,-0.010049137473537337,-0.004866942655321552,0.04
0.0687175974570332,0.0022008984940012698,9.940597024566054,0.006958532009016853,-0.01703586462324378,-0.0030771445477162586,0.05
0.004923835264179392,-0.011113661246649953,10.029621641488813,0.0035665092744986094,-0.014825062228305699,-0.012100026945461338,0.06
-0.18015862426196644,-0.06253054481597997,9.801255423530671,0.010611034187780605,-0.0009753405635541886,-0.0034096532773960353,0.07
0.10925440775794713,-0.09405994511280563,9.88371941799643,0.009909181672736352,0.003513166578231618,0.005424443575519225,0.08
0.03393189937327065,0.09580902789882056,9.767597628493895,0.007393324176422205,0.010218536973683143,0.005573656944531978,0.09
-0.12004291611116343,-0.040613224390909614,9.713058492935275,0.011231342729425942,-0.009734303350100617,0.015930457057303952,0.1
-0.023292225893925295,-0.053334175664570396,9.996318475750542,-0.0027255323782177355,-0.0025709389351244037,0.015962586539481044,0.11
0.04847555699781731,-0.04558758451665951,9.832211505240691,-0.007353401733720798,-0.0161632171654974,-0.00691994310753076,0.12
-0.007856864580248193,-0.052193801067631544,9.765201985136605,-0.005905612779679045,-0.0034103412218785068,0.005328421271435995,0.13
-0.21318662482836714,-0.04611995117113278,10.004228137663947,0.005696219242611081,-0.002064736459641849,0.0003756374211242182,0.14
0.1085192746129631,-0.025061894694814554,9.919327596199798,-0.006089137660815314,0.006504822633024023,-0.013112843081274037,0.15
0.05661921852279309,0.06652956085286064,9.792471509069015,-0.007553062688591144,0.009800024529996924,0.0011281216499013107,0.16
0.07013137055772879,0.1385186023009103,9.884591965588704,0.003781687710302531,-0.005263291487935909,-0.00891269508466244,0.17
-0.10156658886485509,0.05246081527061711,9.746989582064879,-0.0023260027635150465,-0.014447003428444688,-0.006497125736007209,0.18
-0.008695158078026668,0.029805342683331393,9.844450452668783,0.00504125431887282,-0.008305349631330918,-0.01529849585137503,0.19
-0.12975001041093115,0.004826127588239192,9.819276601239858,0.007022829230034211,-0.003635167493119702,-0.00682070429576877,0.2
-0.06040326881530827,-0.10505772674360146,10.091385575092476,-0.0020145724055754973,0.0052586148672405745,-0.003816892644325252,0.21
-0.191903343568271,-0.03008217682374318,9.745910045350392,-0.020923100052442762,8.989606148400621e-05,0.0020215128975026296,0.22
-0.06343216347277073,-0.1038302909404834,9.854768518816819,-0.004230676909918046,-0.007149930454085286,0.010877712053010483,0.23
0.014107349707750946,-0.016799885490946544,9.816933429287143,0.006041904127372753,0.0176550632978619,-0.02061251162909007,0.24
-0.04954110437587698,-0.15079270198376582,9.857478417613406,0.004269320297733149,0.012875109153359083,0.00989126355773503,0.25
-0.23070908249800617,-0.12220578177437623,9.739629909907222,0.003037570426358926,0.02470830730485149,0.007642386968014511,0.26
0.06012124988072292,0.013392068624352868,9.721760024645267,-0.00969828736988538,0.00034286600128935035,-0.0036174868178653423,0.27
-0.009224438575995813,-0.1356146929950942,9.633078482994012,-0.007908365461062265,0.011378239786659168,0.013589571278840026,0.28
-0.13977460179214005,-0.11178108548163315,9.836580304721187,-0.006074134509651005,-0.01419188774825609,-0.006834761759605298,0.29
0.0714968619422919,-0.10200724200272654,9.720834713294694,0.01046285119994861,-0.0012954844802381571,-0.005967702363794528,0.3
0.05139119289588545,0.09641429517728828,9.69458924881213,-0.005092956881066415,0.0011073164321422958,0.007333808578622465,0.31
-0.06310133878188201,0.04523851553320004,9.797966155614416,0.0006872725094195053,0.01592892963090122,-0.01910877890018252,0.32
0.14636390150195427,0.14037821181866048,9.901848767961777,0.008752210318630231,-0.013128092516609005,-0.008516780954619128,0.33
0.06609387834496004,0.0634940299488137,10.106266802072671,-0.015622426936767875,0.004946477591663972,0.004085302034398381,0.34
-0.1258933784681514,0.01207489139870063,9.830912693057563,-0.014918323991218972,-0.007278126906203936,-0.008099751513271058,0.35000000000000003
-0.011017674217521638,-0.019031186938598704,9.899752557103959,-0.00047244267965750703,-0.005065372231153727,-0.009243437515477484,0.36
-0.07983839853056778,0.09798415227266354,9.863371262116486,0.00047381868681927147,-0.001254092561572877,-0.0052694884344722595,0.37
-0.030103364795547583,-0.015930015637870523,9.834749091801243,-0.018590311632029434,0.01964513739274499,0.005895972186506487,0.38
-0.056095350269006077,0.15321685632356977,9.823528717002644,0.003808156972268517,0.0005486420633765162,0.0015411612302566478,0.39
-0.12923122992020858,0.2614175387321224,9.84693020263578,-0.00753110384339822,0.0019903439378201678,0.006127434599329809,0.4
0.026684718648130646,0.055055915239288704,9.686717206473777,-0.01871127302809642,0.0006646585171832377,-0.009726949169728428,0.41000000000000003
-0.09461709607150853,0.10361853488320766,9.973321667375666,0.005103198965623024,-0.011920120930690429,0.01995663402824132,0.42
0.03244671124417438,0.026120834682531763,9.918467226167225,-0.007081991845332687,-0.00020583105505835652,0.010284316470541966,0.43
-0.05888290852908919,-0.18328584971869166,9.688225281208371,0.011176645924529662,-0.0051857050187356195,0.008029720686078844,0.44
0.07528906826465184,0.023519804851491705,9.847219487536234,-0.008376410183265412,0.0032465771741019512,-0.014035934890768691,0.45
0.09760460637458467,-0.04879307518641278,9.809737638364222,-0.006036159046449997,0.004562046093143384,0.0056581725683493445,0.46
0.023764309784291903,-0.0502670372011608,9.530588434362258,-0.0026133065306687504,-0.003900503726127175,-0.0049951532646987755,0.47000000000000003
-0.020544144111303536,0.029570136429807464,9.952019228451206,-0.009052222745689464,0.01247277454056102,0.009096466290163713,0.48
-0.05111662907350622,0.22651204958753557,9.731248747104848,0.02748203732537915,0.011341248735277167,-0.021196861310281534,0.49
-0.04064704397005872,0.05441169561054374,9.87492509347976,0.008745312632547422,0.020883893879550447,-0.004812242740777331,0.5
0.08763731171831135,0.001077156693110567,9.802836613153925,-0.004905533437326366,0.0016024142241873598,-0.010623062438367439,0.51
0.1986032184605362,-0.0955279413950282,9.706107854507989,0.0022956742555871714,-0.02219139021732811,-0.004133372429279683,0.52
-0.10899892460482757,0.06951752857525352,9.741743244401682,0.010629154883879803,0.0019518322860213556,-0.00611471495403739,0.53
-0.045004471089021114,-0.03616857745285467,9.84107556602192,0.013972777439550355,-0.0012105471820816364,0.0016589885493971258,0.54
0.10378917804618111,-0.07401065203744006,9.698349709284088,-0.0019709934260054825,-0.004293403382738338,-0.010468389807162939,0.55
0.009691034713652217,0.07031746328639123,9.829979925238367,-0.008702476208707321,0.006599441703236344,-0.0124491227543802,0.56
0.1272678291990502,0.02550820191676332,9.67000295397528,-0.007916996074332536,-0.01049795558191047,0.01444412310355851,0.5700000000000001
-0.08485479811699174,0.0014483513990195605,9.712226267364263,-0.020120565323493173,0.0028879858434307393,-0.008093483437086534,0.58
0.002852262229955437,0.05416472095971092,9.938076531638224,-0.0034252288739457445,-0.0076975749968724244,0.013327135983289246,0.59
-0.010336172616542676,-0.009429643540789394,9.669691878050239,0.005564268349016698,-0.008686566935738983,-0.01804107462749557,0.6
-0.0297326639728801,-0.14037964273121925,9.962032902288387,-0.0010614834351819447,-0.0045923465434589885,-0.0036251983469971177,0.61
-0.047786292396707536,0.044163483814690256,9.906552481964676,0.005723043340064544,-1.5703868501485005e-06,0.007610964782660754,0.62
0.0028682933839228823,0.06079709547305423,9.838342864593946,-0.007723363039466278,0.006963709048806867,-0.0019510239998725423,0.63
0.19640576808682803,-0.03151287613166121,9.764752180554892,0.00015073301471811871,-0.008568932410584141,0.01911919093982332,0.64
-0.09041286930117065,0.18323234961460305,9.927546389382796,-0.0050025079174239985,0.009129294127780928,-0.003657378095002982,0.65
-0.12484367433164048,-0.036211270337586,9.709477703117468,0.005811078763084387,0.006171342866282693,-0.004932416652800183,0.66
0.06284444275318075,-0.16763636360213335,9.809354226450175,0.0012465308856351967,0.0037894902158651825,-0.0025621009082746893,0.67
0.14899988676654416,0.06097517016839807,9.835391799097948,-0.003887518530166181,0.00046242947668725443,0.0027640693867651877,0.68
0.004334353787541439,0.07269588537100427,9.804711791346598,0.0017803901789489188,-0.004551913811547053,-0.003985696501145362,0.6900000000000001
-0.004264754639619164,0.007733047108292106,9.78245933918525,0.013966957580925034,-0.003797396834302458,0.011129031290855986,0.7000000000000001
-0.15209116789189164,-0.0672549562328185,9.762362261317337,5.8893660453293055e-05,-0.0065319213842502935,0.007340201108663666,0.71
0.078189951954587,-0.018895912767528514,9.979541129695278,-0.011859694076206889,-0.002283258893452866,0.003823274379865627,0.72
-0.16348055744754128,0.09028070073255764,9.991064648956913,-0.006614388456398519,0.008440048063195649,0.00573460831311535,0.73
0.1504054862828069,-0.041611312991334956,9.997644196810159,0.009378478331739753,-0.0017139861143909158,-0.012240955715769499,0.74
-0.190585063685819,-0.08095054541174129,9.613958008424259,0.02949906531176218,0.005021958379516559,-0.013198442054607554,0.75
0.03259472888212598,-0.02084724251847971,9.71234867755168,0.0014621052076639598,0.0035716646015663046,-0.012915336982664982,0.76
0.04703142274951031,0.07910066344399946,9.795456987889628,0.023765038262374156,-0.019202016869942256,0.00946588935637486,0.77
0.1433156843294598,-0.02729425301141505,9.822114137811424,-0.011416817475591536,0.010928869219875572,-0.008131289902909912,0.78
-0.19167508329563188,0.1676053111369358,9.711106127176443,-0.007000346720805939,-0.004439370665747107,0.004594687088293612,0.79
0.10674296220092855,-0.1622274254527493,9.827811814336547,0.006101547027935014,0.0036152408129830793,-0.007179906674050483,0.8
0.07844936605155364,-0.1376369106234314,9.693042813689292,-0.01836325746789238,-0.012810668696354362,-0.010677143772178321,0.81
-0.022241466690923792,0.1923454335089746,9.860118606273778,-0.015557356764284222,0.008994569562424351,0.007410379030515982,0.8200000000000001
0.16655411923809538,-0.016194908731649114,9.902815113680752,-0.019019557721700664,0.008068993136254747,-0.001593322632704255,0.8300000000000001
-0.0795660026945664,0.10292337593833115,9.850121432346633,-0.017567490361992795,0.010494418493947937,-0.007911515581417597,0.84
0.08265440008346882,0.10711015631849466,9.803624152836875,-0.013045642009272893,-0.0032215598690957543,-0.005260267523369813,0.85
0.002706318511064216,-0.07707336540114743,9.7575319538689,0.01407364625671383,-0.010414391319407372,0.0033916134744062425,0.86
0.10391878066960261,-0.09903955289027411,9.704729939603476,-0.021790270266445134,0.006183003025740695,0.0003885334585741409,0.87
0.09599609082521735,-0.003474095899416651,9.895099494295268,-0.0054565003361229944,-0.003225197050105445,-0.0014480192723315664,0.88
0.0406498952627847,-0.05090270297842989,9.700326665481779,-0.004871453716735259,-0.0035763901701606005,0.00903807332696697,0.89
0.0780030847780254,-0.0038043278804259723,9.688143824688892,-0.014228750465546162,0.0011711486155723458,-0.003487671899381816,0.9
0.11157279628255215,0.04219783447572857,9.630697686540653,0.005967622908290709,-0.0023616780657183863,0.00016186002714594258,0.91
-0.0012606677682701262,-0.10437578539367127,9.755514871406143,0.0059381192478127325,0.002721352897862348,-0.0037969061466403622,0.92
-0.03574852056604167,-0.08250974612862809,9.741702505018159,0.00044616244658023704,0.0003248324660731855,0.0018352074794629467,0.93
-0.08206758535325726,-0.12106066584053142,9.834118438512322,-0.0011853390119092486,-0.011559552141491642,0.003577526625893768,0.9400000000000001
-0.16627638777320208,-0.09376863194665591,9.841260562226399,-0.0004913417752383347,0.017193739918999876,0.0031685210293739318,0.9500000000000001
-0.1299006040598926,-0.12966742607862558,9.71199603702932,-0.00013005539856601107,-0.001323166889807057,-0.0014813625085762711,0.96
0.10987858363853985,0.09752575761779096,9.80591053854456,0.003016221934479297,-0.0038008057160114285,-0.0038182277751939004,0.97
0.06541898273544594,0.021481420000025172,9.759015418688495,0.005071053233715609,-0.019125650997514117,0.0028421894912034514,0.98
-0.17857190045627028,0.11305092532182673,9.687140989138857,0.005783801831286282,-0.006070087521731084,-0.007060505835015872,0.99
-0.11867975530728739,-0.10454959067777699,9.766478503017861,0.027231425588490187,0.019013687615283888,0.00368574613476118,1.0
0.0436946126293576,0.00035906866330599155,9.832102969116907,-0.0025829440262877803,0.009962240617144824,0.007946049251349065,1.01
-0.1290613796377705,0.17660738926139138,9.972625194964364,-0.001182994412432681,-0.008503410190792947,-0.01853504529307834,1.02
0.13912956692902598,0.02977569472963004,9.731377511514571,0.007246892557221074,-0.005674622366659307,-0.01134879133512774,1.03
0.04976286628643059,-0.054336328739194,9.74817688636906,0.005649962821937606,0.0018429035939485866,-0.004763040440558678,1.04
-0.14484874589048222,-0.10421945681093073,9.957058118813375,-0.0008718331412239159,-0.006564133116388108,-0.0187573261229758,1.05
0.08969368626172602,-0.03518857478729029,9.743086639178843,-0.006951588944700449,-0.009059760313059204,0.0014439979334874976,1.06
0.04679110160839581,-0.07289939588662249,9.921656142531502,0.010992296781955868,0.005546862962264226,-0.014256363846525401,1.07
-0.07402468906915942,-0.04598184691704002,9.754262286718832,0.010199484625476771,0.009155275779789881,3.232854916991868e-05,1.08
-0.0877324043802602,0.06329227715996914,9.95892880276166,-0.00945540110873999,0.01508345147973041,-0.008781092997634157,1.09
0.06458191318045413,-0.06688393251387123,9.775983560744978,0.0048034167810533535,-0.001247865375638469,0.013087552489619285,1.1
-0.12187415785291622,0.191281910273607,9.698616804643677,0.002607728994063561,0.006713525020831268,-0.005430998509649764,1.11
-0.11875218686930844,0.06449626396914991,9.993101470253446,0.0044105265123688025,0.012300863454759468,0.002869398124613315,1.12
0.1607979849840262,0.006153713548450623,9.90807526134111,-0.007138885765554988,-0.0019785471471720924,0.0005715516474272713,1.1300000000000001
-0.022701920498602715,-0.09537554412350147,9.904429572771923,0.008425162489707563,-0.0019646762678569856,0.0032759840362560195,1.1400000000000001
-0.13930361539721092,0.10928040614492947,9.732041209699059,-0.002756854957490999,-0.0004218090684823749,0.008357550445959054,1.1500000000000001
0.02760075712568233,-0.18570279121427274,9.871220349431725,0.008393427753678321,-0.008454961409111183,-0.00010172656933038612,1.16
0.05665514734081391,0.05576781342152181,10.060613040689145,0.0028454609058872595,-0.008637757882023252,-0.0012007187095592255,1.17
-0.08112825054791983,-0.11347238756189447,9.751725832392653,0.0104804186330531,0.009577238511652916,0.011392793064079062,1.18
-0.041998403704442314,0.10626172233371885,9.797526650598366,0.008874388726399722,-0.01080502856602611,0.012092221428925973,1.19
-0.25541553065134476,-0.09502004926596531,9.847079649760392,0.02482252086758637,0.003956423530059141,0.008732896982221633,1.2
-0.01608228880792128,-0.049436486250617036,9.786558475402572,0.004964471685459144,-0.00414359034276683,-0.00864819278222207,1.21
-0.042746661042170425,-0.16360340915703908,9.589097832811143,0.003694618652681494,-0.011324174731692815,0.01260844659733217,1.22
-0.031489703349374294,0.043157733149077206,9.821105475614074,0.004203248639555073,-0.008533234454862086,-0.005343746819518312,1.23
-0.06907032923302851,0.052828572048980386,9.677259101926202,-0.004593435920584313,-0.012065647504277896,-0.016161523821716827,1.24
-0.010926804643312046,-0.07437875385242916,9.80055988692388,-0.0016807219863280388,-0.014620712156441099,0.00838954884352463,1.25
-0.11007415558163287,0.07699292391216123,9.899142733134813,-0.013270492791007893,-0.013721795417013816,-0.003698543673738313,1.26
-0.058098717971177584,-0.032086102202021065,9.910208201475024,0.022923953778462253,0.006570246983504649,0.008913456012249138,1.27
-0.05987836016729558,0.10182692031953973,9.909938853605562,0.002397655738180943,-0.021199517036297407,-0.012623700989019304,1.28
0.008403203191798101,-0.0542697577201291,9.794747073454127,0.018263466432943232,0.007306810155713846,3.713527635588051e-05,1.29
-0.0071782873919247515,0.07144709379798704,9.714977602587053,0.006001008649464574,0.0021637395733586,0.001154930302281924,1.3
0.04671068118010459,0.056183992958456455,9.638629034203456,-0.00945154573867338,0.0014745129239891362,-0.0019259679043211514,1.31
0.1244918803975636,-0.09777168935684963,10.005024154854716,-0.001765363084810544,-0.00542213681377128,-0.004327367261883335,1.32
-0.09832260407414838,-0.020142278827548137,9.882614233106022,0.019372686110286762,-0.007906106583888661,0.0017964784716223913,1.33
0.07433952540089095,-0.04175987544168519,9.891887947824092,0.016221246490009947,-0.007416234258483905,0.007954386918851341,1.34
0.03776820706443431,-0.04247879307566421,9.946561025638875,0.0022307031984403185,0.007018253443098782,0.007367211411001935,1.35
-0.29862965583937645,-0.008245746253089327,9.82383734946626,0.0009746129505462687,0.006320960936277811,-0.01198726169068798,1.36
0.05075237855241596,0.1838864598896506,9.813084635213768,0.0021277863474564417,-0.004871010039266788,0.00296340019936948,1.37
0.0957142285026506,0.08858457567146533,9.881851495555951,0.004124990829934202,-0.0008009526928177709,0.028460351436133506,1.3800000000000001
0.023696906213446358,-0.023477826647898995,9.881984109824794,-0.008632931208343282,0.00010996465586014451,0.0034987302966139385,1.3900000000000001
0.04119538845268002,0.21335789945029326,10.037959042824133,0.00397619669502022,-0.00038196326918225263,0.007424165823681801,1.4000000000000001
0.004520454809539716,-0.019489421566013503,9.824733599433628,-0.0001054680588984757,-0.010793787065175411,0.00428640201224402,1.41
-0.07454618686980642,-0.06231011180154927,9.798097535995359,-0.004227743884704276,0.008845385391123417,0.012836963084109755,1.42
0.08487474028953178,0.16726181513729593,9.863676326884024,0.012517106741351272,-0.012787482364515764,-0.010047479389787003,1.43
-0.0007837664985104351,0.011833001172348472,9.799845258328562,0.005689204147899669,-0.009837409300821899,-0.004035509954372436,1.44
-0.1354374290208916,0.048822317431149564,9.748806678992045,-0.005805814111071348,0.005691747642700496,-0.012551411089229048,1.45
0.0965202399581708,-0.11274378833385766,9.786511726602232,-9.351169576768485e-05,0.007255097064806874,0.0015369158354163292,1.46
-0.1254959477041521,-0.018858759849015458,9.896137842303817,-0.014879883980389561,-0.002445946777192323,0.0026176679610632886,1.47
0.14081297077168772,0.021582648429148112,9.994303914991754,0.006873297156107144,0.0017240744980744572,-0.009202804331045221,1.48
0.007219831749069311,0.016060685457383844,9.749323196773805,-0.00260338232691327,0.0009401944058839962,-0.0012429098543566516,1.49
0.0159550466265813,0.005624466587920893,9.736508451278308,-0.0016014575895239391,0.0031382632510280313,-0.016872279325609436,1.5
0.10873155187470838,0.06529583572091083,9.69632747851151,0.0179013304776842,-0.006854751994733554,0.006820689706920393,1.51
0.08598282025455851,-0.013583249448789164,9.865352172615024,0.0004853618600505084,-0.004661016848892472,-0.003836156225260265,1.52
0.01954140771836955,-0.161434409522298,9.696299124714356,-0.0006419696970222215,0.006637679018875783,0.003788423561469367,1.53
-0.06424237149832777,-0.17128684556215473,9.673572322407107,0.0021131221142737977,0.009348732603211049,-0.02312999017694208,1.54
-0.06258981550887224,0.07989935082022113,9.878134495795477,-0.0008634779214218255,-0.016098996235320868,-0.0055704452146519935,1.55
0.017405202979798855,0.10068976543657465,9.676874653753734,-0.004895556772761805,-0.01567230711464345,-0.01835865062701584,1.56
-0.08900754196541386,-0.0003688726041821663,9.548513293414642,-0.003869849018160777,-0.006561965911839621,-0.0022228824664251028,1.57
0.00907145946235314,-0.017176585109073043,9.899720809500954,-0.006713850420483577,0.0029531555755602907,-0.004981744733391378,1.58
0.04056892149062455,-0.03721929384015647,9.905772412641374,0.0006544790888690559,0.004007179449478598,-0.013352739419769484,1.59
-0.10615862743909021,0.078657775151924,9.859013181028462,-0.006263219966938222,0.0008700554956518573,-0.00018120356940315487,1.6
-0.0042056827138332595,0.04715744852621837,9.76595862194324,-0.01439668019872756,0.005017837273558924,0.0005416528273013347,1.61
-0.17039815494447977,0.0013917602651726943,9.711401250095417,0.010038079310063308,0.020095742078035758,0.014385700947342199,1.62
-0.21998388042222491,-0.15399266460440872,9.948269726990459,0.00015967013583335847,-0.0018793234546151006,-0.014034923440187301,1.6300000000000001
-0.07512952303250817,0.04578515555374159,9.910257466882275,-0.0015189594058527367,0.004686248711856336,-0.016264541460223478,1.6400000000000001
0.13044109083099378,0.013353460298745812,9.936005805993933,-0.007286418539504464,0.0021606388845621773,-0.0008746747223027221,1.6500000000000001
-0.14705771415097194,0.1957635937518281,9.8835504076309,-0.006539830820970316,-0.0036566998931252454,0.00887983922948184,1.6600000000000001
-0.006370608549464607,-0.03557313482192419,9.909841585909193,0.00497049924187619,-0.015343504717695407,-0.010581326019798044,1.67
-0.03923411647794155,-0.07666570261636174,9.902472336717915,0.004096762108160389,0.00998533193957908,0.01696172148387456,1.68
0.061786030467085265,-0.026252528943011357,9.948028205443213,0.012306019119622017,0.008549109707098988,0.003449018258253122,1.69
0.17074401910579856,-0.10055037092472907,9.901621139496273,-0.012563920531352451,-0.011312327547169813,9.926577153073907e-05,1.7
0.024263809435036466,0.08725956609554365,9.903352672708545,0.016174313387122906,0.02377331303070882,-0.003452818430258408,1.71
-0.04272608519310838,-0.08935816476141548,9.850985895799004,-0.0037061636257554515,0.016770556258743505,-0.008799211293237201,1.72
0.07133352955029237,0.15631683940900035,9.818033285093637,0.0032341579169551018,0.004033852956919016,0.005625242208265871,1.73
-0.1052627887103817,0.040943613437745725,9.619785670659397,-0.0023693409622584116,0.015033823444314599,-0.0020527330211619465,1.74
0.13596717864715702,-0.026575372674445666,9.868176150304917,0.0036572127858617697,0.013406382741659647,0.0012642900195885707,1.75
0.02899754595945794,-0.0571302683962569,9.6882379627573,0.00808411921098878,-0.009260831606361939,0.002909074807740872,1.76
0.06081475199954067,-0.0259346036791462,9.67360891992887,0.0015828441082102003,0.0006459206584508134,0.01794157571841703,1.77
0.19862283422038918,-0.05463844069914434,9.79282290756144,-0.014695878311277779,0.005015627215136864,-0.008948089164456665,1.78
0.009745294590781476,-0.006219608894644854,10.103847250064444,-0.01874240733319239,-0.00862386816284933,0.005111501408611795,1.79
-0.04489915661236068,-0.06457947422906209,9.865482761513515,0.0005643014316820929,0.012506997757851458,-0.0058481557414024376,1.8
-0.16541601702519826,-0.014534178172611862,9.758910667744837,0.003498524708434257,-0.0038492487709120516,-0.003458745380728554,1.81
0.16877198539210134,0.07431929878483433,9.685906182836039,-0.010392667392809392,-0.0004033415969648034,-0.011669050233687124,1.82
-0.17245611258068239,0.044782611097732995,9.663419347338989,0.005277494441911921,0.0055864821391203605,-0.0006097610384340356,1.83
-0.06929781982507313,0.11037872768767881,10.019273270499918,-0.002832055607763431,0.0023692657379248143,-0.010534851028461167,1.84
-0.023287324770937902,-0.0975207223222648,9.926193844870367,-0.005300134398494145,-0.007828768913923896,-0.0032863355797502504,1.85
0.0061673287341684965,0.11929489176721425,9.77676913841882,0.0043758876325712326,-0.006254265138533714,-0.0008471172248516992,1.86
0.1763599513633567,0.09332293258373071,9.858590709867775,0.004234736336863547,0.010842546423274002,-0.01627755855375959,1.87
0.08740305500824988,-0.14706720125519668,9.656325677696172,-0.010906530687158286,0.0007279421844721111,-0.0025895828524439453,1.8800000000000001
-0.023879417481326864,0.06710453469955324,9.765041004395156,0.0028770177966219073,-0.0039488752014969816,0.009288960105454443,1.8900000000000001
0.1001379444362667,0.0005215938173747154,9.92843313009884,0.0186232083641769,7.705400003700582e-05,-0.011643710722287946,1.9000000000000001
0.09326691822346939,-0.022941791013165062,9.64738491287638,-0.005420611753415306,0.003459897908266162,0.013489621310128494,1.9100000000000001
-0.01774558279164551,-0.07826889402652737,9.953325832283289,0.003851255017056639,0.013553728226433887,-0.006727038303826043,1.92
-0.07165963116106414,-0.027974692227844718,9.860466466709221,-0.0036600010864111764,0.004680592610254494,0.01466472932463083,1.93
-0.010816744657648286,-0.06076794613626918,9.768016567668152,0.016865107183611325,0.01947262524952397,-0.006111089032144315,1.94
0.03789965306304849,0.03555078920587448,9.857093582920141,0.008252548588006746,0.006818855218152767,-0.01586231097281282,1.95
0.15293704045822798,0.12854363509308636,9.9246438675797,0.006305178677465507,0.006266753322142951,0.007821356126608878,1.96
0.04679231054415936,-0.039809260800216684,9.891002661625038,0.014771945464117087,-0.0025842297793454063,-0.0028445162819562293,1.97
0.07211747413862171,0.07774803416271131,9.788844383900802,0.005067402883247251,-0.011268474455868814,-0.0011045070876644142,1.98
0.16457053219137002,-0.14268146863885425,9.841685757222187,0.00185413123073917,0.0016900565871173368,-0.01079893318477495,1.99
-0.07912256883149943,-0.00760295867681679,9.854956710982231,-0.004905307179860283,0.007028888968312156,-0.0011669851921727549,2.0
-0.06530583823831165,-0.0698470949051744,9.55717883315883,0.0077561922614874795,-0.017336143657053295,0.0025749936772719814,2.0100000000000002
-0.013925118524222624,0.10253750090136522,9.920187982803549,-0.001435678957060285,0.006015371579630938,0.01897818270185687,2.02
-0.1032516296989926,0.08066427690242277,9.808579885701551,0.007262447160402511,0.00294221546222372,0.014025516266807215,2.0300000000000002
0.18657255174988402,-0.04316928997214768,10.044186990614309,-0.009159915455288622,-0.0111792152509995,0.0057350836166846966,2.04
-0.04295049888710798,-0.12382088255364775,9.829078152197297,-0.003894172034663351,-0.005109734095828469,0.01124217161372178,2.05
0.08823244202847985,-0.025568322684644863,9.810439674116381,0.00089434006364248,-0.00019150303328203643,-0.010211278615896432,2.06
0.06409464662856906,-0.04612476144847339,9.78368271923839,-0.012913602165891673,-0.0060487628488359105,0.009112049906174237,2.07
-0.1244199707086505,-0.04994479239987056,9.930580647362271,-0.023402172534033348,0.0011187576445158898,0.002102821818203646,2.08
-0.06969419121507699,-0.18152528144758193,9.860606585927467,0.0041513003666862405,-0.009055665144744197,0.012168070643217031,2.09
0.07219137317634623,-0.11709935846417173,9.863520716511255,-0.0028915764779753254,0.008241703321951722,-0.006869803617982129,2.1
-0.016895937235753864,-0.2141212285741236,9.872759783367623,-0.010411892967877028,-0.01135379599822737,0.002952055463058803,2.11
-0.08472941481043605,-0.18745229186810258,9.801854672239688,-0.002679901790587508,-0.007491477230555274,-0.002025584668431693,2.12
-0.04642492606167499,0.06327659991639895,9.775320058161784,0.00010353534925876528,0.005552182911856998,0.002300882045805624,2.13
0.01796191539210207,-0.05038179741795695,9.906817767089734,-0.010864237543027162,0.0046169385401545705,-0.0030034028471591836,2.14
0.13813859296605138,-0.04017079616192468,9.973535146806482,0.015804976026264298,0.016068819276009335,0.0007872745913603107,2.15
0.05150409449379048,0.0143691614807438,9.788374710736619,0.0043680944516516,-0.0035206332270162413,-0.010227921814917787,2.16
-0.01277534602508999,-0.05330899167573692,9.667553568463298,0.008226460528876009,-0.003161075662392354,-0.004346499978909626,2.17
0.12863300099210043,0.042693244097652405,9.838402028008327,0.0018546732077439378,-0.011750947993071654,-0.0017273094726065572,2.18
0.030016200626229162,-0.10027470653882925,9.788080637371683,-0.006671702297194445,0.011271929693691878,-0.004838390005117011,2.19
-0.014717089205338511,0.0990467810322189,9.597918864085791,0.010750258258149245,-0.0006415601174550394,0.01272569110504221,2.2
0.13446570843148076,-0.09513702578258558,9.717532172270365,-0.0012449559425889174,-0.011745354769484137,0.0008894661246875775,2.21
-0.0020193951720114023,0.13657399144156898,9.83887481503768,-0.0150073886351987,-0.005262184633556238,0.0027854438797514955,2.22
0.04571491197950535,-0.11792880391530419,9.81510591363175,0.000766566825221029,0.01222612307167478,0.011269920558780068,2.23
0.03187978682075591,-0.1410631824757028,9.72780960782866,0.009222832058045083,0.01425523984828564,-0.007268845480056483,2.24
0.10961515680146974,0.19277021012651102,9.858809455517134,0.005521787003715027,0.004165822066934064,0.012742644473194656,2.25
-0.007800106418035031,-0.07020892609636006,9.71551153495022,-0.008053109492027127,0.002670919101035548,-0.014417844109168505,2.2600000000000002
-0.02377215800008214,-0.07986667294083458,9.739411021994208,0.0014062013847061998,0.001473274052336922,0.0004334928008665051,2.27
-0.08644397136079802,-0.20501595446981,9.67838247048075,-0.0005183215348560431,0.004856549009917587,0.004548454135388967,2.2800000000000002
-0.04549150963397199,-0.07924415335515879,9.857715041693824,0.0024130978721295616,0.02126034559120309,-0.0003977700351039112,2.29
0.07260621156998245,-0.054741394698419425,9.613573147768546,-0.022735144832778352,0.0002389644189857728,0.001131110119833169,2.3000000000000003
0.1654943417917557,-0.06564986187442326,9.813353049225016,0.005171499313070387,-0.007594617584690933,-0.001134877986041035,2.31
-0.03871138666740162,0.057862535410476236,9.74551334810554,0.0034956516570832093,0.002062187290207955,-0.013683431551688541,2.32
-0.02237583656776921,0.09835415135539644,9.94654003226964,0.005693092009512761,-0.007523398568458067,-0.0048123191242413705,2.33
-0.11798522739625535,0.0930818937318338,9.850018117590027,-0.0012729216561889866,0.0005906294428990483,0.010299409868807428,2.34
0.026893117988022533,0.03162936958161399,9.688367697172112,0.006542398445050888,0.0009264133282826495,-0.0070936507667169494,2.35
0.06360096225906701,0.014772175158959656,9.941700705848996,-0.01417835885720009,-0.013318258673783437,-0.0019401503707390886,2.36
-0.15325033206834968,0.25145849177042695,9.882795145861566,0.0014041736184807533,-0.011142868928820009,0.008189319633978308,2.37
0.10904437287161897,-0.17412965413734385,9.866819691498135,0.014689766679272472,-0.011519034587397342,0.00788206874254914,2.38
-0.0526792546602044,0.05955513860783704,9.809987384082769,-0.007051436600438015,-0.014239395606364223,-0.0004955621942518693,2.39
0.04632824950343044,0.08007096857083484,9.881509696088575,-0.0008762758856719376,0.005208885908571955,0.0029794768275045753,2.4
-0.0009659944957593923,-0.047438803755166785,9.978453254946883,0.01090200890848009,0.007895202266641551,-0.003391713718412425,2.41
-0.022715132784963836,0.06452816939487742,9.92656753208888,-0.001490263293235411,0.006335892223960762,0.012112239459439827,2.42
0.1576096927565487,0.09997009149196917,9.778448598914695,0.001370547515521873,-0.0034831771483892,-0.0004318198663545241,2.43
0.13000481928006138,0.15060263332400559,9.961799992929409,-0.00938712317713388,0.02858738328678294,-0.003744470392302839,2.44
0.10770932703387218,0.015250692839293926,9.832323856320656,-0.004134439425906543,0.010436896458686114,0.0014429130094565591,2.45
-0.022212899825593626,-0.13200300698594444,9.791417614762732,-8.53851200165271e-06,-0.011990400034367157,0.013808517019682585,2.46
-0.012995508994415476,-0.08617611069456871,9.887959290668489,-0.0033725684512371963,0.0015155486100024084,-0.02242197539299117,2.47
0.07411875536436283,0.1271080011998861,9.830375580128742,0.007026930587219944,0.001028807130888294,-0.012058939512888093,2.48
-0.29995158446957965,-0.16229732725380194,9.850753433140806,-0.00872688267294599,-0.00368416303463078,-0.018017684985243664,2.49
0.08417194686997054,0.02241480547553127,9.87633665362977,-0.008081948607269258,-0.00488414686200259,0.009180786275756872,2.5
0.09709422390590206,-0.13662257611734863,9.819930879696148,-0.005054455816975967,-0.01045281124361391,0.003842277526540691,2.5100000000000002
-0.08773496816269477,0.19069657376664084,9.989268921595981,-0.0035058359426779,0.005696058825299341,0.016255841378265214,2.52
-0.015872379507634062,-0.10497299154507991,10.017562104369915,-0.011791899067127487,0.008185101691395377,0.0069214400560522115,2.5300000000000002
-0.015811596986233762,0.009078921383187027,9.786715070352733,-0.01907856085305202,0.001805341068916834,0.01591431134379734,2.54
-0.07719819051027779,0.09769312245932744,9.885630950187773,-0.0061504334477893,0.006251445428301789,0.003972596276567163,2.5500000000000003
-0.16856176991651817,-0.07464473135663086,9.738292536693608,0.0090302417267992,-0.02344775896159301,0.0016322622637350195,2.56
-0.10674141789622633,-0.05175924270323661,9.837123411781928,-0.008453832104194557,0.018776499335530297,0.004480183369359304,2.57
-0.0817144140208187,-0.14718064379882564,9.923142444868443,0.016283930279172847,-0.024934016474435664,0.0040228151173405564,2.58
-0.048500655226856745,0.045426459407626824,9.658580525402368,0.01781712708262531,-0.0045925795132216955,-0.008518667096813566,2.59
-0.15912809805300349,0.028107477222400618,9.855342251307432,-0.015378535064729387,-0.0064129675631641085,0.00011794961812198959,2.6
0.14021976503101133,-0.09820333014402072,9.986717247804432,-0.013921783442422411,-0.0018349833246398834,0.024581412474618435,2.61
0.011301706574793364,-0.0262655321592983,9.760040230754846,-0.008643740119876708,0.0021201588482770597,-0.0027418880441482207,2.62
0.031610508804345794,-0.013040539942244564,9.864094126648455,0.004047347018198562,0.01445007294236927,-0.01574829465170825,2.63
0.09504614681128981,0.010988949090543501,9.981223188428771,0.0024455045912615786,0.002002382495995131,-0.003281287110814303,2.64
0.10743808987919726,-0.04344065888581563,9.66450849520767,0.02491109659137231,0.004675472673233798,-0.011176034438567241,2.65
-0.026371501405750144,0.02328255142744508,9.974590895502185,-0.009833207396291808,0.0007089971665641534,-0.0019733002637144737,2.66
-0.0761097040200659,-0.0057629489324717426,9.711913882219605,0.015899434865947363,-0.002705831300741009,-0.008328108807171927,2.67
0.03131311796784733,-0.0653650615482939,9.918580796484598,-0.0015413915279250728,-0.007718105362161816,0.0034824849659178814,2.68
0.053947138811281915,-0.24778581179329207,9.839406936659351,-0.004832069569004893,-0.01296674883375626,0.013720002467459688,2.69
-0.05979286596148266,0.045015237238897464,9.793191119851828,-0.0005543319790502684,0.003375085520299383,-0.012739204451159525,2.7
0.03421931914196507,0.01779099822185454,9.641215087713325,-0.0012784629572098023,-0.0028223583853049217,-0.005387170305841765,2.71
0.006479462309671212,0.08405733948430133,9.89391942617108,-0.006126451712040806,-0.010509495789583774,-0.00039518672885749276,2.72
-0.18526803759113958,0.03501356328521231,9.80451052073906,-0.027375423935979425,0.011973400608639476,-0.005038730600532504,2.73
-0.13098185148685218,-0.05706219210364516,9.844175044701203,-0.0034081702975209574,-0.00035483585120230115,-0.006724608052006802,2.74
-0.08304569579517282,-0.19622120534318377,9.823298188029836,-0.009376423025332372,-0.0114961395699783,0.008005246487350301,2.75
-0.12129885035465984,-0.03448453684785911,9.68021380853033,0.0022347322183366262,0.0067963621846089195,0.004296564622759632,2.7600000000000002
0.11811368172857269,0.04980397710418842,9.952390902085554,-0.0010174085900306212,0.016361950860795803,-0.008836350539003364,2.77
0.021663534361326574,-0.062237744647487964,9.771460984778978,0.004361906095083728,0.005761371908576863,-0.013562020543580114,2.7800000000000002
0.03356086625022034,-0.006798705600868717,9.798508268256208,0.003556737334721403,0.000610951334498531,-0.0032826740049775606,2.79
0.07056448090968294,0.17988244363975525,9.768302689193685,-0.01722864385123926,-0.023998284935604616,-0.004749769911045328,2.8000000000000003
-0.08027810224503201,-0.1356555036511444,9.763879589852692,0.0045293330826313444,0.008435476349537395,0.018784132646979684,2.81
-0.0742380265519448,0.20085852358788814,9.764102059818251,0.008769644428072874,-0.009031357246684522,0.0007333326487751131,2.82
-0.06634569862288923,-0.14395061292320127,9.82839366466213,-0.011789605242315848,0.006435840520061059,0.0032583439632201286,2.83
0.0700019547285132,-0.16521823094614618,9.90097055088433,0.021399616016383346,-0.008835248226691812,-0.010446812432835555,2.84
-0.11130346003560575,0.13714298725146848,9.726605682441019,-0.011195619885622198,0.014577026282419176,-0.00469413288682954,2.85
0.2856228616874651,-0.12755135134028517,9.838227668218915,0.004403424997589094,-0.013324679922913037,0.00314335236598209,2.86
0.0890474957841158,-0.08561865036131956,9.764237782288522,0.014646707728297171,0.00808423623124423,0.003304653489775721,2.87
0.18310509748000156,0.000397484017951964,9.590883094849602,0.011299015780782946,-0.0003293832051613644,0.013415320206276378,2.88
0.13336472880989728,0.10954929403979237,9.875725041532284,-0.004326244113752418,-0.011275027036483854,0.0023362321330839377,2.89
-0.03765502880247451,0.05369508949022969,9.743546831332932,0.0013301821984528601,0.007028325959918309,0.0025013149295618087,2.9
0.022234186370014442,0.1560269910364103,9.884727824814167,-0.0003205746575281021,0.0036160300696531865,-0.0017910749715337228,2.91
0.15725863429793985,0.19059873724452508,9.753023008887483,0.010391447177880217,0.020704748683323948,-0.009148384538255835,2.92
-0.18445494817998698,0.07366631719215659,9.711448689652862,0.003539602723642743,-0.01814354717418542,-0.005622564535051922,2.93
-0.011711094789319722,-0.2577643228665158,9.876152078237698,0.003041418356224436,0.006539942919768008,-0.005889927422980729,2.94
0.039836685154805714,-0.06392561576976019,10.021094570533787,0.0006589836701140188,0.002763938633146536,-0.00744278099064737,2.95
0.24160757967900662,-0.04380303969577716,9.65355057255062,0.017729548084984784,-0.01585909765183925,0.025545380679855845,2.96
-0.007275712147145472,-0.02001707382316067,9.959375680616883,-0.0019710663996353878,-0.010245207321821171,0.005401601871336948,2.97
-0.11178651561822027,-0.03660559117695624,9.899962980738508,-0.00251395744973739,0.006577424023942107,-0.008687033138380517,2.98
-0.02961818094694151,0.06120156163000197,9.717827922905716,0.009751672049220759,0.0017890222390909507,-0.009922418856634444,2.99
-0.024626607178172017,0.04273931686852255,9.778275816111467,-0.002781046295846576,-0.011205408078609628,-0.010396702608031501,3.0
0.08994356753543577,0.034060604686957666,9.986191558439502,-0.00024980857657693677,0.001881200049364559,-0.018461119401626692,3.0100000000000002
-0.06169118326659954,-0.10996473722138661,9.686544224380684,-0.009081936615872898,-0.00973167800025242,0.014703386669510066,3.02
-0.047473005717986266,-0.07012703829351569,9.784556963451166,0.006228179150400905,-0.012715683402670982,-0.003048116321545611,3.0300000000000002
-0.09612840177184186,-0.09740835926707411,9.621322012078055,-0.009376995709863185,-0.005831499009742679,-0.007587760229665766,3.04
-0.11828734299488519,-0.03592824166785721,9.92520401940535,0.008529740774092893,-0.0006501846425935573,-0.002010008581160694,3.0500000000000003
0.024501064414424456,0.00599730655016288,9.833058937706394,0.01895658079599249,0.008958000740458749,-0.014007568358650647,3.06
-0.055167235675665595,-0.043382852528495955,9.743491897762514,0.011310203447390137,0.004147201929991782,-0.0010132533155625476,3.0700000000000003
-0.021847784388721918,-0.13081489083042383,9.838114261089201,-0.007096671329639686,0.00900118286333723,-0.010116318411407515,3.08
0.07927270587548645,-0.06548291469914838,9.752263634434893,-0.00017779178160988923,-0.004888164662733131,-0.006435251854258824,3.09
0.08780706015454814,0.09000118685664282,9.87892675828331,-0.018204006043877587,0.0006656261581010286,0.017865512359731047,3.1
0.16349805227232053,0.05991823492774093,9.861826335123585,-0.008410154436997302,-0.0028762331841941297,-0.027115173995390488,3.11
-0.2283930064288231,0.0459128480728597,9.91229672661132,0.0089688917027188,-0.0052996708811799955,-0.010263222621512295,3.12
-0.08743631022982087,0.011909530409469795,9.983561178428669,0.002283652445279514,0.007375103337351084,-0.01137623387622808,3.13
-0.16069202100507843,0.07303510531763209,9.957131461910498,-0.016620737805368706,0.0026799355973118853,0.010357593255021587,3.14
-0.19093796564930818,-0.09240776992806915,9.945440163434755,0.00433328799219249,-0.010121897885872384,-0.01383454696211725,3.15
0.06161069030395203,-0.05807527747185173,9.919617619136952,0.011591895934429606,0.02298429911398771,0.009714648660173932,3.16
-0.029846540812988216,-0.23388002870967908,9.985943105497206,-0.016582084490375838,-0.006403041063748313,-0.007449801823561672,3.17
0.0733915564020554,0.006356086935385408,9.808340925854846,-0.013195935555258989,-0.022329242004501464,0.009068793175520324,3.18
-0.046564543692151676,-0.10377606908670552,9.92440824244565,0.005510224168471673,-0.005346026240112737,0.005536216430741889,3.19
0.06864246789804526,-0.08874443851172266,9.652581702169224,-0.007303545279500687,-0.0049173527612669425,0.009399232792602725,3.2
0.08991595749574316,-0.06391502360097398,9.81403867160403,0.004813017503690336,0.002780624477050675,0.02334884959118936,3.21
0.029547651731868914,0.008087805551094791,9.773796072266537,0.0024016964960923487,0.014769355999902587,0.00897002733985528,3.22
-0.01864539443440925,0.11258469310017796,9.760221913572247,-0.0043250462737290316,-0.01541616533169309,-0.003764554440484257,3.23
0.04780767737005687,0.04026098472871105,9.76587914992692,0.0024847785358031393,0.005368023261859152,-0.008524000375416495,3.24
-0.0172176594143479,0.13455440712891378,9.876164392624498,0.0006205970490523787,-0.001306258060642187,-0.0001680042005009034,3.25
-0.03424456868947797,0.12608948981489793,9.944888573978982,-0.0172075624006443,-0.01670752361907166,-0.005936733302317215,3.2600000000000002
0.12522019849447527,0.14827737610642747,9.531073607933298,-0.01888965756604291,0.0002536087089244863,0.007319653772507262,3.27
-0.30278092454402117,-0.09046566762617403,9.883052511445015,-0.01384579331895028,0.011996444836484262,0.007749194250428976,3.2800000000000002
-0.0764643832473878,0.009548504322449278,9.885242839633737,0.015867763669940915,0.0057570447831870285,0.008830582328558179,3.29
0.023267001883534363,0.03128856776679614,9.816238879970761,-0.0008224307146900383,-0.0050761914887916875,-0.0035403927063259117,3.3000000000000003
0.03811255395778571,0.08231803540050249,9.970676219430425,0.0035883781669673953,-0.004402190686754784,0.003831318303523343,3.31
0.18546485390560843,-0.07269752481498631,9.893473564573712,0.0016043063238858125,0.017907278333989085,0.009807298016927708,3.3200000000000003
-0.025662546338409323,-0.1318673664670593,9.833465444551054,0.0029133378553283756,-0.0010705007888715749,0.003353830664931845,3.33
-0.0620349562216389,0.001866863291396036,9.802611376423497,-0.01447979297094505,0.010204046366844582,0.02604585151537348,3.34
-0.006920232300474559,-0.029374696031555087,9.835549496707118,-0.007142015708832497,-0.009415776754448204,0.008584113793979224,3.35
0.16213930473075333,0.12291791621709613,9.791087802900513,0.01732512420779411,0.0015210695046796716,-0.0030015646251160544,3.36
0.07179944478999968,0.045752950564257294,9.770416075999465,-0.00036995946383503115,-0.014237952677350799,-0.00896228346687208,3.37
0.050218794410959555,-0.021144035567541325,9.90727994084995,0.0042470542722486924,0.0029328075868385772,0.0021915658540825485,3.38
0.16978301068957,0.016726771098143103,9.868217908794351,-0.009903146248324085,-0.02312778304505598,-0.0046677312589055815,3.39
0.131583667706204,0.12118378441037439,9.6500932534849,0.004089841174458138,0.022049524193502843,0.024401334413744938,3.4
0.1024262252843749,0.14176215452593285,9.609982282194926,0.015893883466256097,0.0008057377715284902,0.004383177199941507,3.41
-0.10967649082320162,0.1386419686725017,9.846975774197682,-0.0005730883637392642,0.009605403133824766,-0.00035339409858309724,3.42
-0.007384196131521664,0.009307099451347388,9.805607043059402,-0.004345465565376717,0.010516027043154389,-0.004567062961548928,3.43
0.058322608699801486,0.10926442202855109,9.827853278705268,0.006804413891720837,-0.00757646369865592,0.01815205236397111,3.44
0.08598283598569284,-0.005479108760187545,9.947185826136831,-0.0009272243108016831,0.00490383085718602,0.0006788170206258964,3.45
0.10631158794103793,0.12432419843601883,9.743423846088154,-0.0017036590375242328,0.0062718976287862395,0.005750963145582735,3.46
0.08631890366742945,-0.14687853357843858,9.89227249974393,0.0007314081157466384,0.00992514566349679,0.013893038183643304,3.47
0.12995673925472742,-0.1510233998664505,9.991722487467563,0.0024616832802720943,0.01598192209674419,-0.008282207480632311,3.48
-0.042919983684880376,0.1794780860362858,9.8386752344885,0.019263666043332774,0.006461141753920826,-0.01138856162422931,3.49
0.03038017655761499,-0.10043787842703861,9.878989056483718,-0.011672527281981478,-0.012126555387937162,0.012492451803731168,3.5
-0.08354144492033203,0.10538360361900308,9.814142084907871,-0.02308869395732954,0.0024348634578480366,0.005230621627956813,3.5100000000000002
-0.10476541087968008,0.08371085071861654,9.856462980279641,0.0001891423791536772,-0.005225895512807512,0.005873179192602602,3.52
-0.16211920801029556,0.062291319222193234,9.790341121045968,0.005723900806352021,-0.004104532953488156,0.008199040954752991,3.5300000000000002
0.16129783219213337,0.002687799423484636,9.792436805981422,0.003528284953759998,0.01461786048311979,-0.0017055456347380238,3.54
-0.1276375498597574,0.18398472706962665,9.79095675265369,-0.002945425822891641,-0.011577295403653556,-0.014144161497220555,3.5500000000000003
0.24673393166848334,-0.10567681444756805,9.87255847193985,0.006412263262711283,0.004642365805302021,0.003970186940766189,3.56
0.16970542238683045,-0.1087372393628387,9.663058579762074,0.013156648179564362,0.006626813485844953,-0.0050679023935733605,3.5700000000000003
-0.024917368114365575,0.09341869628277455,9.849388272735666,-0.002172694072682293,0.008672440299416183,-0.0022180767445095025,3.58
-0.01801079872378464,0.04940825594228443,9.739441401851158,-0.004676746171997382,0.0074650387429848275,0.021841668203352153,3.59
-0.04377847462997808,-0.015901884279100113,9.814086617532684,0.008595488848649998,0.0017630935300914157,0.006434836903392366,3.6
-0.025175076199830854,-0.028787079338227523,9.645955905131425,-0.00458323050402616,0.0007015874223873989,0.0053935378747781435,3.61
-0.023952029731927532,-0.036032645873715456,9.697047381823497,0.012916954395720588,0.003116957494058177,0.004140705061039666,3.62
-0.1982146148639244,-0.05112697399853579,9.781452061725599,0.002718061787402568,-0.011019464566276376,-0.00019499644136877905,3.63
0.13352745523311782,-0.00917848172455409,9.652150531323294,-0.040406606374770816,0.001791181280955144,0.009287271263668994,3.64
-0.07701072172585452,-0.004399385551131334,9.734782654256776,0.006512564915269147,0.014581549298637286,0.007761538738140993,3.65
0.10897031567062597,-0.15237030291928097,9.770263339382437,-0.0003502762535222868,0.010563759051439612,0.0026779159171318955,3.66
-0.03265739099742523,0.07331368970180839,9.76525858779641,0.002965993096761835,0.012209077448043273,-0.007152900238258438,3.67
-0.11890709025275986,-0.04976852865146921,9.994334953798614,0.006810298660271885,-0.00028805414451605493,0.0019941436434272593,3.68
-0.05647911033238878,0.08874478378079703,9.856944551977143,-0.004486505460685976,0.0115511033190951,-0.009611221067625478,3.69
0.07185981476889866,-0.009793852060955288,9.718660678514246,-0.009650980016460796,0.0016371591949479348,0.00793779400919868,3.7
0.13626847094138128,-0.1592181854924103,9.69918532390006,-0.003091805848527007,0.02097477297939254,-0.005138727008319115,3.71
0.0935313884550005,0.10847250654795676,9.553769346586435,0.001187502692164025,-0.00471164755412553,0.001421254973674258,3.72
-0.00907859049416305,-0.08884941289597584,9.923330160762822,-0.015377462226597907,-0.005142533126268679,-0.006553446910749531,3.73
-0.025462209584289127,0.18350195574234587,9.90404881626399,-0.00597509994639307,-0.009741580760902462,-0.01613429700448628,3.74
0.006402871264195982,0.007048329954743232,9.969719034301814,0.006380597599795119,0.007887108075035582,0.014274325795436834,3.75
-0.0032477936562586573,-0.21392880618988688,9.918621572715388,0.01672573429642057,-0.012140903415795037,-0.00013746407795631104,3.7600000000000002
-0.14326681040468295,0.22101227819522007,9.851838575774245,0.006089928840534517,0.009560511763452836,0.014638031698686244,3.77
-0.027255596955998725,0.08051161395836066,9.654783889993917,0.012591926378520033,0.016815272457866817,0.0063704947261825065,3.7800000000000002
0.11050613032046337,-0.005418187391116853,9.752761860496692,-0.02013966691804064,0.014712213901096581,-0.02320769055286858,3.79
0.026902037315624794,0.00280067799340625,9.548741526355387,-0.014935215547947852,-0.015160425619172984,0.011676809188549091,3.8000000000000003
0.21616082773425238,-0.042393328856150485,9.874109167134687,-0.000730042632372091,0.0011726896419424382,-0.004028187998987919,3.81
-0.028288923455956034,-0.1398978159065912,9.868882542013361,-0.008598063335071623,0.013140902770435468,-0.003911581980171272,3.8200000000000003
-0.12086125747980098,-0.08814926673629822,9.959376213919318,0.00720621534276344,-0.0005665623694223921,-0.011529373507260693,3.83
-0.12365009901477292,-0.1552347687044328,9.752818256421609,-0.005559879212876036,-0.008561956772546408,-0.014849557026105978,3.84
-0.14000920566066705,0.0364590756417055,9.792859210873853,0.014282118979540815,0.007849991514004305,0.012217886652746939,3.85
0.01591967619615532,0.08653548107234024,9.825432178742172,-0.008615813765890722,-0.006667386914850996,0.009664790334965099,3.86
-0.07394113855742176,0.0054327756341786375,9.85967025688057,-0.01981951107455424,-0.0027163607390903984,-0.012888787594944148,3.87
0.06572101358550157,-0.08689273951097383,9.857805281075251,-0.002258991572211461,-0.008207445317250935,-0.009718380473463904,3.88
-0.24747582483819489,0.03199951498225887,9.809873658020758,0.004281792638948892,-0.0032689975796845,0.006781123324383948,3.89
-0.07643025597766955,-0.12302963671783745,9.738246349891108,-0.014504984162227215,-0.022766720109964517,-0.0024923079922583684,3.9
-0.2597041299907987,-0.10859739399431685,9.85960223386608,-0.0020044973987222545,0.002207276911085186,0.007174242854326885,3.91
0.05408257807831038,-0.12950188969887425,9.645713583875239,-0.00036265834319501665,-0.0001469178569343877,0.018237478561455935,3.92
-0.10656724805529837,-0.0501785191849387,9.888089817267508,-0.007031176302838575,-0.009929590203481036,0.003170736239359972,3.93
0.026864794874504685,-0.036447438513957424,9.612220813368312,-0.013227078663766925,-0.0027700332166295523,0.003727389440705208,3.94
0.039603596722811246,0.2599998212572529,9.908768380808228,-0.005455147985344102,0.0020548254201587417,0.009299038122001516,3.95
-0.0444606794980822,-0.08661595483481334,9.808620423742578,0.00010860453194682881,0.018273681178704173,0.002668999903936468,3.96
0.003135642429797455,-0.059440402878734734,9.745096775594583,-0.01355833098796838,0.010929638495281564,-0.006925519339114238,3.97
0.10846204679865706,0.1255811586683175,9.659423793237108,0.006846251766283749,0.006457701926091852,-0.008127611593986285,3.98
-0.03589603326174647,-0.019734012102272505,9.762133655179198,-0.002219402827129414,-0.007359747970402901,0.023648293479385813,3.99
0.011533922953892412,0.08331421412904051,9.78946383344205,0.009804005632466393,-0.004556534669038114,-0.014334154208910209,4.0
-0.00948443026333229,-0.05896417652454197,9.829828032524805,0.00014698919108693408,0.013101198108836143,0.0046071487101097324,4.01
-0.07553717933987805,0.017459219416058106,9.841758706924166,-0.00010721042620100717,0.0074346829757926045,-0.01153569604143574,4.0200000000000005
0.14390498739846,-0.01917027666370596,9.889734885602273,-0.004472598355841236,-0.0069968869416839365,-0.020975582956106617,4.03
-0.017009743479353197,0.01661240596678735,9.758242172980967,-0.010619517345359375,0.006256611415135408,0.00803883226765109,4.04
-0.08595751568497695,-0.10444899270117228,9.776396485992223,0.004276379889213472,-0.011996830240695762,-0.010979602332507072,4.05
-0.08769930817338521,-0.012688413054661216,9.939290789294827,0.0005577866054606641,-0.020048959209732084,0.003725772567074203,4.0600000000000005
0.1253671640984556,-0.004040527231673684,9.799153506433894,-0.010228327566874642,0.005273585965642999,0.007233557652219653,4.07
0.14255866202988055,-0.16537556346816426,9.667942496327916,0.0022968091628014155,-0.019193946334696496,0.012973870966345318,4.08
-0.03138381619127598,0.1381930341289331,10.001992806456768,0.00843814678839461,-0.003246836055615618,-0.010021408598078102,4.09
-0.1340683921078148,0.07690430955914912,9.751586902621382,-0.006748149332944978,-0.00472418901890106,-0.004705627017840219,4.1
-0.07407836476799877,-0.0962270618958928,10.050687160748604,-0.005008795789024965,0.002128495124660683,-0.0009915869487963145,4.11
0.1407803505495337,-0.05353975291868457,9.744840295575573,-0.012864312033331715,0.005983147746876488,-0.007678366494249076,4.12
0.13551798061402004,-0.08874428522788963,9.793337865406565,0.0051180899104327085,-0.0027647331201160956,0.0024275606373367208,4.13
-0.08882294715872013,0.01933096724025403,9.829072674551837,-0.009902976896886623,-0.0018041553348638478,-0.0030548668674660745,4.14
-0.1666684335656653,-0.1732791694161192,9.87827348800888,-0.0204601806913223,0.016010861177712596,0.004969481048982394,4.15
-0.03346752150377018,-0.06439865641167074,9.838449995873763,0.003335694399979086,-0.023946026751937684,-0.002370100167972872,4.16
-0.0718863822258259,-0.08912702254033864,9.971895146294404,0.024578998092425572,0.0009243014683403863,-0.002462260535009104,4.17
0.13915216729005572,0.10540443758450094,9.769984892657519,-0.00938124723374019,0.006035746537986767,-0.024914796796890293,4.18
0.05004774810670342,0.04439353699802693,9.943262642336592,-0.012488872040362295,0.004129803180161538,-0.007461623418205078,4.19
-0.025422399475684195,-0.11836585013447815,9.843022674751316,-0.007404102014202349,0.01110535829760739,0.0005188001431742308,4.2
-0.15841155669933893,0.1874263981679514,9.613393711167996,0.0030135350091581407,-0.004348635687146394,-0.014706439783197559,4.21
-0.05033230109260585,0.23717902219218412,9.741420337620383,0.013330810961105857,0.002392460028618682,-0.013673308983948848,4.22
0.24386101264958526,-0.18087869370214024,9.710082819356701,-0.009696416241852128,0.00788604324582823,0.006829052768630233,4.23
0.08801471472696971,-0.1893154242673448,9.66666660455603,-0.006487253355015054,-0.0008275366694159866,-0.002078283593292179,4.24
0.03718980999337361,0.05644609441923864,9.730456176737189,0.0031052762387561383,-0.001024960985026589,-0.0053739964194373085,4.25
-0.13372935857178583,0.007725763367090012,9.93389797981088,-0.009233193006537733,0.005768013634879982,0.013029569806036409,4.26
-0.12202711324756613,0.14863035798959967,9.92628900350886,-0.0021210067651352836,0.005834163731838799,-0.00032598125333417805,4.2700000000000005
0.0068599828616410065,-0.01988223114073753,9.675458825052814,-0.0015079593735831572,0.008658649553903925,0.0109938592059816,4.28
-0.23025769412125371,0.14251162350806015,9.780314609507117,0.003142916023764402,-0.011668095072430433,0.006446411744168537,4.29
-0.005230136141519213,0.09925525437761283,9.77427316625484,-0.012779637665661705,-0.0173557100064125,-0.006260507356872142,4.3
-0.13159894811998823,0.037231548496862596,9.847562554368507,0.0021249313103930984,0.0033786734297711197,-0.007584702097126075,4.3100000000000005
-0.0734547071539531,-0.013875696869005092,9.95713088704549,-0.013080779198603232,-0.006616007431529214,0.002247243872045907,4.32
-0.06366481001455725,-0.05573281886573535,9.705305453827625,-0.007961911742576927,-0.00991495480303489,-0.0016970427749126566,4.33
-0.006343094086255082,0.0458351018154446,9.812491744597544,-0.013328006051948265,-0.010793934029488963,-0.006381480244501884,4.34
-0.19251311362566095,0.05735067168950453,9.902547131391378,-0.006559419215070655,0.003365557189581278,-0.003931650129877095,4.3500000000000005
-0.06618916850280374,0.08362881872833124,9.78551148120225,0.0025065594238418603,-0.0020533909941114785,0.008948918776968127,4.36
-0.05817909689930444,-0.06014632386952783,9.793406840499454,-0.002640407220577633,0.009152631430647576,-0.008180682036471732,4.37
0.02584761613088292,0.07773497888677472,9.960879695787572,0.014334329995722744,-0.0067952756588588745,-0.002884978361963824,4.38
0.16243223790381706,-0.054432819489662755,9.90975565465872,0.008093219480149712,0.0006139427490597339,-0.016178914163495272,4.39
-0.044566100238749795,-0.24270950590345094,9.906858041551386,0.007949226008836362,-0.0025760223771687557,-0.0023907853910971593,4.4
-0.0026295725036523834,0.045984164918480695,9.935160539627358,0.006216149627688366,-0.006300377288600155,0.007516226363323354,4.41
-0.028324427999892595,-0.09173045434888616,9.878675660043806,-0.008089829913972254,-0.010426205617267972,0.0010129843049416437,4.42
-0.1331424203523388,0.09497216492245031,9.836234668136818,0.009225550565378935,-0.010807012105587778,-0.007388611661217134,4.43
-0.10111757520091023,-0.11144448918132983,9.812998920506327,0.014591344424600748,0.030392238706921006,0.0010559546626731809,4.44
-0.07706470087654245,-0.0684731696784714,9.832574345461978,-0.022907698195951412,-0.0072897706665304585,-0.017480750243613574,4.45
-0.032286953774777465,0.02233543615025388,9.499290126562512,-0.008740429592504576,-0.004250679178715131,0.007510250111898622,4.46
0.0334129929805692,-0.031836744440729696,9.809677066917928,-0.020195986252028494,0.008983398895099245,-0.000784641784260483,4.47
-0.0002671194255864454,0.0408183981481482,9.867945100028322,0.005377376503603908,0.005253319026260302,0.0031236601100577115,4.48
0.17313336827537182,-0.21327001215071417,9.886141702715316,-0.01630495496462954,-0.012219128883742568,-0.005294708172648217,4.49
0.3230532015388177,-0.07147782092431565,9.84630568907712,-0.0009673409141808051,-0.006869397714451818,0.0009002596180830861,4.5
-0.15552198394875963,0.15682959347395198,9.920978743013178,-0.011952224152232509,-0.013127086572603839,-0.005432796453513422,4.51
0.04445039880524299,0.09711655226039739,9.792779565199183,-0.008256247602792312,-0.008899988574290578,0.0017125174571134153,4.5200000000000005
0.023899077562646618,0.07106001870326276,9.756819833246453,0.004345332385242097,0.015193724922935668,0.009730485036863908,4.53
0.04862921632009132,0.08693134080720744,9.77178200151102,-0.0196504205649152,0.01134039769736488,-0.004674588693153867,4.54
-0.005711688946819383,-0.03237638895188515,9.753552903945394,-0.018173000737080544,0.0018215575275099868,0.0040269896361462346,4.55
0.034961507274578495,0.03334494914852911,9.761604718376184,-0.002493411467256405,-0.020439455924793643,-0.006776907226742726,4.5600000000000005
0.23640018453117864,0.07394678757435547,9.810114278386914,-0.011445880808891138,0.007932603731152118,0.003668968337689168,4.57
-0.0022601920163472116,0.03458773515857286,9.92397455958411,-0.0009398248285413807,0.013313987348554428,-0.00652505762178472,4.58
-0.11251892421021958,-0.09287642627755122,9.56684530637299,0.009551367115603627,-0.0023490174277413993,-0.005456901770402799,4.59
0.010993183122555594,0.1347245167961787,9.893601449085697,-0.00545761398277138,0.004082686852884092,0.0039283129253323895,4.6000000000000005
-0.24261161355662939,-0.019499661187633372,9.895759525190414,-0.012817631882684389,-0.0012672071154604086,-0.004831713057529994,4.61
0.09247123539661839,0.01639290837079063,9.714798447248763,0.02403506977489942,0.004081082245581652,0.004026349479118342,4.62
0.037736065842918075,-0.15531240232165133,9.837716548374182,0.00579479394239394,0.007469916830076358,0.011179699212577037,4.63
-0.09420300106228212,-0.17095326884609882,9.863154639293558,0.004786097735621637,-0.000542925037674061,-0.0037882149932691885,4.64
-0.05005777057844732,0.0014869699026467613,9.745966961945298,-0.019882626029384114,-0.006643463383180219,-0.0136447943911559,4.65
-0.06809068012440347,0.05938867341320282,9.839133659776827,-0.01867512046983119,-0.00809065407964807,0.011090484680673788,4.66
0.21847032959955467,-0.03048412534211428,9.98043078100247,-0.0014209818129122887,-0.008962619472051956,0.006390460873753161,4.67
0.03451380760655562,-0.026308419841461563,9.956389110403586,-0.012802369004699894,-0.004942173926918782,0.013792989477330373,4.68
-0.07060814782429808,-0.17478679759403554,9.799917113667094,0.005748283287487701,0.0026401153538068395,-0.0015236836480765528,4.69
0.13759047322326878,0.013147387031057903,9.853976723377675,-0.0076315831556158864,-0.00016347619387324766,0.011851998115044622,4.7
0.040292688593971344,-0.17018540940026605,9.818037349619912,-0.009534769850225458,-0.002902704834756028,-0.002788473558243138,4.71
0.09632715412361446,0.0065588807310069976,9.823427136792885,-0.002591227249677867,0.009022785545567933,0.0017678110022961873,4.72
0.14944528117438946,-0.003953874100196538,9.82010699816725,-0.024364575669082577,-0.009989294120386193,0.006614841166996717,4.73
0.11917683307690055,0.06844168482525137,9.734640856358075,0.0017987177417538866,0.009344949647986591,0.003123254077894163,4.74
0.06524814105739936,0.038805412903992725,9.935184996726955,-0.004735301476552617,0.0013815922667631136,0.010792112607239309,4.75
-0.04222671341826128,-0.1465241018032714,9.856598330215338,-0.0020946209531381805,-0.017125525627899228,-0.006971420099516205,4.76
0.16841121623130134,-0.09580394585175586,9.691086478857285,0.01951787548414248,-0.00335574414680138,-0.016945950959994967,4.7700000000000005
0.03846246226455117,0.18610937327823152,9.7121057741774,-0.019111496926880897,-0.016665250137950074,-0.016430264720371887,4.78
0.07233539573167272,0.12542490626738145,9.941799809736102,0.02387579161155833,-0.021951523475022668,0.004249597146187939,4.79
-0.006147583927003736,-0.12696156114118626,9.734923686582304,0.012135581850441429,0.0009002769587503394,-0.0017396824423310828,4.8
-0.014515934591604024,-0.13217278266575355,9.71071287168117,-0.008804791170849343,0.007845109099368221,0.002803014196690354,4.8100000000000005
0.05838376725930782,-0.14604763634458293,10.013944959414246,-0.017996542739748995,0.010813222608069873,-0.014725605598586124,4.82
0.0686735104346129,0.16263545178129976,9.90573186731767,-0.005836900426742,0.01225843014901826,-0.005205368445201605,4.83
-0.04221241862374264,0.17791164791054023,9.815428638958485,-0.026033537220263168,0.009648216139937375,-0.009127195125764825,4.84
-0.10155906268135735,0.09832450695238061,9.867983904715844,-0.0014235662563066038,-0.017551726229652627,0.001291915180271662,4.8500000000000005
0.02960739964219815,0.13194038377195808,9.725345547355614,-0.01470985973556414,-0.00030868353647031514,0.013241827164802787,4.86
0.09777799460822956,0.049694663815346714,9.842918252964187,0.0006531061835639859,0.010566788615563889,-0.009594632912700976,4.87
0.08754608628446994,0.1268491966537821,9.892297965575068,-0.006311191385538454,0.0054427315264911225,0.011556809667519057,4.88
-0.0938448944643869,-0.04230484168570193,9.777728592414437,0.0007804594327006122,-0.0013166660254932345,0.016773943484854437,4.89
-0.08124948583907482,-0.16565317773452717,9.907780086587113,-0.00897837787128136,0.014593236066039881,-0.01367279268387804,4.9
-0.06155268878881087,0.05633208463723436,9.675862082740512,-0.0069832602131864666,0.0021421585727533104,-0.0064730507422884245,4.91
-0.020009415715027463,-0.0666778071299098,9.720180422456638,-0.005476709982987953,-0.005583762700357352,-0.01609848112344279,4.92
-0.24445759706628448,0.0920786035864232,9.742889438702464,-0.00033849613486480577,0.004190928019499669,0.002886871178124946,4.93
-0.026389478738651363,-0.24381253031997152,9.81084129998301,0.019256908551576173,0.0064798245605176795,0.006555505228648478,4.94
0.16185844596260823,0.0528081237962628,9.821429473303013,-0.012989844920975078,0.014232697001759205,-0.006210414538460728,4.95
-0.09140797736589232,0.10220267265710403,9.8426627052383,-0.0021416126217612425,0.009321466525540967,-0.002222960178438158,4.96
0.08626403980704658,-0.08047141897448346,9.87487205939869,-0.0025584545692016836,0.008800852823321196,0.010413545087307258,4.97
0.07905090308791488,0.00813754362048529,10.018242255397816,-0.009454843011200422,0.008983738515803493,0.005141012767951893,4.98
-0.01421984366368395,-0.16989779447527906,9.776131246905413,-0.0005216330800509613,-0.0010095947151999758,0.002359748866928423,4.99
0.08376285096706086,0.16466802295392957,9.779570437008168,0.015124931500900067,-0.006748310202213994,-0.000363051755489154,5.0
-0.038114516015835466,0.058175644430223244,9.643492743713711,0.005850281421852379,-0.016876295276190962,-0.008647789823935343,5.01
0.008043562331308892,-0.07484090404668212,9.831539630224086,-0.0046397170857769695,0.01411386768003169,-0.011601025186216515,5.0200000000000005
-0.18292185597752883,-0.04943967331966362,9.812233599033393,0.01530540718711678,-0.018034753131885378,0.011201763561469007,5.03
-0.012855798687877042,0.03328811767551637,9.711205575294835,0.004619093137279683,0.00103977888746916,0.013713371527410192,5.04
0.0030973178274572104,-0.007697060569144768,9.704310641063628,0.0015276084018699607,0.003988900829733886,-0.002637964584074172,5.05
-0.005885221784775018,0.0069245851040055225,9.886130979438011,-0.006841929629802953,0.009562659674079967,-0.011286044273566036,5.0600000000000005
-0.08851191234403727,0.0691670617253678,10.052059215291205,-0.00820552560925602,0.0014575265375140142,-0.0069011043809771334,5.07
-0.07799687631227215,-0.059274274854981504,9.8050875023157,0.00335347552223021,-0.006487113835486671,0.0031295867163787434,5.08
0.08399359064402392,0.04668254861735897,9.919670853422593,-0.01814540534415225,-0.018391155186461675,0.008401025066669954,5.09
-0.09571188562199896,0.04747346717964087,9.622381052761439,-0.013863635718904815,0.006923802452316969,-0.004801741201805234,5.1000000000000005
0.023987313866175,-0.0007286731720108805,9.77998447975649,-0.009589460561106669,-0.0018802300941836924,-0.012254839302818786,5.11
0.013792816937483632,0.10872035276949654,9.840023498350908,0.004638725106390297,-0.009276485598544623,-0.01059551402890477,5.12
0.013650217921061417,-0.034044656359525895,9.824284909698644,-0.0059878274789127986,0.002490982085957183,0.0026610319813695667,5.13
-0.0580843741791396,0.022448807555970132,9.901985745788751,0.002123077107863505,-0.018560755051961222,0.008360551567756965,5.14
-0.2906531151036229,0.01449758312612696,9.82844103403472,-0.0024224129059634138,0.00745510102165643,-0.018389043233577467,5.15
-0.017856992480614314,0.06629516019778645,9.684355177548884,-0.014876679128044967,-0.010979152669846462,-0.00881897391648639,5.16
-0.04439126937272087,-0.04221941320581005,9.892431483689796,0.013958155229843972,-0.00220332970643849,-0.0010311633406473372,5.17
0.2040770254798602,0.16012034935257127,9.70863609278533,0.00617058834263464,0.00817428436499361,0.0015122787368002327,5.18
0.021103148476234332,0.01718322257975059,9.70886581760498,-0.01095255385371221,-0.002451553761349476,-0.0011100164475121282,5.19
0.05572096292378214,0.16220566280917137,9.800478917584144,0.000781040413625524,0.01176954207879955,-0.014633833601705115,5.2
0.15553495266936304,-0.007069190609482544,9.70612521560547,-0.002243519759206488,-0.0192806954173384,-0.0172484042539679,5.21
-0.07533056658248594,-0.19335816846484669,9.833453063854282,0.013126624088547477,-0.017510112220566577,-0.001218137815855718,5.22
-0.2420864457172751,-0.11648766549496242,10.047055499049971,-0.003572737464286486,-0.008410466000545378,0.003967553713261958,5.23
0.08870718757618258,0.07685188695817827,9.672929600977477,0.02564112253084767,-0.006924717664857182,0.011474014846212537,5.24
-0.0480996011767299,-0.0757709306411533,9.914550370650453,0.004149018989448872,-0.0042609220676583905,0.011542756841580126,5.25
-0.02259825392090466,0.00021076827622463291,9.645515698201201,0.007567206265456888,0.015238704282393729,0.006488536331957114,5.26
0.1005551140689806,0.01761744423642599,9.825022638416065,0.015752608431597915,0.0033635556646631187,-0.008104217360232542,5.2700000000000005
0.17225766386033076,-0.1681336203103474,9.79482230331623,0.004116985688714542,-0.009982767033143545,-0.008448670920554673,5.28
-0.11664846369530138,0.13877070740664396,9.759957952765589,0.016604534087142755,0.0016073550729562905,0.0008181369626753896,5.29
0.01993237669113295,0.14553699025015088,9.603962000918912,-0.0011001177708527099,0.00458540696245493,-0.008101785751274675,5.3
0.012648994227331407,-0.24733208259410927,9.806392112098727,0.00480539389832194,-0.0069835603295423845,-0.017957138629337965,5.3100000000000005
-0.019681735981765307,-0.08448040727671208,9.965625074360668,-0.01134823049799496,0.00566243025251589,-0.0026811857207335505,5.32
0.03683393021967614,0.03438719427501915,9.802263096023626,-0.004578087667349857,-0.004373268811026635,-0.0056423736250738685,5.33
0.09018249941597187,-0.16553041478699182,9.775931576454427,0.007669438854980026,-0.013476824420811669,-0.006584399879074315,5.34
0.0844656074771457,-0.12529578375991776,9.965402950069892,0.022362443426049854,-0.011604758868946597,-0.008879034210394921,5.3500000000000005
-0.1225478603763287,-0.13799895209600213,9.925544196192105,0.004963687155352072,0.014895335015899578,0.004799354333491146,5.36
-0.0842323290918655,0.09926803535624457,9.770333221079376,-0.006969458166693329,-0.018114325795490185,-0.010978926185858127,5.37
0.010785303380101818,-0.01634981400653039,9.853550539283448,0.007577062993275527,-0.016120785973080805,-0.0120382413497545,5.38
-0.031069757762416706,-0.04543138991287288,9.81270577157884,0.010782556573234429,-0.0024434554901687847,0.006706909622687043,5.39
-0.030282547403166563,0.030306907877142658,9.720940214585854,0.008321490324657888,-0.010301795096380842,0.0060942058941974445,5.4
0.16633346526328963,0.07864066124665516,9.906880841745394,-0.011087342455824541,0.006774372189236615,0.013151944521952187,5.41
-0.04817239211031599,-0.03596279577193602,9.677967937438753,-0.014208232871185632,0.0005992566804487754,-0.0061386290803497195,5.42
0.04379323178432463,0.0820665129408375,9.772737284176287,-0.011206858800494567,0.010672798836546872,0.01564219709199456,5.43
0.06284698670618709,-0.10784219316033149,9.852302244657917,0.007609954273980821,-0.013737029817936727,0.009547043413420997,5.44
0.07951266854719106,-0.010620038730021758,9.956883829138432,-0.0011050721381149682,-0.004934525461506863,-0.0150095142736625,5.45
0.007478765004723911,-0.13787093805432465,9.760441231627885,0.0036166432206755717,-0.008389457028393539,0.010887697006651889,5.46
0.01104654657005951,0.009266174730334297,9.846743879512541,0.003028300370280728,-0.007087284699100712,0.002161274081919028,5.47
0.08300916584200888,-0.04855118225207208,9.609672812514546,0.01031276899258394,-0.00456174569419426,-0.01207089504760852,5.48
0.054756337156421225,-0.015119796842213797,9.823644711759757,-0.012582070482453777,0.0033549964771372384,-0.018006107257041427,5.49
0.10735973185810088,-0.14903177703207746,9.705395418670513,0.03231832075092096,-0.005399927886274199,-0.004014733699218539,5.5
0.20908336376127507,-0.04045467294252854,9.83429429904587,0.005296410798910038,-0.0012987074171234394,-0.020489621223379658,5.51
-0.18865196007929136,0.12405802825156996,9.89518254724864,-0.022166627136622034,-0.0030301289197779907,-0.001954327942760166,5.5200000000000005
0.06378242345630651,-0.053860016740987865,9.84349922907558,0.0031226260832772734,0.0023546793482074483,0.013028332022777143,5.53
0.016417405302426972,0.05805490933592575,9.715216270453242,-0.0012297277659558221,-0.005319099518516389,0.002472257518794104,5.54
-0.07579667829648465,0.10893395969215465,9.86614408612857,-0.0007860846085533489,0.010337533140365094,-0.012031051494626932,5.55
0.06228435998507377,-0.003012345885746686,9.818652826675928,0.008219731334400572,0.010148178725547045,0.010005066300225416,5.5600000000000005
-0.02677498264989059,-0.13372151600672508,9.916478000574445,-0.022201130731463833,0.018259578208571138,0.004181568999620756,5.57
0.05259802749149063,0.01558255155504048,9.835389478577078,-0.0011760413722941806,-0.0044520805714122185,0.0008415956839389155,5.58
0.02154949788251524,6.817495084112747e-05,9.749071567490656,-0.0013577572362251037,-0.00131036584444088,-0.014014770778035111,5.59
0.08906595248846219,0.13415072500567257,9.656354659130805,-0.0023991604848823587,-0.0065948019205106425,-0.017960179267974427,5.6000000000000005
0.03937514000868989,-0.03327650229001954,9.932790469510378,0.005431457912095677,0.012916733781601098,-0.0052248454501101285,5.61
-0.09082318914022325,-0.06892136249498985,9.537345706583261,0.011092942067344751,-0.010439245082862078,0.0014215078967045652,5.62
0.01954069451962548,-0.0032704670563648455,9.751465129252969,-0.0017726868673319197,0.004940910187291616,0.01875300441611459,5.63
-0.030180787527163234,0.0036776277616959114,9.76155805826582,0.002438041945996552,-0.008584754976590538,0.00679751400358825,5.64
0.01789015299297883,0.03054761164544515,9.776423880141712,0.013436039029303544,0.00785094893397019,-0.008841220218818833,5.65
-0.15861065854943454,0.07898750740309826,9.900883222081134,0.0019729409336556466,6.68994914470483e-05,-0.00648062253715673,5.66
0.09269510093952224,0.19810169741889694,9.7821828649757,0.015642898209708746,0.002365199603056079,-0.0017897248643447949,5.67
0.004687428216024462,-0.1893719576639839,10.037690206671307,0.014935004629967202,0.002125154866479039,-0.005404652976912513,5.68
-0.18598856939882738,0.02830931327570172,9.795883205022367,0.004074440937310351,-0.0071416219115194605,-0.014173423436999346,5.69
-0.001711727463597837,-0.16198816599164387,9.857696496396253,-0.0014322351902436334,-0.001179685685214905,0.011390645321568884,5.7
-0.04584287030543166,0.1395365238857625,9.753758952140602,0.005558850459497547,0.004743204358011786,0.0002342143884449802,5.71
0.043346823199556114,-0.04495091323698273,9.928662440766628,0.0034574630793461516,-0.0033951420358518786,0.0027131982214296485,5.72
-0.18377800443940404,0.04301491349923355,9.884821256583303,-0.0013219765520188654,-0.002023466186513213,-0.010853508420653982,5.73
-0.07980116809277853,-0.15485826454212026,9.447285397300487,-0.006257124982804871,-0.003939950660351368,0.000585255694991426,5.74
0.0876520510054311,-0.09253674795411855,9.810426002387304,0.003392057913169913,0.005591764860244605,0.005039830451973518,5.75
-0.10266779708951493,0.09683771586147154,9.8344318473372,0.008711342341970558,-0.005707489172612116,-0.002442992270485769,5.76
0.19803711041544542,0.18443143087868005,9.914215122740668,0.011656780398646793,-0.01200390256244722,-0.012901853899252334,5.7700000000000005
-0.16714766342494902,-0.039184039946056716,9.69605436101496,0.0067321027598435355,-0.000976064196608592,0.00046327180203283426,5.78
0.17159076486624203,-0.09804908572119317,9.800365298471355,-0.0049298214448105235,-0.008451196171946661,0.0097244239111995,5.79
0.26245568531544533,-0.08324397024985364,9.765864251681553,0.018529215305681662,-0.010364366320004646,-0.020939306227544627,5.8
-0.029721705178330456,-0.09221083474593754,9.668637949437162,-0.004776124133537216,-0.008489109364045504,-0.01908776928551142,5.8100000000000005
0.04464452346437305,-0.0431020261375379,9.765297274260616,-0.000991269881857687,-0.005804101859680943,-0.01597779367766779,5.82
0.04142411453309798,-0.13152259203372704,9.814208129266005,0.0026919522281977073,-0.005261117376979464,0.002533661550857747,5.83
0.00560939236755956,-0.02295581941335188,9.891438366422268,-0.008714522027684609,0.008965147075495394,-0.0038683237049054785,5.84
0.0034560482417714056,0.2362879628348928,9.817433100361015,0.015406479992476798,-0.010955396914519806,0.021065049106150164,5.8500000000000005
-0.20874734488933766,-0.16011185230585903,9.623617898393695,0.007374993786064706,-0.0019302746236526274,-0.011634488819716063,5.86
0.02595218808130091,0.00640905219911766,9.947079337382249,0.005776838113024079,-0.004624735109122564,-0.0014977574863159482,5.87
-0.16541013786351588,0.01939973938604911,9.635381832545741,0.011641078568502064,-0.010075963138995727,-0.007912336080739357,5.88
-0.014317907017143874,-0.01169119026491824,9.820686382033466,0.01856321453425105,0.0011346466160791035,-0.019137456386199972,5.89
-0.06492805897561531,-0.07539260727537354,9.886340820672203,-0.0034253537533665847,-0.0022772724921487453,-0.0030488862084553014,5.9
0.01397552731180602,0.0137274731934688,9.78012008899,-0.002248653058392013,0.009323658832867811,-0.012608211912772536,5.91
-0.07639290321786911,0.09012830974994565,9.888050583260524,0.009471007743844738,-0.003656881153175945,0.0043699675330747065,5.92
0.060959962672193016,0.06136066970953539,9.767346021769743,-0.016374072487960224,0.0118948951138292,-0.0038684435334866195,5.93
-0.03721716602342433,-0.012477707860065489,9.707968268956092,-0.005728790242896495,0.00018682632620639573,-0.010829528703135976,5.94
0.13345420713056794,0.0920097200906068,9.718738697728446,0.004847168328895974,0.00542758405830517,-0.019640476303983866,5.95
-0.13254769699552213,0.025447243480064188,9.833078216636743,-0.0024528882404585574,0.012638134871301195,0.0007890373628266015,5.96
-0.2587154355004108,-0.0016300406756790883,9.674584763170138,-0.011613728185968949,-0.008338773932169174,0.005027267092644975,5.97
-0.04113633346429373,-0.08895359018510508,9.90257267723387,0.004243859208019236,-0.0012016676172393332,0.006159456783208447,5.98
-0.039518676246814974,0.005062081512141199,9.716099481978453,0.020104136650931692,-0.018503728399358123,-0.001982836735872724,5.99
0.09923652887065627,0.09468055532937984,9.831212368151174,0.002293615004019849,0.015151184479310652,0.006847612149468041,6.0
-0.07718081650631174,-0.0012929541719064292,9.908482763119746,0.00035338878007934975,0.013174173747021064,-0.018051079791345105,6.01
0.005597729935621291,0.035787695579229624,9.918470547767743,-0.016673081192323826,0.002451205508414617,0.007449263515334462,6.0200000000000005
-0.017349040049883406,-0.09145195038853304,9.851764649138536,-0.010223455543011056,-0.01147641102430341,-0.010562636564253417,6.03
-0.18022986266703836,-0.0025789334379420535,9.869057581015072,-0.008660803412227166,-0.0006555528187667905,0.024662288907073667,6.04
0.03555888605339252,0.041566418106875835,9.798717297824872,-0.00400552126373302,0.0025216566368035888,-0.004119981305769558,6.05
0.06529064921452256,0.09897870853809959,9.71862381395657,-0.007140191118264195,0.013768767667082174,0.010200455723397865,6.0600000000000005
0.01015650968920661,0.27477812797920953,9.879594518413606,-0.014673229572727422,-0.010202686293804901,-0.023418198849281455,6.07
-0.12592123315790094,-0.09468644634489375,9.920817194950493,0.00702056070952764,0.002093825856956899,-0.005057392429394548,6.08
-0.09372673098783377,0.1119589134166743,9.720767485458504,-0.013088413526402784,0.00173980236997278,0.009114197463578552,6.09
0.07852709700672988,0.08920951364015801,9.845961664551094,0.012398405754458369,0.007483562844017944,0.004282615393312709,6.1000000000000005
0.11763342728720497,-0.01294809152716964,9.940394639122221,0.0034305254550516862,-0.004468389215468513,-0.00469480467361275,6.11
0.04125762037500255,0.16002614153108308,9.886041295981459,-0.003225861444221981,0.001282363813180481,0.009212446600911164,6.12
-0.0003571752294144245,0.14660592765117328,9.751605257437271,-0.025999540091697408,0.015648184647191705,-9.532494624604071e-05,6.13
-0.0664571011757221,-0.16475459400679843,9.783973751008382,0.007176599428138696,0.0018177618349567092,-0.0033923294112182447,6.140000000000001
0.16730431668346996,-0.15561433652776216,9.920738756884736,-0.009108517073392122,-0.008248708964887943,-0.015044963341382835,6.15
-0.0234836244922497,0.20208614602176916,9.63290515293718,-0.01154459101235928,-0.011306949107577317,-0.005777414843667567,6.16
0.04778761307078069,-0.04290782039488165,9.62967454827034,0.01512037403443174,0.0070722027692290195,0.003622095696257153,6.17
-0.06475944733170441,-0.019343454115400557,9.856384230632571,-0.0011556717105161672,0.007209250116234038,-0.006154469234497951,6.18
0.030678024675390932,-0.1275851404130376,9.990120164353197,-0.008952204472594894,0.006739009795542984,-0.008273688717325195,6.19
0.18281717795834365,-0.07460234446134882,9.67897143762277,-0.007634812112951297,0.009038874619832021,0.0027579131258758374,6.2
-0.02410626187949173,0.13143145674531784,9.811323173365858,0.0073143637422529596,0.02335781309610112,0.002875517649775593,6.21
-0.056692244348287395,-0.11532507738766751,9.64111699355431,0.00858373493912484,0.02179952827935672,-0.0016679456058710722,6.22
0.10432084624826798,0.07927225452293543,9.77722010761892,-0.03493368551578742,0.0032907836891325833,-0.020500594845684686,6.23
0.08141672926991561,0.20176269822045767,9.786074675405162,-0.007072981994982055,0.0031630468776522236,0.012935891199945768,6.24
-0.047479408904792325,0.11600599320078256,9.930925558141475,-0.020828386891593494,-0.00027951708321504744,0.0027247802996898415,6.25
-0.009493116025627975,-0.03931096293426126,9.943793066185252,-0.006664084238721248,0.008326659756964658,-0.011351816281212242,6.26
0.006251440417919182,-0.014033212811463953,9.7173565343684,0.01932330262757154,0.00011361258433847857,-0.01425010439403754,6.2700000000000005
0.15065871324260638,0.16161987790541232,9.769048703765641,-0.014305989464000936,-0.0001677387441145643,-0.014125072331800324,6.28
-0.13575592341434886,-0.0299224689518178,9.954673973987877,0.013554791526806593,-0.00020302685220239297,-0.016732324396110252,6.29
-0.0020467296646935096,-0.033902554285886705,9.788308341224651,0.005813133947905489,0.005562754219433689,-0.012668142177235569,6.3
-0.007338707675434833,-0.08956084786949119,9.69241987852735,0.0028936509911538554,0.0034933954201195054,-0.004918677597123271,6.3100000000000005
0.18036032482722192,-0.09867570203253369,9.748423930796523,-0.0013827038153791163,0.004717009622531972,0.004726005981704351,6.32
-0.056471244782757814,-0.12626259223102798,9.887786475814371,-0.014895982204173966,0.0022903978189803787,-0.016278565790157244,6.33
0.04172723732075039,-0.021175437493567543,9.805649391871992,0.018769626755834448,-0.01723273057609066,0.010259710009008273,6.34
-0.05416168152913336,-0.028257601018717257,9.695722244229096,0.00016005909863079707,0.0004921159578147599,-0.009018999776797822,6.3500000000000005
0.016733465096115254,-0.09339058334609433,9.984215569910626,-0.0013914017245241941,0.020297810108131156,-0.002106290389975641,6.36
-0.055319858507241415,0.0289709256160534,9.783275952406001,0.006368617961447383,0.007955312208741851,-0.007793951612649748,6.37
-0.007256224283530548,0.16051845426382028,9.78695803417095,-0.00878421283211898,0.0045929277786486665,-0.023791878484487047,6.38
-0.038798332494483626,0.035055349547535246,9.701024985627765,-0.004236219614995998,0.001746432675829904,-0.0072879701133058096,6.390000000000001
0.11210384676493973,0.13917377211917445,9.654591357727215,-0.002239077579213183,0.006890084275029022,0.00717706679085825,6.4
0.06808570226087908,0.04209894989122688,9.83718012409956,-0.007285277124008481,0.0032546360775165244,-0.016382831307685357,6.41
0.14858933570776645,0.09866651503696576,9.83073998511361,-0.005347885941203773,-0.013906814181920038,-0.017753327403213427,6.42
0.07490408876151004,0.04906516372092157,9.94254320441215,0.020714437627556596,0.004613695869777109,0.0010434654897774817,6.43
-0.03131227458113254,-0.004232694187181506,9.821186820964677,0.004857514231356808,-0.002070153715172834,0.0018298934856738772,6.44
0.015367895470419377,-0.06009953270401326,9.873278339948655,-0.004919824466740043,-0.017062369795272196,-0.007665868847692107,6.45
-0.01990065979609238,-0.08748864903880338,9.76521181032397,-0.020422239573170985,-0.011571119615571411,-0.0010524926065341939,6.46
-0.05991796599956513,0.07747688958447596,10.02480272672505,0.014176400415485265,0.00010136045416248557,0.02356487002897026,6.47
-0.003939036078281524,0.025566376820779335,9.783915484371004,-0.01547847685614805,-0.00013596589199741857,0.006202673045590931,6.48
0.14649219364439123,0.10270497700931168,9.927799542013513,0.018393899310569423,0.014206766958681243,0.006480351489439853,6.49
0.05590783940304363,0.11093924177164226,9.920383730955189,0.0013532121002218216,0.009858319280219654,0.009734862699686998,6.5
0.13743852797253378,-0.10210642800687385,9.626733244450223,0.009354160945942547,-0.007249893286272867,0.011344665539399982,6.51
-0.11119586961261337,0.23910523268833642,9.82785229869169,0.006730009464564704,0.010965341183528805,0.015544980886470336,6.5200000000000005
-0.014554429512973014,0.16133230625463968,9.775853795500955,-0.0036819135244901763,0.006368266280619821,-0.01285041838416388,6.53
0.07696683893091077,-0.1087267789232411,9.726749793381,0.009824177030616148,0.004431924715893597,-0.0035978292901407173,6.54
0.13432162828101446,-0.007848375476111549,9.914956700308071,0.0006162321889415741,-0.004435621693253416,0.0031193983238057346,6.55
0.01786372744450927,-0.03317761568851703,9.806419895695822,0.012681857423880165,-0.01710556940114364,0.007056695161140895,6.5600000000000005
0.04840610793224861,0.023474136669627343,9.708012913119095,-0.0018541708613574862,-0.011421960434891645,0.0027560506640351315,6.57
0.049451394329173684,-0.041256302690751166,9.868108647651878,-0.011755305964110625,-0.013242305682862048,-0.013597091140164932,6.58
0.14514216037464567,0.076520213333681,9.688042452681776,0.0007264320930796521,-0.00724964785070707,-0.0060675959243611174,6.59
0.05265061515125692,0.11896468961807205,9.811049247904602,0.005872062443771882,0.015289381580498054,-0.013396850624360619,6.6000000000000005
-0.03231751361452502,-0.06344103178729692,9.808448164662869,0.00819096566374743,0.01410794580508963,0.008006404912992099,6.61
0.1677796357395054,0.13942042799089424,9.788161601063948,-0.007413517438433211,-0.001484401125975528,0.014309110596967187,6.62
0.09035033235647463,0.018482878874307898,9.907075036841416,-0.010348140809979539,0.005880093834958588,-0.0069873419441715,6.63
-0.004269872947583297,-0.04995746295627124,9.788378666348606,-0.012136942228082388,0.012140351435648589,0.0011877401813664558,6.640000000000001
-0.07600922460071988,0.1257447572662741,9.83421982203858,-0.0010470822015339087,-0.0033976151058338136,0.00442961695435501,6.65
0.05062057832621095,0.027512936077696837,9.863416597252538,-0.00331217722957426,-0.006067839493456115,0.016202971045643232,6.66
-0.08077064253024734,0.045007745873238,9.849903131511823,0.017571247686869247,-0.0026093830751959574,-0.004087675225199448,6.67
0.026632669050270244,-0.11715776803884866,9.745451396431433,0.005940308570241703,0.02050889545788234,-0.00022820269625921114,6.68
0.012163915711240317,0.03479464856380279,9.83277926163387,-0.0015111320819382592,-0.010579760052139819,-0.004327770706724934,6.69
0.1511387851632633,0.10807369484475747,9.819835155475761,-0.0033719194167118956,-0.0005515929157771902,-0.00011817003145476493,6.7
0.051745201512806406,-0.0767146840169445,9.949081163307888,0.001924563822134206,-0.005062998922569656,-0.012217342869321607,6.71
-0.02856377446045856,0.2843551687168975,9.823729457973132,0.0016094056873271099,0.004443474279105004,-0.008345413288798172,6.72
0.05089917124682919,-0.09766648536416633,9.70364602857502,0.009715285973435208,0.010057708727301709,0.005458495026689066,6.73
-0.07167286816209954,0.10602831277996659,9.784307892002083,-0.005643681099992589,0.0030498142518666977,0.004389144511963405,6.74
0.21071547322642312,0.014729411654177255,10.029997316477237,0.0071442518553753165,0.0021442616981193923,0.00217810909637952,6.75
0.05047664678826913,-0.09592805337236665,9.718886818432873,0.0012396664600341596,-0.005216269930093746,0.0018710025272711123,6.76
0.007669614580723689,0.1228738232805387,9.752111639518429,-0.004801292082003394,-0.021860352234267525,-0.00662894255453106,6.7700000000000005
0.011869343160584673,-0.11173516313433851,9.700384142564205,0.01361728537308232,0.0022284248797492774,0.0064417697954916855,6.78
-0.008825300294903865,-0.11021494632443683,9.61363956138316,-0.0038278205517279984,-0.0016194850609247242,-0.014227752494438955,6.79
-0.030452200034082978,0.09505020623162369,9.8835700269728,0.009199283625339215,-0.004103582206688945,-0.0009974121937351844,6.8
0.03518220101972037,-0.010379966053441745,9.836411147198092,0.004398048727233349,0.0029563900956431823,0.004585378618075126,6.8100000000000005
0.0013315706081028353,0.07113412306437303,9.93256019074992,0.00424882953591045,-0.00040561269282360845,-0.015780992263718638,6.82
-0.1278161057716623,0.02919166816914967,9.792584998201011,-0.0024145807000401725,0.025427078109450822,0.0031047202823056654,6.83
-0.026682574200891724,-0.1966215474509908,9.55221051121291,-0.007920142713173994,-0.0003065918015371847,0.016958405922526232,6.84
0.14391879442705077,-0.009174439377045327,9.916521782907763,-0.008907879301427992,0.005962153336548536,0.020481911646475486,6.8500000000000005
-0.01734209233425554,0.01735263075430302,9.861361349999259,0.004980946763048308,0.009411197645820397,0.019229991828862574,6.86
0.004949939603120361,-0.12069120677809575,9.837702714502866,0.008355846397354169,-0.0058593304170720655,0.018260823994959874,6.87
-0.09161930201995261,0.04064002711094594,9.834189514743402,0.0018077299527143307,0.0025604620808718083,-0.01973655236253836,6.88
0.25790051644889594,0.04046250758474723,9.6850533721912,-0.007339562055839894,0.004851602676409994,-0.006555772353983485,6.890000000000001
0.1541402900984434,-0.12449050571872725,9.979585044398828,0.008895807770271958,-0.0003738813706052605,-0.006558954125100665,6.9
-0.1416857217120597,-0.06643774873787316,9.736939012025921,0.008994619632402662,0.004694788247006431,0.014063055948958784,6.91
-0.00776796141719469,-0.012438541323229257,9.928934577232726,0.009372051029939514,0.005300307801071803,0.004507826275466165,6.92
-0.014147875813132003,0.14186795173076475,9.830606813765362,-0.0078091714918031244,-0.0011966953089191578,-0.005244961896035842,6.93
-0.11637157465580855,0.1168108369381865,9.743318695586245,-0.003040635309481464,0.00276477815272227,0.0046242402156549825,6.94
0.07796485092124747,0.13686974504687552,9.869827078872843,-0.00034750983703126247,-0.0009476571780162004,-0.012301894451599755,6.95
-0.07883935368494198,-0.12295417074039139,9.803179489786347,-4.6694250360980845e-05,0.01308182781127053,0.0205506282341724,6.96
0.08684477658332672,0.2600291812156742,9.731614041101613,-0.01500837503333873,-0.00664684386210695,0.012748536314409361,6.97
0.019217336858898083,-0.08845121196240578,9.612851093862583,-0.0032899298299885592,0.00795356099975151,0.015183157281973399,6.98
0.01861770928268139,0.029722528376279696,9.851270068122549,-0.001899994913395521,-0.017404578209994012,-0.00921353675629756,6.99
0.13057502716455816,-0.08459979109037766,9.89165271083291,-0.0005228794600544766,-0.0037998308599018634,-0.0009897697657785874,7.0
-0.03372276966600818,0.16476643980916453,9.73193353347309,-0.009220938800801989,-0.0013976391692444628,-0.011937351078119504,7.01
-0.0881218047883811,-0.12969125828051778,9.926684332314018,-0.000556459226426997,-0.004372926250737845,0.005374465858679159,7.0200000000000005
0.1317914778687287,0.023995681502349743,9.990543823827105,0.016314308136754788,-0.0014530263344869913,0.008746504790380485,7.03
0.016066134103934673,0.0637663141657684,9.813481444842571,0.016028667495312912,0.0014112140208835276,-0.0011823016996480309,7.04
-0.03855033438430104,-0.08217441625395625,9.74663593101195,-0.001227052804295604,-0.000805602453962786,0.011470772125364606,7.05
0.0298670677398375,0.1801020201571346,9.7658815761343,0.012233011823856162,0.014126940118181015,-0.002715069163237583,7.0600000000000005
0.050716191049903415,0.11855024145974509,9.800214797379239,0.009799033348958354,-0.01611434532304191,0.005076879598927046,7.07
0.15783210663787162,0.033654225406671893,9.819611124511066,-0.012372060779566246,0.014278992815252897,-0.009853095762022713,7.08
0.10863816469020389,-0.05252296416215521,9.829340751106963,0.007217197091294635,0.006673295701956515,-0.008691069110727697,7.09
0.11517748037278508,-0.08555043634771964,9.895899848181063,-0.005239574970441387,-0.00499006120740002,-0.011129993419016255,7.1000000000000005
-0.045338222698605435,0.01494055136621938,9.758674574508548,-0.006883988216551414,0.007753806870618913,-0.008627018261013138,7.11
0.01931859115189865,-0.02378075263585828,9.672577587623515,-0.010401993548047352,0.0008736092407483146,0.008109546465525915,7.12
0.11830693891451663,0.05657190080811736,9.80519868387251,-0.013415285124560168,-0.00853046366854745,-0.0007952403021365724,7.13
-0.06647822138531644,-0.05154592541683098,9.84941862884609,0.015532780002101372,0.00892157416304043,0.011126430487549457,7.140000000000001
-0.20006279985430264,-0.14104382490110107,9.75757241888985,-0.003960565444432277,-0.0011602799595854054,0.0038910134104344542,7.15
0.018914594777957715,-0.12832114860037983,9.735177818082857,-0.010026213866871244,-0.004930776014917322,-0.0058419794774447874,7.16
-0.005978344916851416,-0.054167435877719286,9.7995958608327,-0.020629933668336053,0.0012003434286524525,-0.005093442499301401,7.17
0.016560020513782303,-0.05918626426552494,9.802580497814619,0.016306057043255565,-0.009054707734722459,-0.002127781181575718,7.18
0.008743279353036962,-0.06896148747346469,9.659626600412274,0.0032238217379144765,-0.02304191242339037,-0.02016820270417344,7.19
-0.10449828971290893,0.030542821450924542,9.816742891176045,0.0008639510661429979,-0.01714194553556472,0.0020886047212175744,7.2
-0.11594320505354648,0.0722002060607897,9.715408467666695,-0.0039127951699620975,0.010779671992466025,0.00014404889178767824,7.21
0.07866473042445356,0.023733041714863668,9.82542363831801,-0.001631910949504236,0.0010501461423622807,0.00186799025356748,7.22
-0.09239846156885953,-0.0003894076676090864,9.958835627066945,0.019556968033178065,0.0004879317443099351,-0.014628151495934036,7.23
-0.049354210960497275,0.11717446886277257,9.883422502632325,-0.010168615284296354,-0.0007374942681374805,-0.015577567256676597,7.24
0.025743154616132736,-0.0854420799642159,9.875435756155605,0.0002154729507009184,0.0007304407515664621,-0.016327462953318536,7.25
0.031036570319355413,-0.14486661258003894,9.8142260877369,-0.0027712563865286265,0.009807612100156623,-0.021956345112666795,7.26
0.16672051337066554,0.14971286548777474,9.818715198919687,0.0076075331735537075,-0.0028588087402570696,0.0062588502009088874,7.2700000000000005
0.10318352361693761,-0.08827366693930072,9.893972059031514,0.004059778824018812,0.009640283694078247,-0.0021030510503261784,7.28
0.12279242808383356,0.0029807386842473967,9.902811149112207,0.005786233333057013,0.015716459561669716,0.00383794790981748,7.29
0.07819358143391326,0.06828906868919316,9.817834141882257,-0.004832799804681816,0.006688630232322915,0.012649069426793015,7.3
0.08309609436187448,-0.08098282572168006,9.5719301638746,-0.007705787223201108,0.001984368052160937,-0.0018336000006961032,7.3100000000000005
-0.05197950515140747,-0.045740772339080624,9.77990186254954,0.007349982725567098,-0.0007601059732562743,-0.004571328255571197,7.32
0.006392396432002738,0.06870158334612574,9.80947287255832,-0.008136955001088114,0.006665238110644171,0.0030440749273157957,7.33
-0.08675349411665433,0.02370277902862809,9.800605617359844,0.00627744233202405,0.0015008874165702189,-0.017691382352790153,7.34
0.04897366701044513,0.09130724984075833,9.85713583854784,-0.00581445205772121,-0.007787927879825374,-0.01056117010502307,7.3500000000000005
0.24747803967095983,-0.06969213713906772,9.884294038234573,-0.01555758364561504,-0.011639065927159216,-0.014028242475337023,7.36
-0.00931626679214118,0.05434272993115551,9.74373187066118,-0.006374202770442077,0.008062654923681337,0.0075695692509409294,7.37
0.0905789304053227,0.05764998607281344,9.924019361149778,-0.010263877379262943,-0.01484545655125963,-0.0008654617287432617,7.38
-0.017135891666142204,-0.020337917687388574,9.6341274897284,0.008568004047733285,0.0026597947179819925,0.005822156845601586,7.390000000000001
0.04363616076589821,-0.07271191712277598,9.819935834245165,-0.005724632000261154,0.005793715955826138,0.009169134643690601,7.4
0.06979875365165747,-0.046271781995225525,9.769899139062716,-0.009178555565665634,0.0006618796878085939,0.0023604352910418713,7.41
0.08940783677409844,-0.027039395523868328,9.994241842155276,0.01252586047717603,0.002979560992916376,0.009955887395069184,7.42
0.1565819913666616,0.05854772612217088,9.822512977304667,-0.004035537347014229,-0.007445846865600816,0.013278573513118579,7.43
-0.14429097863590568,-0.14718492670160863,9.668104978908191,-0.002952729986364479,-0.011642635284351515,-0.004805320392214898,7.44
-0.0917375802336605,-0.0697421941998672,9.717819730691614,-0.0007527034521707017,-0.0005496298664433068,-0.00022365238348350354,7.45
0.011330090342299481,0.2178395175247744,9.81075265042641,-0.005338562258358443,-0.011676651837393961,-0.012861696982262524,7.46
-0.021695922159492523,-0.11140070426842286,9.639584329114125,-0.008214653834038726,-0.0027235071944002416,-0.011096108739741168,7.47
0.144843912281509,-0.16868854800613156,9.809632450500693,-0.02508469023738021,-0.014869922302146382,-0.010767851481235345,7.48
0.25690062507019434,-0.05537848836849364,9.690383690156326,-0.013168232219829724,0.0010667703463201651,0.015968521565808923,7.49
-0.2044709029662881,0.04489915156563762,9.760933324704709,-0.007484631706077656,0.0010784835594842615,0.0028130369708821634,7.5
0.09596891954269099,0.016429797128122686,9.90876789738603,0.010657485689033016,0.004981286557511133,0.005476184288064659,7.51
0.13326241501083738,0.10390151449496157,9.891293863041936,-0.027063459018231106,0.006931580213599131,-0.012456723495475549,7.5200000000000005
0.11674166835325601,7.560622790195255e-05,9.879551941834047,0.00455238045378258,0.00034507921860589384,-0.010174506967953016,7.53
0.19085583447173257,0.1221781503815309,9.97010675436472,-0.006202158227326495,-0.001743140004104894,0.004323640143698201,7.54
-0.10511992553452461,-0.12964099883020186,9.774841924229914,-0.0036250864756568685,0.0030885554392174343,-0.010061290111408848,7.55
0.07284881456778013,0.04617777420206104,9.875733162172127,0.007318222647593558,0.0122382650717837,-0.004580531503554085,7.5600000000000005
0.033186162293913864,0.02583463136013748,9.871666167372336,0.008224675431464651,-0.0031119100911082835,0.009025868638436909,7.57
0.03411203170437477,-0.16219610302849818,9.693885561188207,0.011441818878315342,0.010691317670424616,0.010926003071710369,7.58
0.08904371021795154,-0.10985731292582655,9.845924938773981,-0.00474784633967249,-0.0018272378737968827,-0.005259803481958313,7.59
0.08246915400597228,0.13926852018700406,9.90200525055589,-0.010211453496982827,-0.006467720939568608,0.00996039253110949,7.6000000000000005
0.048334968281138084,-0.05469876950288138,9.7413632358774,0.004121756654218287,0.004977192404067122,-0.003803031927173265,7.61
0.11422305592922682,-0.08467118511738382,9.688358728913396,-0.009578723282847253,0.021728747165410813,-0.01475274413085528,7.62
0.14943758115406494,0.02453764059738886,9.620546076188289,-0.0019371871885046044,-0.01019256569914621,-0.0106986606359751,7.63
0.0031573921740591874,-0.03813135252483943,9.84634136122487,0.0007104837588516292,-0.014905960358615276,-0.012526792245560792,7.640000000000001
-0.03412874193038591,-0.00750361854399359,9.957246095593579,-0.00816835138325971,-0.005664616250379126,-0.0016191467679129228,7.65
-0.0045906966185753975,-0.13429126574217884,9.732102832143974,0.00770468735896164,0.010584812722401568,0.0008668532347717231,7.66
0.04975483342821594,-0.0993198103105945,9.932370512672094,-0.02325588108441607,0.007398512158877196,-0.01204920697177033,7.67
0.09761055841141815,-0.017091186043100916,9.771939893897217,-0.0074657174689467245,0.01121732777998861,0.0019048950802829903,7.68
-0.04048140684365054,-0.007678473233788161,9.8609565372665,0.00019813142753937515,-0.001549033259691178,0.014596725656253138,7.69
-0.12158247055568366,0.130583461209149,9.948150838399753,0.001905649398353638,-0.021928039370056652,0.006091895845391642,7.7
0.017354107232909255,0.005736396065480286,9.93840222442116,0.005334358331179621,-0.008266396325786064,-0.01194297159759111,7.71
0.011359069407513004,-0.019063777177596983,9.878925781949716,0.0007138017293815879,0.020808799198494737,0.010419669342767609,7.72
0.11887805727976469,-0.057457432213733506,9.813593466197203,-0.0041948828504850405,-0.007091526226044888,0.010535264619784258,7.73
0.017883491803989893,0.08811352892992735,9.931009824442189,-0.002946612422094725,-0.001822038799577971,0.003178762340312056,7.74
0.02028066754836183,0.16109986403894602,9.877843789723446,0.004203827632686726,-0.014455377088662671,0.008914432298175692,7.75
-0.03353082112926114,0.15756602590120505,9.801440789070437,-0.006593449370652019,0.010572052549904055,-0.004166723277225519,7.76
-0.11305203457018656,0.01203866744333145,9.866353119310912,-0.0009391104756592148,-0.0009788637804213586,-0.003337157437419951,7.7700000000000005
0.11436393884094778,-0.09674051068186285,9.61815757620187,0.019197960959302332,0.0073444831458708264,-0.00013519150986457225,7.78
0.03706453107113386,0.06733982252915267,9.76687891609584,0.00259275687837134,0.010468908725936777,0.008978858501601563,7.79
0.11652494819375861,-0.12704985245994868,9.908506098433053,0.0031755525507401417,0.014447184153237688,-0.0005419121942036726,7.8
-0.05951461691020348,-0.0638907872090173,9.677786161868493,0.0002715474724769389,-0.001462982026901972,-0.014729071677810781,7.8100000000000005
0.11359697396292526,-0.19705118534370744,9.900084273007373,-0.010330911384006191,-0.013021422886647836,0.007573852824261631,7.82
-0.06765627024313409,0.04585479452161423,9.728592483110402,0.001105703885312868,-0.00469181687810945,-0.0076944709705716995,7.83
0.09787206324997488,0.01301589928045856,9.735646659186132,0.005337500373907787,0.0004405711793763023,-0.001689704124067348,7.84
0.08664208888438805,-0.05003823119347861,9.714947877540856,0.0012712970189750132,-0.004709173920222415,0.007713045395113516,7.8500000000000005
0.1613589838792303,0.042734441735360174,9.856197965322941,-0.0001757024578688215,-0.010509725653519295,-0.00032082741682425635,7.86
0.09350347724176879,0.033956546004099225,9.663637819517753,0.004773878603076231,-0.010538949970548533,0.006527516935108628,7.87
-0.026375528352843083,-0.1504049926211612,9.73623403695061,0.0032119676425840255,-0.015249071044474434,-0.010190477936193616,7.88
0.12997194913009466,-0.17902775009382674,9.871674740192852,-0.0009244636935992956,-0.000947033600218762,0.003725451929097033,7.890000000000001
0.20255222064002978,0.002261379393383541,9.971759526218175,0.00734087971560296,0.0006669190877076377,0.0023731828476574617,7.9
0.006649655464377533,0.016802765683657194,9.93322021817784,0.0005307913921822817,0.0022647639678712726,0.005349734744216144,7.91
0.07314283519851422,-0.0694579708406955,9.740277901216883,0.008627014291524644,0.004339555938591458,0.0033156382843789484,7.92
0.047388806516884104,-0.09450387717191203,9.654905186684832,-0.001083768526974742,-0.015596565343336866,0.006680038966783112,7.930000000000001
-0.05767754618581387,0.03519312351454352,9.688411859295964,0.008737445958688037,-0.0011602369031084737,-0.009055306458638137,7.94
-0.05479431664467338,-0.01664132449064201,9.834093070566714,0.01291201971127444,0.01536861939791182,-0.0035235550235290804,7.95
0.09431158290062774,0.014750780819138066,9.869846891499149,0.0001574361190610818,0.0013510086472899518,-0.012854929802225587,7.96
0.04919293145735785,-0.04733117143937032,9.615580406917983,-0.0006024794501206262,-0.010859575974842158,0.015789774882419255,7.97
-0.01918329358589004,-0.05243113084908908,9.859983081570775,-0.0011731221775983834,0.0006979789486003555,-0.0012007956968629538,7.98
0.03102919650883227,0.002182405339338791,9.798934789519073,0.0016162441160471623,0.0017809409283523817,0.0021353985448417895,7.99
0.16837449774838756,-0.03057592517204017,9.835602124407242,0.0006753645803851975,-0.013233309744378738,0.007465629519286469,8.0
-0.025844912965991076,0.07050227703469895,9.748762060310268,-0.004614010646188199,0.0034241796102295304,-0.003703810576310523,8.01
-0.05517229755856179,-0.14357306621583493,9.758376249154812,-0.008307249319754023,-0.0018341885949023093,0.007779600236512369,8.02
0.2068259281202401,0.12667260195239644,9.905394062925193,0.013916677776858817,0.0036848322066559843,0.0005555931776581402,8.03
-0.13085782599899948,-0.012332309213787834,9.759292348673466,-0.006974103573929715,0.005657942456629404,-0.0052208244865961685,8.040000000000001
-0.022945054379584082,-0.2062523135899658,9.729722319481423,-0.009477837943464304,0.0026345579764052336,-0.008495863483460483,8.05
-0.15334600447963284,-0.15029236867996154,9.650962137593192,0.010277307478011038,-0.008067112751244707,0.005426783290415174,8.06
0.21190100742888643,-0.1970804234547606,9.854002181256877,0.008951532017243956,-0.006601696799936067,-0.0004485781609954643,8.07
0.1473018253640044,-0.13968034292749684,9.764459396480548,-0.004265542575706047,0.0013393917884816323,-0.000580251296590829,8.08
0.019159764458097056,-0.019283976886214596,9.894852078084801,-0.012526887799879512,-0.009631391897082382,-0.0022520135047287247,8.09
-0.16637349695229325,-0.07613455133306402,9.859192316269048,0.0030180289270413945,-0.004103937046039398,-0.01510355904289286,8.1
-0.13039547363191448,0.025621980157780295,10.056747432541444,-0.011996342629335327,-0.0033814709515590127,-0.002715055257318641,8.11
-0.018588493098086228,0.10064730412162351,9.669662537759102,-0.004473326060844914,0.01162189008523634,0.020184816173312897,8.120000000000001
0.17293077443496804,0.03751393167952346,9.802685889260113,0.004618165445794366,0.012829944816753616,-0.0037412862014101086,8.13
-0.12208363986201379,-0.07753945700910808,9.736406164884123,-0.013070709846164857,0.006978153197084761,-0.012616422827268822,8.14
-0.03377821378127862,0.163495639078296,9.831770304679997,-0.016656941858390485,0.020106178970817738,0.011786566518569904,8.15
0.0397008823449528,0.10596131933560944,9.842375151095156,-0.0028894630751162913,0.008989082512159265,-0.004080116615589365,8.16
0.041594907708406424,-0.05520250173252648,9.752504808675466,-0.0034305754842734893,0.0055828588714049365,-0.010616016414961358,8.17
0.0728091517058333,0.09243132093452447,9.74178388938075,-0.002054354640709065,-0.00990305547505055,0.004555868628876008,8.18
-0.09472148373820742,0.050847703062500776,9.703701951117552,0.021644901036429194,0.013467426882240643,-0.000382525519563218,8.19
-0.0683015157992901,-0.007754607086452165,9.846280347878341,0.011958674713336477,-0.000992626557987018,0.006579999219137402,8.2
-0.016636317306878853,0.1617280719481358,9.790387184392346,0.0019043392711297384,-0.004691179001261033,0.013195174969611579,8.21
0.06110721931985367,0.024315553138477056,9.649765159425092,-0.007607861413708195,-0.01077414578440705,-0.002360776091511638,8.22
0.11321950188627046,0.01825640602530498,9.635925021875227,0.015503677414177313,-0.011890194030373185,-0.003072249435666984,8.23
0.15117154341829017,0.07613545771083058,9.93125540487471,0.00678199422317651,0.008845379341153915,-0.012279170280155243,8.24
-0.1734074765685735,0.04137615172750918,9.705297480572675,0.0010820404904647602,-0.0001625444159819299,0.006945551230786779,8.25
-0.010060578457768317,-0.05514196172088575,9.781558353288302,0.0037557100854265753,-0.004323014919619547,-0.011303211209758078,8.26
0.156396683395286,-0.05729707755894255,9.721389780856395,0.0010843242842324108,0.005968219569133553,0.0026873807808989692,8.27
0.0789615121738469,-0.032292143429127486,9.859529955340793,-0.001683978699459924,0.007241819937232933,0.012592913027355008,8.28
0.04137811938903989,-0.14225676759321088,9.845769193501257,0.00148041709863667,0.009274042481091137,0.01278828021821364,8.290000000000001
0.14953611323003158,0.12344114391074242,9.728411105026186,0.011753374322039309,-0.007926806258523864,0.0076034693437867845,8.3
-0.07316620808823392,-0.022142759106011545,9.852246453338536,-0.004974648988195305,0.0015573842659714985,0.0005716594479738342,8.31
0.025074761953993135,0.08413421518850457,9.626531763614167,-0.008033397580786574,0.004313797647289128,0.0062860289857838095,8.32
0.044777834178158116,-0.09249197349552846,9.780838325775294,0.00494275048438103,-0.008209513970110468,0.002206484855347115,8.33
-0.08635861315842956,-0.18227561948494203,9.843113826292528,-0.0009296802693890405,0.013726135507866173,-0.007656688415182875,8.34
0.02397235548117116,-0.17102736676025612,9.622733585968543,0.008705861532883288,0.0007524846838596973,-0.006642458202651697,8.35
-0.09214657793403995,-0.19440245092001723,9.757590282182399,-0.012813439096960566,-0.008605820162193214,-0.008957776579920793,8.36
0.10627132653085036,-0.020173186096877377,9.733308971022689,0.013591237220081669,0.009374028210898873,-0.007326320057766812,8.370000000000001
0.06610993138050639,-0.10620876078883722,9.772621069044012,0.017411964216814534,-0.0025836718536401894,0.006662466674495292,8.38
0.017155894721697033,0.0061610414461216335,9.950528340754797,0.011236465842561787,0.019937114842553515,0.009310818031407377,8.39
0.07451012285691808,0.07324219380751688,9.812647229139902,0.005708329751899103,-0.008085771449249603,0.003157836311859708,8.4
0.08027499033758037,0.12961799813843708,9.886863527998925,0.0036176499031443277,-0.0011208824438620668,-0.007958678300093943,8.41
-0.010281561860322449,-0.15553626728825096,9.868831518010605,-0.0062531646253369275,0.010051137651207125,0.00874398636967044,8.42
0.016101822887726033,0.11448020964240978,9.820748183508492,-0.009637071139147158,0.0012963925780007633,0.005156253733815344,8.43
0.18529053717693666,0.0656717601615656,9.596321324773887,-0.012956603492428732,-0.017215960935836314,-0.020533293828469287,8.44
-0.054876248604204994,-0.03709571985786345,9.94260337935497,0.020098208762806723,-0.006505502031599755,-0.010508756743436544,8.45
0.16923041851533127,0.086232766332927,9.671064506897803,0.004554865095201652,0.02420433988242373,0.000685112067025029,8.46
-0.03415252105039208,0.14768602098086653,9.76877185770291,-0.008099738475367723,-0.0011791305168959798,0.004335714084028341,8.47
0.09758663482003954,-0.08161200815027182,9.709484011456151,-0.002566272102065652,-0.003672040177588475,0.00998276068810129,8.48
0.12331792619567326,0.17720990182908197,9.73769885655649,0.02081074738303694,-0.002249469623753311,0.008111939759145023,8.49
0.02823207004896452,0.06590477233560699,9.663554821442444,-0.002396506130381047,-0.006560949636277403,0.0006282615352527026,8.5
0.12094685766330351,0.015086637643092655,9.833592012067054,-0.011231547841286485,-0.006299763416981914,0.0036765773465380625,8.51
0.04544708027798677,-0.07317941869984969,9.925483594298841,-0.016811384753274507,0.0009145455017162478,0.0059122521387839225,8.52
0.13693474387653845,0.03723264525063715,9.708131452070324,0.007202865171242078,-0.006515537655770168,-0.014774055914603576,8.53
-0.0077865335625414605,-0.04447623875310412,9.72418084322039,0.000894687730595266,0.015546716013169242,0.00867682963595741,8.540000000000001
0.18162665481661644,0.039612535846262516,9.651874859141007,-0.002691663159260066,-0.017069578318573333,0.014640134704113144,8.55
-0.07989937683171017,0.029615177887594962,9.829866987475684,0.0013405619504048105,0.01312667323987875,0.008057539026382,8.56
0.14570085675655417,-0.13017319465168373,9.76966847896237,-0.010064331604501415,0.00028079294770415894,-0.003033024499809588,8.57
-0.058863068750837334,-0.09972538394175179,9.560726930769855,0.005649758763049071,0.0081450326731448,-0.0015414873929167356,8.58
0.0016363227160502735,0.1726088596810704,9.871934022240463,0.006706355395828629,-0.006202449713222233,-0.004358959412095571,8.59
-0.03854855740758727,0.039510998920777085,9.739127134792568,0.01723814339436385,0.003421078793292523,0.007712897813304401,8.6
-0.26161078263885457,-0.06497983380810085,9.82585610130945,0.0033180633180671703,0.005531182150536514,-0.005196183010939088,8.61
0.031496910724409403,-0.021047891722732977,9.939661870228322,0.00786141448123937,-0.002934773322276717,0.022991435790503858,8.620000000000001
0.023565437212427456,0.08924001854669886,9.88955738651235,-0.004454690635863553,0.010373134945941054,-0.005020310221616293,8.63
0.05034282168959153,-0.09608017086240624,9.821455008738454,-0.009991141663010137,0.006820712444812764,0.0015343906849390224,8.64
-0.13239067428627138,-0.0568087563293058,9.936726537778336,-0.00643092608901788,-0.0006887302973199077,-0.0014163719025758518,8.65
-0.06415179590399253,-0.044916837957414114,9.824002716888586,-0.000898859774247925,-0.012608544647063888,-0.0005447054002265476,8.66
0.18892453040313206,-0.3902686306758623,9.805026453641407,0.010334098810706521,-0.01566284163923946,0.002513850144142162,8.67
0.026168349031756185,0.05363050461915815,9.867148644776382,-0.006600049466893882,0.01518701057033601,0.0119137529709896,8.68
-0.1280952928972588,-0.0052546304486449265,9.88022319764976,0.0011586375714078391,-0.011973580570838338,0.0029385157811952917,8.69
0.1925491825501973,0.028606459915001478,9.792840037867713,-0.00881511436015522,0.00021044088518317909,-0.003749651324239985,8.700000000000001
0.18499173760164736,-0.06988213179960795,9.700197171421326,-0.0026939295255915324,-0.004166756867096866,-0.00022503377513159332,8.71
0.05333774406011508,0.016213807278412106,9.801933514348468,-0.008032765192837134,0.00956969663207698,-0.010057738024211806,8.72
-0.14172040922763168,0.06561900596549096,9.760154817503857,0.007335479958005106,0.0020750843273250534,0.00671498404201183,8.73
-0.0044740652770414715,0.011230187540459374,9.848402178449929,0.0033738628023119144,-0.0013274260875135902,-0.012328957129284994,8.74
0.024118841474650467,-0.12371748141609878,9.804661869341807,0.0013945614551227484,0.0036241210588668616,0.010131341156396741,8.75
-0.04415537839275077,0.09070185852323025,9.84344231097917,0.006943371622270976,0.020663664809241297,0.009425394194994776,8.76
0.12435753902271357,-0.12222185519933526,9.788854909718363,0.0011267147321582995,0.003964498905727304,0.0037425692344300937,8.77
0.15651001924462818,-0.05890337745344964,9.995503124698219,-0.004364097392176245,0.014123976100713491,-0.001637273603846613,8.78
-0.04266668289668836,0.16485621421179564,9.88668172674225,0.010202301067010483,0.012375093299292301,0.015314113178093187,8.790000000000001
-0.15463250615227564,0.020730447424849478,9.852382136769466,-0.001340210005151764,0.030430021785078167,-0.0025169518404241408,8.8
-0.032592044719026936,0.059646365583396734,9.760936573993861,-0.004351994349684974,-0.011091963883114809,-0.010042510710149758,8.81
-0.043247288938090774,0.08040370499831562,9.846970953589212,-0.008242515320865037,0.01276939571966827,0.01516794692768088,8.82
0.0036771154567441645,-0.0540454423129646,9.780876970119357,0.010520545013958922,-0.008716399243703845,0.001737399098249031,8.83
-0.09142859482354816,-0.08627219976861156,9.821104516357966,-0.011273035680996904,0.014657367944597257,-0.004873774959895686,8.84
-0.023423196237142584,0.010112694837351248,9.702857636125007,-0.002156243936781338,-0.003159724572882171,-0.009162015644414108,8.85
-0.06461616259311807,-0.05486304150284254,9.80715279242814,-0.0063221336046777885,0.019100774214581367,-0.014204797135130447,8.86
-0.024452463044862625,-0.05766755993736683,9.87226551676264,1.6465961046487375e-05,0.005412277379640085,0.01666766676860254,8.870000000000001
0.03046204758543621,0.07940254511589434,9.725397077731243,-0.0028895344348435297,-9.589411802896512e-06,0.006076387542856858,8.88
0.1863999507100224,-0.08071974538508606,9.973333988405471,0.005878370380603293,0.012887679901750462,-0.00024383126100244447,8.89
-0.02513993437552263,0.02156724073741439,9.690433388087714,-0.004514310434660026,-0.010749083126103008,-0.00481061336405159,8.9
0.1596551273248572,0.21364959118914692,9.730922583780115,0.019351350155911325,0.0032790830792501385,-0.006790046874838464,8.91
0.11812649936005318,0.028744595982363803,9.751746778789515,0.0023198721383220224,-0.00955317117488896,-0.0168866859408281,8.92
-0.10676419593881521,-0.044905715021263316,9.875382383517655,-0.006519443897192842,6.585459531373808e-05,0.011573871183072624,8.93
0.04269233486130147,0.02096401589961916,9.785310760422036,0.006820751768908239,-0.0006883374344593767,-0.01356655291441112,8.94
0.06493217312706126,0.06426935497187254,10.111499958281735,0.008780166213462805,-0.0017549156975399827,0.0004326010942965064,8.950000000000001
0.0974548355477487,0.0422384925890467,9.91651302781583,-0.004262803820011295,-0.0056852875778968135,0.0028186844820709957,8.96
0.14959810101730717,-0.029412320847788234,9.800579943975126,-0.015252848635807718,-0.007425785756729906,-0.0143875164971772,8.97
-0.09016469017619093,-0.032880267347693254,9.857306971363077,-0.008767079695783282,0.004940872164960473,-0.0018615873388969381,8.98
0.1198585812897482,0.1412881518457176,9.73675009747419,-0.0005368648567778393,0.012032312322223413,0.014341891202627506,8.99
0.022011659046347873,0.1133287079691092,9.793342556181702,-0.01582065905765962,0.006661100047945757,-0.0064342056888701425,9.0
-0.10712397414774713,-0.054441436156465385,9.8405960836115,0.019922958481255353,0.018449642183379654,0.008976131583174386,9.01
-0.15236827287153412,0.06652135866175213,9.763737902179352,-0.01290163037656379,0.007550948445843452,-0.0020177246053520743,9.02
-0.12339319420727533,0.03783696830215422,9.884219771265876,0.011132598406783196,-0.010851281224225207,-0.003696314986277123,9.03
0.16969037076892404,-0.2360677170282428,9.89891588561577,-0.013297516085129881,-0.009398202041222463,-0.00911899856505695,9.040000000000001
-0.10166263207633691,-0.1415111184821003,9.81974473788696,0.008368053721367659,-0.006506130658990791,0.00234134537833369,9.05
-0.04376534558620288,-0.03626902064054766,9.808752626094426,-0.0004215723174349863,-0.007735373411549737,-0.014348042474450585,9.06
0.08609778413550753,0.18218295518900163,9.96480315432361,0.005314755995031271,0.0016254161999560205,0.0021243756927105794,9.07
0.021060424101288586,0.01835003050742538,9.787788323717997,-0.006390691403468947,-0.00721645898997871,0.00890547377417482,9.08
0.05903375555330803,0.028760008376939924,9.773632659780915,0.008707119284845976,0.018187954708135678,-0.0029790510752022883,9.09
-0.07340156281610524,-0.11417404982685475,9.832043730471396,-3.577538736879207e-05,-3.9667581112801405e-05,-0.002288133766641402,9.1
0.18074177100282718,0.02909036874817066,9.979537561419466,-0.0034362981031738973,-0.006809615328437193,-0.0020483753490886016,9.11
-0.08608408817080825,-0.06103170074601686,9.82196163715239,-0.011765118092340496,0.009359817777915136,0.008771591266248735,9.120000000000001
0.028386175314936108,0.08347978475372568,9.94723928941819,-0.0018921778047323297,0.006254993687189687,0.0018097566924932462,9.13
-0.08706891560438543,0.14003174754494932,9.901177001078754,-0.005628274308341873,-0.009359299789170645,-0.014304199563478334,9.14
0.06782989310193625,0.011078365472027556,9.801838878480515,-0.013048782023746435,-0.00904611544268758,0.004901688232480093,9.15
0.06716434000047694,0.03133929427433147,9.817516461537169,0.00037633517591046696,0.0019796017430893298,-0.006937291899949494,9.16
